#X		#Y		#Wave		#Intensity
20396.908989	-1224.422500	1999.980469	22.670372
20396.908989	-1224.422500	1999.016602	-65.569832
20396.908989	-1224.422500	1998.052734	-42.449802
20396.908989	-1224.422500	1997.087891	-180.798386
20396.908989	-1224.422500	1996.123047	210.751526
20396.908989	-1224.422500	1995.158203	64.238556
20396.908989	-1224.422500	1994.193359	88.325172
20396.908989	-1224.422500	1993.228516	-108.325493
20396.908989	-1224.422500	1992.262695	-243.331406
20396.908989	-1224.422500	1991.297852	-17.202852
20396.908989	-1224.422500	1990.332031	144.190811
20396.908989	-1224.422500	1989.366211	-11.500330
20396.908989	-1224.422500	1988.399414	-18.976448
20396.908989	-1224.422500	1987.433594	-167.718002
20396.908989	-1224.422500	1986.466797	145.796906
20396.908989	-1224.422500	1985.500977	-43.001400
20396.908989	-1224.422500	1984.534180	-88.588615
20396.908989	-1224.422500	1983.567383	-25.640429
20396.908989	-1224.422500	1982.599609	227.343262
20396.908989	-1224.422500	1981.632813	139.046829
20396.908989	-1224.422500	1980.665039	361.834595
20396.908989	-1224.422500	1979.697266	166.930420
20396.908989	-1224.422500	1978.729492	246.010727
20396.908989	-1224.422500	1977.761719	-13.369405
20396.908989	-1224.422500	1976.792969	134.470367
20396.908989	-1224.422500	1975.825195	252.470444
20396.908989	-1224.422500	1974.856445	148.183105
20396.908989	-1224.422500	1973.887695	38.845871
20396.908989	-1224.422500	1972.918945	20.668152
20396.908989	-1224.422500	1971.949219	199.651825
20396.908989	-1224.422500	1970.980469	-85.121468
20396.908989	-1224.422500	1970.010742	115.742897
20396.908989	-1224.422500	1969.041016	-16.339005
20396.908989	-1224.422500	1968.071289	38.806194
20396.908989	-1224.422500	1967.101563	197.307755
20396.908989	-1224.422500	1966.130859	249.717575
20396.908989	-1224.422500	1965.161133	-67.435059
20396.908989	-1224.422500	1964.190430	21.756783
20396.908989	-1224.422500	1963.219727	167.457870
20396.908989	-1224.422500	1962.249023	34.862061
20396.908989	-1224.422500	1961.277344	229.573776
20396.908989	-1224.422500	1960.306641	131.321579
20396.908989	-1224.422500	1959.334961	67.483475
20396.908989	-1224.422500	1958.363281	74.942635
20396.908989	-1224.422500	1957.391602	47.913654
20396.908989	-1224.422500	1956.419922	101.986008
20396.908989	-1224.422500	1955.447266	121.572449
20396.908989	-1224.422500	1954.474609	197.641769
20396.908989	-1224.422500	1953.501953	308.050568
20396.908989	-1224.422500	1952.529297	12.970794
20396.908989	-1224.422500	1951.556641	-1.978519
20396.908989	-1224.422500	1950.583984	344.103790
20396.908989	-1224.422500	1949.610352	105.578705
20396.908989	-1224.422500	1948.636719	-29.756451
20396.908989	-1224.422500	1947.663086	60.779373
20396.908989	-1224.422500	1946.689453	28.552641
20396.908989	-1224.422500	1945.715820	-96.917953
20396.908989	-1224.422500	1944.741211	49.974033
20396.908989	-1224.422500	1943.767578	-180.941376
20396.908989	-1224.422500	1942.792969	132.674423
20396.908989	-1224.422500	1941.818359	80.822136
20396.908989	-1224.422500	1940.842773	124.601891
20396.908989	-1224.422500	1939.868164	-64.481926
20396.908989	-1224.422500	1938.892578	-20.678024
20396.908989	-1224.422500	1937.916992	-72.438293
20396.908989	-1224.422500	1936.941406	37.516682
20396.908989	-1224.422500	1935.965820	260.111755
20396.908989	-1224.422500	1934.990234	100.623207
20396.908989	-1224.422500	1934.013672	-12.271276
20396.908989	-1224.422500	1933.037109	-59.010494
20396.908989	-1224.422500	1932.060547	48.478455
20396.908989	-1224.422500	1931.083984	80.093559
20396.908989	-1224.422500	1930.107422	45.664383
20396.908989	-1224.422500	1929.129883	-103.695221
20396.908989	-1224.422500	1928.153320	-10.851595
20396.908989	-1224.422500	1927.175781	-235.890015
20396.908989	-1224.422500	1926.198242	-143.001022
20396.908989	-1224.422500	1925.219727	86.759117
20396.908989	-1224.422500	1924.242188	72.086960
20396.908989	-1224.422500	1923.263672	37.903042
20396.908989	-1224.422500	1922.285156	59.950943
20396.908989	-1224.422500	1921.306641	145.528259
20396.908989	-1224.422500	1920.328125	111.451027
20396.908989	-1224.422500	1919.349609	126.251068
20396.908989	-1224.422500	1918.370117	-34.677948
20396.908989	-1224.422500	1917.391602	-39.309414
20396.908989	-1224.422500	1916.412109	-148.832184
20396.908989	-1224.422500	1915.431641	-21.628639
20396.908989	-1224.422500	1914.452148	25.072510
20396.908989	-1224.422500	1913.472656	-57.464218
20396.908989	-1224.422500	1912.492188	-47.276958
20396.908989	-1224.422500	1911.511719	9.262502
20396.908989	-1224.422500	1910.531250	-41.428852
20396.908989	-1224.422500	1909.550781	73.651840
20396.908989	-1224.422500	1908.569336	-125.588310
20396.908989	-1224.422500	1907.588867	-105.468765
20396.908989	-1224.422500	1906.607422	-131.598129
20396.908989	-1224.422500	1905.625977	-14.005943
20396.908989	-1224.422500	1904.644531	-66.851730
20396.908989	-1224.422500	1903.662109	-105.038017
20396.908989	-1224.422500	1902.680664	90.471550
20396.908989	-1224.422500	1901.698242	-317.527161
20396.908989	-1224.422500	1900.715820	23.990499
20396.908989	-1224.422500	1899.733398	-18.909571
20396.908989	-1224.422500	1898.750000	254.394455
20396.908989	-1224.422500	1897.767578	384.171753
20396.908989	-1224.422500	1896.784180	39.872639
20396.908989	-1224.422500	1895.800781	72.479401
20396.908989	-1224.422500	1894.817383	-254.558502
20396.908989	-1224.422500	1893.833984	21.122414
20396.908989	-1224.422500	1892.850586	131.539871
20396.908989	-1224.422500	1891.866211	215.226822
20396.908989	-1224.422500	1890.881836	-24.059349
20396.908989	-1224.422500	1889.897461	-100.560783
20396.908989	-1224.422500	1888.913086	-123.604599
20396.908989	-1224.422500	1887.927734	-134.481110
20396.908989	-1224.422500	1886.943359	46.366901
20396.908989	-1224.422500	1885.958008	-102.776024
20396.908989	-1224.422500	1884.972656	-130.561035
20396.908989	-1224.422500	1883.987305	-206.818314
20396.908989	-1224.422500	1883.001953	-59.954262
20396.908989	-1224.422500	1882.015625	106.266197
20396.908989	-1224.422500	1881.029297	-122.637413
20396.908989	-1224.422500	1880.042969	53.259537
20396.908989	-1224.422500	1879.056641	-42.258030
20396.908989	-1224.422500	1878.070313	121.474701
20396.908989	-1224.422500	1877.083984	33.271923
20396.908989	-1224.422500	1876.096680	87.983887
20396.908989	-1224.422500	1875.109375	186.263718
20396.908989	-1224.422500	1874.122070	-25.323471
20396.908989	-1224.422500	1873.134766	-101.294594
20396.908989	-1224.422500	1872.146484	-269.181274
20396.908989	-1224.422500	1871.159180	-216.846054
20396.908989	-1224.422500	1870.170898	-72.612656
20396.908989	-1224.422500	1869.182617	81.241272
20396.908989	-1224.422500	1868.194336	89.965340
20396.908989	-1224.422500	1867.205078	-99.546341
20396.908989	-1224.422500	1866.216797	100.148262
20396.908989	-1224.422500	1865.227539	125.772316
20396.908989	-1224.422500	1864.238281	71.651596
20396.908989	-1224.422500	1863.249023	80.351105
20396.908989	-1224.422500	1862.259766	43.151653
20396.908989	-1224.422500	1861.269531	-182.391571
20396.908989	-1224.422500	1860.279297	-77.106148
20396.908989	-1224.422500	1859.290039	-70.837166
20396.908989	-1224.422500	1858.298828	-88.719086
20396.908989	-1224.422500	1857.308594	52.644325
20396.908989	-1224.422500	1856.318359	44.365826
20396.908989	-1224.422500	1855.327148	-12.168452
20396.908989	-1224.422500	1854.335938	92.873154
20396.908989	-1224.422500	1853.344727	36.312443
20396.908989	-1224.422500	1852.353516	78.586456
20396.908989	-1224.422500	1851.362305	43.695705
20396.908989	-1224.422500	1850.370117	54.576023
20396.908989	-1224.422500	1849.377930	118.431236
20396.908989	-1224.422500	1848.385742	-109.234238
20396.908989	-1224.422500	1847.393555	-38.204044
20396.908989	-1224.422500	1846.401367	-82.811646
20396.908989	-1224.422500	1845.408203	130.163803
20396.908989	-1224.422500	1844.415039	-114.309052
20396.908989	-1224.422500	1843.421875	271.796661
20396.908989	-1224.422500	1842.428711	142.811600
20396.908989	-1224.422500	1841.435547	129.309540
20396.908989	-1224.422500	1840.441406	-57.403862
20396.908989	-1224.422500	1839.448242	-20.443171
20396.908989	-1224.422500	1838.454102	146.292603
20396.908989	-1224.422500	1837.459961	34.074112
20396.908989	-1224.422500	1836.464844	-66.130989
20396.908989	-1224.422500	1835.470703	13.878492
20396.908989	-1224.422500	1834.475586	69.783333
20396.908989	-1224.422500	1833.480469	36.742077
20396.908989	-1224.422500	1832.485352	-82.794449
20396.908989	-1224.422500	1831.490234	66.590408
20396.908989	-1224.422500	1830.495117	31.012518
20396.908989	-1224.422500	1829.499023	197.011536
20396.908989	-1224.422500	1828.502930	374.890808
20396.908989	-1224.422500	1827.506836	-25.593088
20396.908989	-1224.422500	1826.510742	46.595669
20396.908989	-1224.422500	1825.513672	284.186005
20396.908989	-1224.422500	1824.517578	-39.497570
20396.908989	-1224.422500	1823.520508	147.547928
20396.908989	-1224.422500	1822.523438	181.048172
20396.908989	-1224.422500	1821.526367	1.170901
20396.908989	-1224.422500	1820.529297	190.305557
20396.908989	-1224.422500	1819.531250	-35.160049
20396.908989	-1224.422500	1818.533203	158.562546
20396.908989	-1224.422500	1817.535156	28.842302
20396.908989	-1224.422500	1816.537109	-60.194935
20396.908989	-1224.422500	1815.539063	-51.120583
20396.908989	-1224.422500	1814.540039	-13.404525
20396.908989	-1224.422500	1813.541992	-18.846655
20396.908989	-1224.422500	1812.542969	73.728584
20396.908989	-1224.422500	1811.543945	-37.135876
20396.908989	-1224.422500	1810.543945	124.608421
20396.908989	-1224.422500	1809.544922	47.096798
20396.908989	-1224.422500	1808.544922	22.127329
20396.908989	-1224.422500	1807.544922	25.771637
20396.908989	-1224.422500	1806.544922	117.755333
20396.908989	-1224.422500	1805.544922	54.312820
20396.908989	-1224.422500	1804.544922	220.147293
20396.908989	-1224.422500	1803.543945	125.486465
20396.908989	-1224.422500	1802.542969	190.774506
20396.908989	-1224.422500	1801.541992	-56.822472
20396.908989	-1224.422500	1800.541016	208.820679
20396.908989	-1224.422500	1799.539063	199.801529
20396.908989	-1224.422500	1798.538086	257.516144
20396.908989	-1224.422500	1797.536133	-52.294655
20396.908989	-1224.422500	1796.534180	107.829559
20396.908989	-1224.422500	1795.532227	-1.689113
20396.908989	-1224.422500	1794.529297	15.110816
20396.908989	-1224.422500	1793.527344	98.566795
20396.908989	-1224.422500	1792.524414	48.414993
20396.908989	-1224.422500	1791.521484	157.853653
20396.908989	-1224.422500	1790.518555	95.607697
20396.908989	-1224.422500	1789.514648	264.353119
20396.908989	-1224.422500	1788.511719	166.191071
20396.908989	-1224.422500	1787.507813	-32.049335
20396.908989	-1224.422500	1786.503906	7.768177
20396.908989	-1224.422500	1785.500000	-2.516114
20396.908989	-1224.422500	1784.496094	-24.794338
20396.908989	-1224.422500	1783.491211	114.632492
20396.908989	-1224.422500	1782.486328	123.061279
20396.908989	-1224.422500	1781.481445	86.192711
20396.908989	-1224.422500	1780.476563	108.689445
20396.908989	-1224.422500	1779.471680	57.367458
20396.908989	-1224.422500	1778.465820	148.589417
20396.908989	-1224.422500	1777.460938	111.334747
20396.908989	-1224.422500	1776.455078	5.072305
20396.908989	-1224.422500	1775.449219	0.907420
20396.908989	-1224.422500	1774.442383	-72.252617
20396.908989	-1224.422500	1773.436523	-10.111126
20396.908989	-1224.422500	1772.429688	70.889908
20396.908989	-1224.422500	1771.422852	54.419754
20396.908989	-1224.422500	1770.416016	-14.368500
20396.908989	-1224.422500	1769.409180	-85.609833
20396.908989	-1224.422500	1768.402344	-21.687263
20396.908989	-1224.422500	1767.394531	-29.070019
20396.908989	-1224.422500	1766.386719	55.943027
20396.908989	-1224.422500	1765.378906	53.077328
20396.908989	-1224.422500	1764.371094	107.007568
20396.908989	-1224.422500	1763.362305	6.723192
20396.908989	-1224.422500	1762.354492	107.826027
20396.908989	-1224.422500	1761.345703	113.994186
20396.908989	-1224.422500	1760.336914	15.812342
20396.908989	-1224.422500	1759.328125	-132.181442
20396.908989	-1224.422500	1758.318359	25.260677
20396.908989	-1224.422500	1757.308594	-111.063400
20396.908989	-1224.422500	1756.299805	-176.417831
20396.908989	-1224.422500	1755.290039	27.955481
20396.908989	-1224.422500	1754.279297	52.290691
20396.908989	-1224.422500	1753.269531	159.323471
20396.908989	-1224.422500	1752.258789	-34.216953
20396.908989	-1224.422500	1751.249023	-154.466553
20396.908989	-1224.422500	1750.238281	-95.078300
20396.908989	-1224.422500	1749.226563	108.382278
20396.908989	-1224.422500	1748.215820	61.116779
20396.908989	-1224.422500	1747.204102	-142.219711
20396.908989	-1224.422500	1746.193359	-50.230793
20396.908989	-1224.422500	1745.181641	-0.914112
20396.908989	-1224.422500	1744.168945	36.458855
20396.908989	-1224.422500	1743.157227	59.550766
20396.908989	-1224.422500	1742.144531	40.020695
20396.908989	-1224.422500	1741.132813	-3.202643
20396.908989	-1224.422500	1740.120117	-148.009354
20396.908989	-1224.422500	1739.106445	-9.720642
20396.908989	-1224.422500	1738.093750	17.539150
20396.908989	-1224.422500	1737.080078	-73.263191
20396.908989	-1224.422500	1736.067383	71.703476
20396.908989	-1224.422500	1735.053711	70.314774
20396.908989	-1224.422500	1734.040039	-34.902084
20396.908989	-1224.422500	1733.025391	76.645416
20396.908989	-1224.422500	1732.011719	-0.459746
20396.908989	-1224.422500	1730.997070	-103.565308
20396.908989	-1224.422500	1729.982422	-25.353567
20396.908989	-1224.422500	1728.967773	-107.421608
20396.908989	-1224.422500	1727.952148	-52.998569
20396.908989	-1224.422500	1726.937500	48.397968
20396.908989	-1224.422500	1725.921875	90.801277
20396.908989	-1224.422500	1724.906250	-151.662766
20396.908989	-1224.422500	1723.890625	-144.728882
20396.908989	-1224.422500	1722.875000	-32.036018
20396.908989	-1224.422500	1721.858398	146.360062
20396.908989	-1224.422500	1720.841797	-141.010040
20396.908989	-1224.422500	1719.825195	-52.195412
20396.908989	-1224.422500	1718.808594	177.527344
20396.908989	-1224.422500	1717.791992	47.491009
20396.908989	-1224.422500	1716.774414	-200.088043
20396.908989	-1224.422500	1715.756836	123.208000
20396.908989	-1224.422500	1714.739258	-28.173759
20396.908989	-1224.422500	1713.721680	38.807533
20396.908989	-1224.422500	1712.704102	-86.856079
20396.908989	-1224.422500	1711.685547	-165.625336
20396.908989	-1224.422500	1710.667969	140.469604
20396.908989	-1224.422500	1709.649414	-72.245590
20396.908989	-1224.422500	1708.630859	-231.006668
20396.908989	-1224.422500	1707.611328	-68.449448
20396.908989	-1224.422500	1706.592773	-124.133667
20396.908989	-1224.422500	1705.573242	94.443527
20396.908989	-1224.422500	1704.553711	90.142426
20396.908989	-1224.422500	1703.534180	-36.122921
20396.908989	-1224.422500	1702.513672	-42.920250
20396.908989	-1224.422500	1701.494141	13.475674
20396.908989	-1224.422500	1700.473633	-232.429047
20396.908989	-1224.422500	1699.453125	-7.561784
20396.908989	-1224.422500	1698.432617	-61.514271
20396.908989	-1224.422500	1697.412109	-206.828445
20396.908989	-1224.422500	1696.390625	132.352417
20396.908989	-1224.422500	1695.369141	131.987045
20396.908989	-1224.422500	1694.347656	37.953461
20396.908989	-1224.422500	1693.326172	-16.347843
20396.908989	-1224.422500	1692.304688	83.667244
20396.908989	-1224.422500	1691.282227	-1.180950
20396.908989	-1224.422500	1690.260742	-29.940960
20396.908989	-1224.422500	1689.238281	263.812866
20396.908989	-1224.422500	1688.214844	-61.968292
20396.908989	-1224.422500	1687.192383	161.441803
20396.908989	-1224.422500	1686.168945	232.830826
20396.908989	-1224.422500	1685.146484	26.184057
20396.908989	-1224.422500	1684.123047	15.705937
20396.908989	-1224.422500	1683.099609	184.953720
20396.908989	-1224.422500	1682.075195	94.939705
20396.908989	-1224.422500	1681.051758	238.310806
20396.908989	-1224.422500	1680.027344	269.544495
20396.908989	-1224.422500	1679.002930	-37.589787
20396.908989	-1224.422500	1677.978516	124.196281
20396.908989	-1224.422500	1676.953125	262.528107
20396.908989	-1224.422500	1675.928711	468.387085
20396.908989	-1224.422500	1674.903320	256.798157
20396.908989	-1224.422500	1673.877930	292.307343
20396.908989	-1224.422500	1672.852539	71.409142
20396.908989	-1224.422500	1671.826172	-128.499802
20396.908989	-1224.422500	1670.800781	153.839783
20396.908989	-1224.422500	1669.774414	228.722900
20396.908989	-1224.422500	1668.748047	280.245697
20396.908989	-1224.422500	1667.721680	257.203400
20396.908989	-1224.422500	1666.694336	394.723053
20396.908989	-1224.422500	1665.667969	297.110199
20396.908989	-1224.422500	1664.640625	504.289398
20396.908989	-1224.422500	1663.613281	474.061096
20396.908989	-1224.422500	1662.585938	532.191284
20396.908989	-1224.422500	1661.557617	499.553925
20396.908989	-1224.422500	1660.530273	450.633636
20396.908989	-1224.422500	1659.501953	373.789276
20396.908989	-1224.422500	1658.473633	471.248199
20396.908989	-1224.422500	1657.444336	610.447815
20396.908989	-1224.422500	1656.416016	475.442230
20396.908989	-1224.422500	1655.386719	570.395874
20396.908989	-1224.422500	1654.358398	621.177368
20396.908989	-1224.422500	1653.328125	718.319641
20396.908989	-1224.422500	1652.298828	708.629456
20396.908989	-1224.422500	1651.269531	636.255066
20396.908989	-1224.422500	1650.239258	737.908264
20396.908989	-1224.422500	1649.208984	846.461121
20396.908989	-1224.422500	1648.178711	702.116150
20396.908989	-1224.422500	1647.148438	805.959839
20396.908989	-1224.422500	1646.117188	826.256470
20396.908989	-1224.422500	1645.086914	767.725647
20396.908989	-1224.422500	1644.055664	1131.028442
20396.908989	-1224.422500	1643.024414	975.091003
20396.908989	-1224.422500	1641.992188	1016.123779
20396.908989	-1224.422500	1640.960938	945.956848
20396.908989	-1224.422500	1639.928711	1077.286499
20396.908989	-1224.422500	1638.896484	937.638245
20396.908989	-1224.422500	1637.864258	1416.173706
20396.908989	-1224.422500	1636.832031	1116.792725
20396.908989	-1224.422500	1635.798828	1245.639526
20396.908989	-1224.422500	1634.766602	1568.806763
20396.908989	-1224.422500	1633.733398	1285.744751
20396.908989	-1224.422500	1632.699219	1340.456909
20396.908989	-1224.422500	1631.666016	1270.296387
20396.908989	-1224.422500	1630.632813	1306.519043
20396.908989	-1224.422500	1629.598633	1388.947876
20396.908989	-1224.422500	1628.564453	1369.664917
20396.908989	-1224.422500	1627.530273	1426.649170
20396.908989	-1224.422500	1626.495117	1488.226685
20396.908989	-1224.422500	1625.460938	1413.532959
20396.908989	-1224.422500	1624.425781	1585.958618
20396.908989	-1224.422500	1623.390625	1444.332153
20396.908989	-1224.422500	1622.355469	1849.861816
20396.908989	-1224.422500	1621.319336	1650.558350
20396.908989	-1224.422500	1620.284180	1610.582275
20396.908989	-1224.422500	1619.248047	1346.845215
20396.908989	-1224.422500	1618.211914	1606.825684
20396.908989	-1224.422500	1617.174805	1696.060791
20396.908989	-1224.422500	1616.138672	1764.547852
20396.908989	-1224.422500	1615.101563	1533.339233
20396.908989	-1224.422500	1614.065430	1673.334473
20396.908989	-1224.422500	1613.027344	1863.967773
20396.908989	-1224.422500	1611.990234	1711.293945
20396.908989	-1224.422500	1610.953125	1742.985107
20396.908989	-1224.422500	1609.915039	1687.168335
20396.908989	-1224.422500	1608.876953	1564.633423
20396.908989	-1224.422500	1607.838867	1796.706055
20396.908989	-1224.422500	1606.800781	1998.801392
20396.908989	-1224.422500	1605.761719	1973.025391
20396.908989	-1224.422500	1604.723633	2071.553223
20396.908989	-1224.422500	1603.684570	1896.333740
20396.908989	-1224.422500	1602.644531	2054.688721
20396.908989	-1224.422500	1601.605469	2137.159912
20396.908989	-1224.422500	1600.566406	2024.234375
20396.908989	-1224.422500	1599.526367	2189.502686
20396.908989	-1224.422500	1598.486328	2370.841553
20396.908989	-1224.422500	1597.446289	2356.864258
20396.908989	-1224.422500	1596.405273	2349.816895
20396.908989	-1224.422500	1595.365234	2358.917480
20396.908989	-1224.422500	1594.324219	2342.794678
20396.908989	-1224.422500	1593.283203	2365.760986
20396.908989	-1224.422500	1592.242188	2051.354736
20396.908989	-1224.422500	1591.200195	2152.495361
20396.908989	-1224.422500	1590.159180	2177.951660
20396.908989	-1224.422500	1589.117188	2042.863403
20396.908989	-1224.422500	1588.075195	2222.109131
20396.908989	-1224.422500	1587.032227	2176.605957
20396.908989	-1224.422500	1585.990234	2284.808350
20396.908989	-1224.422500	1584.947266	2019.385498
20396.908989	-1224.422500	1583.904297	2042.897461
20396.908989	-1224.422500	1582.861328	2139.792480
20396.908989	-1224.422500	1581.818359	2076.354980
20396.908989	-1224.422500	1580.775391	2038.207520
20396.908989	-1224.422500	1579.731445	2121.501953
20396.908989	-1224.422500	1578.687500	2005.647217
20396.908989	-1224.422500	1577.643555	2187.492432
20396.908989	-1224.422500	1576.598633	1952.796997
20396.908989	-1224.422500	1575.554688	2141.597900
20396.908989	-1224.422500	1574.509766	1698.972290
20396.908989	-1224.422500	1573.464844	2102.898682
20396.908989	-1224.422500	1572.419922	1884.724243
20396.908989	-1224.422500	1571.374023	1634.693359
20396.908989	-1224.422500	1570.329102	1794.041016
20396.908989	-1224.422500	1569.283203	1745.417480
20396.908989	-1224.422500	1568.237305	1674.045166
20396.908989	-1224.422500	1567.191406	1865.519043
20396.908989	-1224.422500	1566.144531	1757.765503
20396.908989	-1224.422500	1565.098633	1810.014893
20396.908989	-1224.422500	1564.051758	1750.441650
20396.908989	-1224.422500	1563.004883	1506.074341
20396.908989	-1224.422500	1561.957031	1624.777344
20396.908989	-1224.422500	1560.910156	1702.465942
20396.908989	-1224.422500	1559.862305	1483.613647
20396.908989	-1224.422500	1558.814453	1620.780273
20396.908989	-1224.422500	1557.766602	1397.660034
20396.908989	-1224.422500	1556.718750	1477.978760
20396.908989	-1224.422500	1555.669922	1264.276733
20396.908989	-1224.422500	1554.621094	1066.710938
20396.908989	-1224.422500	1553.573242	1281.793335
20396.908989	-1224.422500	1552.523438	1257.644287
20396.908989	-1224.422500	1551.474609	973.940125
20396.908989	-1224.422500	1550.424805	1123.152466
20396.908989	-1224.422500	1549.375000	967.294861
20396.908989	-1224.422500	1548.325195	975.512817
20396.908989	-1224.422500	1547.275391	938.311157
20396.908989	-1224.422500	1546.225586	666.841064
20396.908989	-1224.422500	1545.174805	912.044495
20396.908989	-1224.422500	1544.124023	595.398499
20396.908989	-1224.422500	1543.073242	674.713379
20396.908989	-1224.422500	1542.022461	710.905029
20396.908989	-1224.422500	1540.970703	626.694153
20396.908989	-1224.422500	1539.919922	535.820618
20396.908989	-1224.422500	1538.868164	697.333435
20396.908989	-1224.422500	1537.815430	477.181946
20396.908989	-1224.422500	1536.763672	672.947205
20396.908989	-1224.422500	1535.710938	523.524536
20396.908989	-1224.422500	1534.659180	587.732727
20396.908989	-1224.422500	1533.606445	309.215637
20396.908989	-1224.422500	1532.552734	661.926392
20396.908989	-1224.422500	1531.500000	764.994751
20396.908989	-1224.422500	1530.446289	636.704712
20396.908989	-1224.422500	1529.393555	265.868103
20396.908989	-1224.422500	1528.338867	423.731812
20396.908989	-1224.422500	1527.285156	309.555145
20396.908989	-1224.422500	1526.231445	556.018799
20396.908989	-1224.422500	1525.176758	451.166260
20396.908989	-1224.422500	1524.122070	224.102997
20396.908989	-1224.422500	1523.067383	405.095245
20396.908989	-1224.422500	1522.012695	633.713867
20396.908989	-1224.422500	1520.957031	472.801636
20396.908989	-1224.422500	1519.901367	463.796478
20396.908989	-1224.422500	1518.845703	180.979218
20396.908989	-1224.422500	1517.790039	226.617035
20396.908989	-1224.422500	1516.734375	419.467255
20396.908989	-1224.422500	1515.677734	347.632935
20396.908989	-1224.422500	1514.621094	459.196838
20396.908989	-1224.422500	1513.564453	292.651703
20396.908989	-1224.422500	1512.507813	187.358292
20396.908989	-1224.422500	1511.450195	303.797058
20396.908989	-1224.422500	1510.393555	646.369995
20396.908989	-1224.422500	1509.335938	606.999451
20396.908989	-1224.422500	1508.278320	597.153198
20396.908989	-1224.422500	1507.219727	485.778900
20396.908989	-1224.422500	1506.162109	444.609497
20396.908989	-1224.422500	1505.103516	611.334961
20396.908989	-1224.422500	1504.044922	656.213440
20396.908989	-1224.422500	1502.986328	696.696533
20396.908989	-1224.422500	1501.926758	647.021484
20396.908989	-1224.422500	1500.868164	430.537079
20396.908989	-1224.422500	1499.808594	516.563477
20396.908989	-1224.422500	1498.749023	442.555328
20396.908989	-1224.422500	1497.688477	411.557129
20396.908989	-1224.422500	1496.628906	513.732971
20396.908989	-1224.422500	1495.568359	217.022018
20396.908989	-1224.422500	1494.507813	209.039642
20396.908989	-1224.422500	1493.447266	-28.629946
20396.908989	-1224.422500	1492.386719	78.612099
20396.908989	-1224.422500	1491.325195	-23.520140
20396.908989	-1224.422500	1490.263672	79.452316
20396.908989	-1224.422500	1489.202148	-150.691055
20396.908989	-1224.422500	1488.140625	-150.997940
20396.908989	-1224.422500	1487.079102	-13.880290
20396.908989	-1224.422500	1486.016602	-70.186890
20396.908989	-1224.422500	1484.954102	37.895462
20396.908989	-1224.422500	1483.891602	29.118832
20396.908989	-1224.422500	1482.829102	94.696220
20396.908989	-1224.422500	1481.765625	295.284180
20396.908989	-1224.422500	1480.702148	334.093811
20396.908989	-1224.422500	1479.638672	456.168091
20396.908989	-1224.422500	1478.575195	850.204407
20396.908989	-1224.422500	1477.511719	608.493713
20396.908989	-1224.422500	1476.447266	838.641541
20396.908989	-1224.422500	1475.382813	747.784912
20396.908989	-1224.422500	1474.318359	708.728516
20396.908989	-1224.422500	1473.253906	535.120789
20396.908989	-1224.422500	1472.189453	545.856201
20396.908989	-1224.422500	1471.124023	267.318176
20396.908989	-1224.422500	1470.058594	556.144958
20396.908989	-1224.422500	1468.993164	482.051392
20396.908989	-1224.422500	1467.927734	446.347900
20396.908989	-1224.422500	1466.861328	267.254272
20396.908989	-1224.422500	1465.794922	375.314484
20396.908989	-1224.422500	1464.728516	608.610474
20396.908989	-1224.422500	1463.662109	564.563904
20396.908989	-1224.422500	1462.594727	432.877594
20396.908989	-1224.422500	1461.528320	379.970001
20396.908989	-1224.422500	1460.460938	254.229202
20396.908989	-1224.422500	1459.393555	546.118164
20396.908989	-1224.422500	1458.326172	583.248108
20396.908989	-1224.422500	1457.257813	515.583984
20396.908989	-1224.422500	1456.189453	470.186066
20396.908989	-1224.422500	1455.121094	376.557983
20396.908989	-1224.422500	1454.052734	441.808899
20396.908989	-1224.422500	1452.984375	299.567474
20396.908989	-1224.422500	1451.915039	302.312988
20396.908989	-1224.422500	1450.845703	328.550262
20396.908989	-1224.422500	1449.776367	487.294647
20396.908989	-1224.422500	1448.707031	278.106384
20396.908989	-1224.422500	1447.636719	146.240601
20396.908989	-1224.422500	1446.567383	368.906921
20396.908989	-1224.422500	1445.497070	430.711761
20396.908989	-1224.422500	1444.425781	484.911011
20396.908989	-1224.422500	1443.355469	264.016205
20396.908989	-1224.422500	1442.285156	80.590309
20396.908989	-1224.422500	1441.213867	445.421387
20396.908989	-1224.422500	1440.142578	493.174011
20396.908989	-1224.422500	1439.070313	534.566162
20396.908989	-1224.422500	1437.999023	513.330627
20396.908989	-1224.422500	1436.926758	566.212585
20396.908989	-1224.422500	1435.854492	521.166016
20396.908989	-1224.422500	1434.782227	392.036133
20396.908989	-1224.422500	1433.709961	579.683899
20396.908989	-1224.422500	1432.636719	244.067200
20396.908989	-1224.422500	1431.563477	193.613159
20396.908989	-1224.422500	1430.490234	470.402344
20396.908989	-1224.422500	1429.416992	239.261383
20396.908989	-1224.422500	1428.343750	414.620453
20396.908989	-1224.422500	1427.269531	293.936096
20396.908989	-1224.422500	1426.195313	109.983398
20396.908989	-1224.422500	1425.121094	342.605530
20396.908989	-1224.422500	1424.046875	494.503174
20396.908989	-1224.422500	1422.971680	400.871552
20396.908989	-1224.422500	1421.896484	586.147339
20396.908989	-1224.422500	1420.821289	531.085815
20396.908989	-1224.422500	1419.746094	620.539856
20396.908989	-1224.422500	1418.669922	731.931824
20396.908989	-1224.422500	1417.594727	1043.077515
20396.908989	-1224.422500	1416.518555	1174.915894
20396.908989	-1224.422500	1415.442383	986.412231
20396.908989	-1224.422500	1414.365234	980.594666
20396.908989	-1224.422500	1413.289063	959.965576
20396.908989	-1224.422500	1412.211914	1124.238281
20396.908989	-1224.422500	1411.134766	1058.285645
20396.908989	-1224.422500	1410.057617	1178.062134
20396.908989	-1224.422500	1408.979492	1098.696045
20396.908989	-1224.422500	1407.902344	992.461853
20396.908989	-1224.422500	1406.824219	1018.699158
20396.908989	-1224.422500	1405.746094	1016.704041
20396.908989	-1224.422500	1404.666992	836.878601
20396.908989	-1224.422500	1403.588867	710.555115
20396.908989	-1224.422500	1402.509766	955.087585
20396.908989	-1224.422500	1401.430664	608.187622
20396.908989	-1224.422500	1400.351563	504.161072
20396.908989	-1224.422500	1399.271484	511.414581
20396.908989	-1224.422500	1398.192383	536.208862
20396.908989	-1224.422500	1397.112305	344.576843
20396.908989	-1224.422500	1396.031250	659.385193
20396.908989	-1224.422500	1394.951172	492.501343
20396.908989	-1224.422500	1393.871094	421.238434
20396.908989	-1224.422500	1392.790039	361.772217
20396.908989	-1224.422500	1391.708984	401.011444
20396.908989	-1224.422500	1390.626953	364.584198
20396.908989	-1224.422500	1389.545898	426.247528
20396.908989	-1224.422500	1388.463867	364.548615
20396.908989	-1224.422500	1387.381836	60.519787
20396.908989	-1224.422500	1386.299805	380.183624
20396.908989	-1224.422500	1385.217773	530.638855
20396.908989	-1224.422500	1384.134766	370.946777
20396.908989	-1224.422500	1383.051758	264.861023
20396.908989	-1224.422500	1381.968750	75.452904
20396.908989	-1224.422500	1380.885742	296.082886
20396.908989	-1224.422500	1379.802734	356.646606
20396.908989	-1224.422500	1378.718750	389.622772
20396.908989	-1224.422500	1377.634766	173.547607
20396.908989	-1224.422500	1376.550781	482.341156
20396.908989	-1224.422500	1375.465820	283.914001
20396.908989	-1224.422500	1374.381836	619.078003
20396.908989	-1224.422500	1373.296875	594.665161
20396.908989	-1224.422500	1372.211914	270.809906
20396.908989	-1224.422500	1371.126953	613.300354
20396.908989	-1224.422500	1370.041016	228.838516
20396.908989	-1224.422500	1368.955078	285.624969
20396.908989	-1224.422500	1367.869141	392.890198
20396.908989	-1224.422500	1366.783203	737.751404
20396.908989	-1224.422500	1365.697266	688.492737
20396.908989	-1224.422500	1364.610352	730.982788
20396.908989	-1224.422500	1363.523438	335.811157
20396.908989	-1224.422500	1362.436523	457.081390
20396.908989	-1224.422500	1361.349609	689.367737
20396.908989	-1224.422500	1360.261719	924.176697
20396.908989	-1224.422500	1359.174805	897.614380
20396.908989	-1224.422500	1358.086914	892.643188
20396.908989	-1224.422500	1356.998047	620.486877
20396.908989	-1224.422500	1355.910156	951.748352
20396.908989	-1224.422500	1354.821289	985.881470
20396.908989	-1224.422500	1353.732422	1015.028870
20396.908989	-1224.422500	1352.643555	1018.214966
20396.908989	-1224.422500	1351.554688	1168.843018
20396.908989	-1224.422500	1350.464844	1473.270874
20396.908989	-1224.422500	1349.375000	1488.972656
20396.908989	-1224.422500	1348.285156	1604.453491
20396.908989	-1224.422500	1347.195313	1838.823364
20396.908989	-1224.422500	1346.105469	1765.937012
20396.908989	-1224.422500	1345.014648	1805.810425
20396.908989	-1224.422500	1343.923828	1537.865112
20396.908989	-1224.422500	1342.833008	1649.971069
20396.908989	-1224.422500	1341.741211	1478.000122
20396.908989	-1224.422500	1340.650391	1408.472900
20396.908989	-1224.422500	1339.558594	1310.150146
20396.908989	-1224.422500	1338.466797	1366.501587
20396.908989	-1224.422500	1337.374023	1467.192139
20396.908989	-1224.422500	1336.282227	1374.724609
20396.908989	-1224.422500	1335.189453	1349.283936
20396.908989	-1224.422500	1334.096680	1258.714355
20396.908989	-1224.422500	1333.003906	1102.725952
20396.908989	-1224.422500	1331.910156	804.461548
20396.908989	-1224.422500	1330.817383	819.386108
20396.908989	-1224.422500	1329.723633	954.880371
20396.908989	-1224.422500	1328.629883	769.645020
20396.908989	-1224.422500	1327.535156	938.430603
20396.908989	-1224.422500	1326.441406	960.915405
20396.908989	-1224.422500	1325.346680	1038.298950
20396.908989	-1224.422500	1324.251953	794.864868
20396.908989	-1224.422500	1323.156250	910.330505
20396.908989	-1224.422500	1322.061523	885.189270
20396.908989	-1224.422500	1320.965820	893.008362
20396.908989	-1224.422500	1319.870117	824.904968
20396.908989	-1224.422500	1318.774414	950.744141
20396.908989	-1224.422500	1317.678711	1270.762207
20396.908989	-1224.422500	1316.582031	1034.511963
20396.908989	-1224.422500	1315.485352	984.169006
20396.908989	-1224.422500	1314.388672	975.098511
20396.908989	-1224.422500	1313.291016	1101.402222
20396.908989	-1224.422500	1312.194336	991.555176
20396.908989	-1224.422500	1311.096680	761.936707
20396.908989	-1224.422500	1309.999023	812.972290
20396.908989	-1224.422500	1308.901367	978.923523
20396.908989	-1224.422500	1307.802734	929.089722
20396.908989	-1224.422500	1306.705078	1002.288086
20396.908989	-1224.422500	1305.606445	953.088989
20396.908989	-1224.422500	1304.506836	1104.839233
20396.908989	-1224.422500	1303.408203	1074.096924
20396.908989	-1224.422500	1302.308594	1053.056641
20396.908989	-1224.422500	1301.208984	1143.760742
20396.908989	-1224.422500	1300.109375	1167.744385
20396.908989	-1224.422500	1299.009766	1234.502441
20396.908989	-1224.422500	1297.909180	1234.596313
20396.908989	-1224.422500	1296.808594	1510.975342
20396.908989	-1224.422500	1295.708008	1127.076050
20396.908989	-1224.422500	1294.607422	964.973450
20396.908989	-1224.422500	1293.506836	1002.235901
20396.908989	-1224.422500	1292.405273	925.438538
20396.908989	-1224.422500	1291.303711	925.460266
20396.908989	-1224.422500	1290.202148	713.676025
20396.908989	-1224.422500	1289.099609	647.376892
20396.908989	-1224.422500	1287.998047	599.880066
20396.908989	-1224.422500	1286.895508	622.347717
20396.908989	-1224.422500	1285.792969	579.845276
20396.908989	-1224.422500	1284.689453	485.561188
20396.908989	-1224.422500	1283.586914	298.380066
20396.908989	-1224.422500	1282.483398	327.650726
20396.908989	-1224.422500	1281.379883	369.276337
20396.908989	-1224.422500	1280.276367	410.939514
20396.908989	-1224.422500	1279.171875	281.228302
20396.908989	-1224.422500	1278.067383	82.607376
20396.908989	-1224.422500	1276.962891	36.039612
20396.908989	-1224.422500	1275.858398	4.636334
20396.908989	-1224.422500	1274.753906	-74.920822
20396.908989	-1224.422500	1273.648438	-122.097435
20396.908989	-1224.422500	1272.542969	-21.498209
20396.908989	-1224.422500	1271.437500	77.420807
20396.908989	-1224.422500	1270.331055	-226.201447
20396.908989	-1224.422500	1269.225586	-96.836159
20396.908989	-1224.422500	1268.119141	-241.771851
20396.908989	-1224.422500	1267.012695	84.327179
20396.908989	-1224.422500	1265.906250	-35.888634
20396.908989	-1224.422500	1264.798828	-135.898483
20396.908989	-1224.422500	1263.691406	-7.999456
20396.908989	-1224.422500	1262.583984	-81.922966
20396.908989	-1224.422500	1261.476563	-18.772482
20396.908989	-1224.422500	1260.368164	58.306831
20396.908989	-1224.422500	1259.260742	239.248077
20396.908989	-1224.422500	1258.152344	-80.125870
20396.908989	-1224.422500	1257.043945	156.263885
20396.908989	-1224.422500	1255.934570	59.183327
20396.908989	-1224.422500	1254.825195	57.079510
20396.908989	-1224.422500	1253.716797	187.260880
20396.908989	-1224.422500	1252.606445	71.021233
20396.908989	-1224.422500	1251.497070	133.492752
20396.908989	-1224.422500	1250.387695	-177.656265
20396.908989	-1224.422500	1249.277344	113.794273
20396.908989	-1224.422500	1248.166992	-4.595232
20396.908989	-1224.422500	1247.055664	-112.267815
20396.908989	-1224.422500	1245.945313	-146.296982
20396.908989	-1224.422500	1244.833984	-165.840439
20396.908989	-1224.422500	1243.722656	-66.840607
20396.908989	-1224.422500	1242.611328	-31.159651
20396.908989	-1224.422500	1241.499023	92.929276
20396.908989	-1224.422500	1240.387695	3.139922
20396.908989	-1224.422500	1239.275391	61.039112
20396.908989	-1224.422500	1238.162109	-49.814442
20396.908989	-1224.422500	1237.049805	-44.044762
20396.908989	-1224.422500	1235.936523	55.008640
20396.908989	-1224.422500	1234.823242	7.204270
20396.908989	-1224.422500	1233.709961	-102.519196
20396.908989	-1224.422500	1232.596680	135.400940
20396.908989	-1224.422500	1231.482422	155.433624
20396.908989	-1224.422500	1230.369141	116.145523
20396.908989	-1224.422500	1229.253906	32.725170
20396.908989	-1224.422500	1228.139648	146.045029
20396.908989	-1224.422500	1227.025391	189.729309
20396.908989	-1224.422500	1225.910156	160.048630
20396.908989	-1224.422500	1224.794922	294.943756
20396.908989	-1224.422500	1223.679688	268.729431
20396.908989	-1224.422500	1222.563477	183.627365
20396.908989	-1224.422500	1221.447266	183.497375
20396.908989	-1224.422500	1220.331055	52.924694
20396.908989	-1224.422500	1219.214844	-27.137249
20396.908989	-1224.422500	1218.098633	122.246414
20396.908989	-1224.422500	1216.981445	127.410591
20396.908989	-1224.422500	1215.864258	86.563896
20396.908989	-1224.422500	1214.747070	134.482040
20396.908989	-1224.422500	1213.629883	20.735668
20396.908989	-1224.422500	1212.511719	191.244553
20396.908989	-1224.422500	1211.393555	206.429382
20396.908989	-1224.422500	1210.275391	109.583473
20396.908989	-1224.422500	1209.157227	193.136856
20396.908989	-1224.422500	1208.038086	42.187939
20396.908989	-1224.422500	1206.918945	32.158527
20396.908989	-1224.422500	1205.799805	-89.244942
20396.908989	-1224.422500	1204.680664	52.773815
20396.908989	-1224.422500	1203.560547	10.969331
20396.908989	-1224.422500	1202.441406	173.351288
20396.908989	-1224.422500	1201.321289	-73.935944
20396.908989	-1224.422500	1200.200195	-9.171325
20396.908989	-1224.422500	1199.080078	6.910904
20396.908989	-1224.422500	1197.958984	-17.662249
20396.908989	-1224.422500	1196.837891	42.162277
20396.908989	-1224.422500	1195.716797	-40.678551
20396.908989	-1224.422500	1194.594727	16.688711
20396.908989	-1224.422500	1193.473633	181.027328
20396.908989	-1224.422500	1192.351563	261.544617
20396.908989	-1224.422500	1191.229492	169.023361
20396.908989	-1224.422500	1190.106445	29.203083
20396.908989	-1224.422500	1188.984375	174.858139
20396.908989	-1224.422500	1187.861328	226.834244
20396.908989	-1224.422500	1186.738281	154.170212
20396.908989	-1224.422500	1185.614258	309.461884
20396.908989	-1224.422500	1184.491211	171.728119
20396.908989	-1224.422500	1183.367188	217.491089
20396.908989	-1224.422500	1182.243164	246.398224
20396.908989	-1224.422500	1181.119141	192.555527
20396.908989	-1224.422500	1179.994141	117.613365
20396.908989	-1224.422500	1178.869141	73.100159
20396.908989	-1224.422500	1177.744141	119.657135
20396.908989	-1224.422500	1176.619141	117.590530
20396.908989	-1224.422500	1175.493164	125.654053
20396.908989	-1224.422500	1174.368164	91.980728
20396.908989	-1224.422500	1173.242188	-66.575989
20396.908989	-1224.422500	1172.115234	32.960945
20396.908989	-1224.422500	1170.989258	-87.754639
20396.908989	-1224.422500	1169.862305	-25.318756
20396.908989	-1224.422500	1168.735352	-162.272797
20396.908989	-1224.422500	1167.608398	-28.770384
20396.908989	-1224.422500	1166.481445	-121.655602
20396.908989	-1224.422500	1165.353516	-116.646774
20396.908989	-1224.422500	1164.225586	45.228619
20396.908989	-1224.422500	1163.097656	-11.110779
20396.908989	-1224.422500	1161.968750	-102.029900
20396.908989	-1224.422500	1160.840820	-77.813423
20396.908989	-1224.422500	1159.711914	-119.707588
20396.908989	-1224.422500	1158.583008	-83.491539
20396.908989	-1224.422500	1157.453125	14.342664
20396.908989	-1224.422500	1156.324219	-55.959938
20396.908989	-1224.422500	1155.194336	-6.385202
20396.908989	-1224.422500	1154.064453	86.816269
20396.908989	-1224.422500	1152.933594	-7.558684
20396.908989	-1224.422500	1151.803711	-162.816345
20396.908989	-1224.422500	1150.672852	-64.216377
20396.908989	-1224.422500	1149.541992	266.908813
20396.908989	-1224.422500	1148.411133	38.496552
20396.908989	-1224.422500	1147.279297	39.884457
20396.908989	-1224.422500	1146.147461	-43.269451
20396.908989	-1224.422500	1145.015625	-246.261246
20396.908989	-1224.422500	1143.883789	-186.139893
20396.908989	-1224.422500	1142.750977	-166.376541
20396.908989	-1224.422500	1141.619141	-91.990318
20396.908989	-1224.422500	1140.486328	-218.941971
20396.908989	-1224.422500	1139.352539	83.373680
20396.908989	-1224.422500	1138.219727	-20.420536
20396.908989	-1224.422500	1137.085938	-229.121597
20396.908989	-1224.422500	1135.952148	-177.693008
20396.908989	-1224.422500	1134.818359	-24.533316
20396.908989	-1224.422500	1133.683594	-112.314209
20396.908989	-1224.422500	1132.549805	-57.411343
20396.908989	-1224.422500	1131.415039	112.404190
20396.908989	-1224.422500	1130.279297	177.052094
20396.908989	-1224.422500	1129.144531	305.557465
20396.908989	-1224.422500	1128.008789	358.554138
20396.908989	-1224.422500	1126.873047	313.917023
20396.908989	-1224.422500	1125.737305	163.278885
20396.908989	-1224.422500	1124.601563	219.055710
20396.908989	-1224.422500	1123.464844	135.049011
20396.908989	-1224.422500	1122.328125	89.969826
20396.908989	-1224.422500	1121.191406	265.670685
20396.908989	-1224.422500	1120.054688	-96.213631
20396.908989	-1224.422500	1118.916992	161.861359
20396.908989	-1224.422500	1117.779297	97.120605
20396.908989	-1224.422500	1116.641602	62.948910
20396.908989	-1224.422500	1115.503906	32.998634
20396.908989	-1224.422500	1114.365234	-85.689827
20396.908989	-1224.422500	1113.226563	176.746429
20396.908989	-1224.422500	1112.087891	18.456858
20396.908989	-1224.422500	1110.949219	66.318474
20396.908989	-1224.422500	1109.809570	-49.150013
20396.908989	-1224.422500	1108.669922	-19.600100
20396.908989	-1224.422500	1107.530273	64.836441
20396.908989	-1224.422500	1106.390625	-109.213348
20396.908989	-1224.422500	1105.250000	-54.275856
20396.908989	-1224.422500	1104.109375	-36.216232
20396.908989	-1224.422500	1102.968750	-44.342960
20396.908989	-1224.422500	1101.828125	-117.769218
20396.908989	-1224.422500	1100.686523	63.187393
20396.908989	-1224.422500	1099.544922	-12.185673
20396.908989	-1224.422500	1098.403320	-72.604118
20396.908989	-1224.422500	1097.261719	283.937073
20396.908989	-1224.422500	1096.120117	274.728058
20396.908989	-1224.422500	1094.977539	177.913940
20396.908989	-1224.422500	1093.834961	354.007996
20396.908989	-1224.422500	1092.691406	159.064423
20396.908989	-1224.422500	1091.548828	253.659851
20396.908989	-1224.422500	1090.405273	242.607498
20396.908989	-1224.422500	1089.261719	327.062500
20396.908989	-1224.422500	1088.118164	470.811188
20396.908989	-1224.422500	1086.973633	405.699432
20396.908989	-1224.422500	1085.829102	499.436310
20396.908989	-1224.422500	1084.684570	121.868690
20396.908989	-1224.422500	1083.540039	379.962555
20396.908989	-1224.422500	1082.395508	315.592163
20396.908989	-1224.422500	1081.250000	496.943024
20396.908989	-1224.422500	1080.104492	287.785980
20396.908989	-1224.422500	1078.958984	42.016739
20396.908989	-1224.422500	1077.812500	241.860748
20396.908989	-1224.422500	1076.666016	240.150528
20396.908989	-1224.422500	1075.519531	493.453705
20396.908989	-1224.422500	1074.373047	370.128876
20396.908989	-1224.422500	1073.226563	369.972229
20396.908989	-1224.422500	1072.079102	261.210846
20396.908989	-1224.422500	1070.931641	183.444214
20396.908989	-1224.422500	1069.784180	248.103195
20396.908989	-1224.422500	1068.635742	307.607208
20396.908989	-1224.422500	1067.487305	563.557739
20396.908989	-1224.422500	1066.338867	321.463898
20396.908989	-1224.422500	1065.190430	469.331787
20396.908989	-1224.422500	1064.041992	333.532745
20396.908989	-1224.422500	1062.892578	740.965454
20396.908989	-1224.422500	1061.743164	668.448547
20396.908989	-1224.422500	1060.593750	494.166779
20396.908989	-1224.422500	1059.443359	595.562683
20396.908989	-1224.422500	1058.292969	310.757721
20396.908989	-1224.422500	1057.142578	216.779556
20396.908989	-1224.422500	1055.992188	300.984894
20396.908989	-1224.422500	1054.841797	154.721725
20396.908989	-1224.422500	1053.690430	172.194962
20396.908989	-1224.422500	1052.539063	181.322235
20396.908989	-1224.422500	1051.387695	148.085327
20396.908989	-1224.422500	1050.235352	-18.698660
20396.908989	-1224.422500	1049.083984	26.458969
20396.908989	-1224.422500	1047.931641	167.706787
20396.908989	-1224.422500	1046.778320	64.737350
20396.908989	-1224.422500	1045.625977	50.153885
20396.908989	-1224.422500	1044.472656	195.286346
20396.908989	-1224.422500	1043.319336	208.158188
20396.908989	-1224.422500	1042.166016	73.259979
20396.908989	-1224.422500	1041.012695	258.537384
20396.908989	-1224.422500	1039.858398	181.228989
20396.908989	-1224.422500	1038.704102	222.284271
20396.908989	-1224.422500	1037.549805	62.295353
20396.908989	-1224.422500	1036.394531	105.431412
20396.908989	-1224.422500	1035.239258	79.358810
20396.908989	-1224.422500	1034.083984	20.493908
20396.908989	-1224.422500	1032.928711	2.758919
20396.908989	-1224.422500	1031.773438	78.424690
20396.908989	-1224.422500	1030.617188	77.437553
20396.908989	-1224.422500	1029.460938	362.523651
20396.908989	-1224.422500	1028.304688	-47.270767
20396.908989	-1224.422500	1027.147461	250.401871
20396.908989	-1224.422500	1025.991211	120.220474
20396.908989	-1224.422500	1024.833984	171.184479
20396.908989	-1224.422500	1023.675781	100.289238
20396.908989	-1224.422500	1022.518555	327.659210
20396.908989	-1224.422500	1021.360352	14.519172
20396.908989	-1224.422500	1020.202148	142.252869
20396.908989	-1224.422500	1019.043945	385.752228
20396.908989	-1224.422500	1017.884766	148.886993
20396.908989	-1224.422500	1016.726563	22.668699
20396.908989	-1224.422500	1015.567383	60.067890
20396.908989	-1224.422500	1014.407227	53.802578
20396.908989	-1224.422500	1013.248047	134.064209
20396.908989	-1224.422500	1012.087891	-17.550924
20396.908989	-1224.422500	1010.927734	45.503288
20396.908989	-1224.422500	1009.767578	-97.605804
20396.908989	-1224.422500	1008.606445	-153.601532
20396.908989	-1224.422500	1007.446289	43.093662
20396.908989	-1224.422500	1006.285156	245.802261
20396.908989	-1224.422500	1005.123047	132.306747
20396.908989	-1224.422500	1003.961914	-77.523132
20396.908989	-1224.422500	1002.799805	21.493305
20396.908989	-1224.422500	1001.637695	285.731537
20396.908989	-1224.422500	1000.475586	-15.608825
20396.908989	-1224.422500	999.312500	311.280792
20396.908989	-1224.422500	998.149414	-85.098007
20396.908989	-1224.422500	996.986328	-2.129664
20396.908989	-1224.422500	995.823242	238.532852
20396.908989	-1224.422500	994.659180	61.934349
20396.908989	-1224.422500	993.496094	-10.309711
20396.908989	-1224.422500	992.332031	54.637981
20396.908989	-1224.422500	991.166992	-2.948899
20396.908989	-1224.422500	990.002930	-25.650024
20396.908989	-1224.422500	988.837891	-0.256209
20396.908989	-1224.422500	987.672852	-29.321270
20396.908989	-1224.422500	986.506836	-19.008623
20396.908989	-1224.422500	985.341797	-37.327400
20396.908989	-1224.422500	984.175781	-199.285446
20396.908989	-1224.422500	983.009766	-163.563446
20396.908989	-1224.422500	981.843750	-181.968658
20396.908989	-1224.422500	980.676758	-56.180313
20396.908989	-1224.422500	979.509766	-164.755920
20396.908989	-1224.422500	978.342773	-17.937372
20396.908989	-1224.422500	977.175781	-13.321022
20396.908989	-1224.422500	976.007813	-6.781503
20396.908989	-1224.422500	974.839844	5.250709
20396.908989	-1224.422500	973.671875	76.231972
20396.908989	-1224.422500	972.503906	-141.145035
20396.908989	-1224.422500	971.334961	36.100422
20396.908989	-1224.422500	970.166016	130.238144
20396.908989	-1224.422500	968.997070	55.499886
20396.908989	-1224.422500	967.828125	91.872246
20396.908989	-1224.422500	966.658203	74.414948
20396.908989	-1224.422500	965.488281	94.633247
20396.908989	-1224.422500	964.318359	-82.284096
20396.908989	-1224.422500	963.148438	-66.597557
20396.908989	-1224.422500	961.977539	-151.561005
20396.908989	-1224.422500	960.806641	119.586746
20396.908989	-1224.422500	959.635742	10.446578
20396.908989	-1224.422500	958.463867	109.358261
20396.908989	-1224.422500	957.292969	205.999420
20396.908989	-1224.422500	956.121094	148.355026
20396.908989	-1224.422500	954.948242	186.170334
20396.908989	-1224.422500	953.776367	3.489355
20396.908989	-1224.422500	952.603516	187.719711
20396.908989	-1224.422500	951.430664	115.738022
20396.908989	-1224.422500	950.257813	303.293518
20396.908989	-1224.422500	949.084961	236.203857
20396.908989	-1224.422500	947.911133	72.498993
20396.908989	-1224.422500	946.737305	114.455009
20396.908989	-1224.422500	945.563477	344.341675
20396.908989	-1224.422500	944.388672	246.410538
20396.908989	-1224.422500	943.213867	116.650665
20396.908989	-1224.422500	942.039063	106.810303
20396.908989	-1224.422500	940.864258	265.052734
20396.908989	-1224.422500	939.688477	155.281784
20396.908989	-1224.422500	938.513672	-5.501038
20396.908989	-1224.422500	937.337891	218.377899
20396.908989	-1224.422500	936.161133	28.926531
20396.908989	-1224.422500	934.985352	-46.706051
20396.908989	-1224.422500	933.808594	125.979805
20396.908989	-1224.422500	932.631836	286.855133
20396.908989	-1224.422500	931.454102	245.455383
20396.908989	-1224.422500	930.277344	357.938629
20396.908989	-1224.422500	929.099609	137.018173
20396.908989	-1224.422500	927.921875	343.381531
20396.908989	-1224.422500	926.743164	421.540619
20396.908989	-1224.422500	925.565430	479.720032
20396.908989	-1224.422500	924.386719	204.731567
20396.908989	-1224.422500	923.208008	57.926830
20396.908989	-1224.422500	922.028320	235.589157
20396.908989	-1224.422500	920.849609	134.309448
20396.908989	-1224.422500	919.669922	137.812439
20396.908989	-1224.422500	919.474609	229.917709
20396.908989	-1224.422500	918.309570	-61.968330
20396.908989	-1224.422500	917.143555	13.070638
20396.908989	-1224.422500	915.977539	122.174393
20396.908989	-1224.422500	914.810547	120.358528
20396.908989	-1224.422500	913.644531	-57.676456
20396.908989	-1224.422500	912.477539	59.836849
20396.908989	-1224.422500	911.310547	46.608589
20396.908989	-1224.422500	910.143555	-37.640457
20396.908989	-1224.422500	908.975586	145.046600
20396.908989	-1224.422500	907.807617	-66.981377
20396.908989	-1224.422500	906.639648	-185.277069
20396.908989	-1224.422500	905.471680	-161.653900
20396.908989	-1224.422500	904.303711	-138.062027
20396.908989	-1224.422500	903.134766	-18.051514
20396.908989	-1224.422500	901.965820	-65.440414
20396.908989	-1224.422500	900.796875	-334.000183
20396.908989	-1224.422500	899.626953	-97.851265
20396.908989	-1224.422500	898.457031	126.843575
20396.908989	-1224.422500	897.287109	-107.647079
20396.908989	-1224.422500	896.117188	167.913101
20396.908989	-1224.422500	894.947266	131.751663
20396.908989	-1224.422500	893.776367	194.707031
20396.908989	-1224.422500	892.605469	22.603823
20396.908989	-1224.422500	891.434570	34.558231
20396.908989	-1224.422500	890.262695	171.022873
20396.908989	-1224.422500	889.091797	-18.012045
20396.908989	-1224.422500	887.919922	276.798157
20396.908989	-1224.422500	886.748047	82.120903
20396.908989	-1224.422500	885.575195	147.681198
20396.908989	-1224.422500	884.403320	-18.657576
20396.908989	-1224.422500	883.230469	-69.047997
20396.908989	-1224.422500	882.057617	174.493851
20396.908989	-1224.422500	880.883789	-42.671410
20396.908989	-1224.422500	879.710938	-98.740814
20396.908989	-1224.422500	878.537109	-273.436432
20396.908989	-1224.422500	877.362305	-162.860931
20396.908989	-1224.422500	876.188477	-43.885098
20396.908989	-1224.422500	875.013672	-85.877602
20396.908989	-1224.422500	873.839844	106.367996
20396.908989	-1224.422500	872.664063	-285.564728
20396.908989	-1224.422500	871.489258	5.338117
20396.908989	-1224.422500	870.313477	-76.204437
20396.908989	-1224.422500	869.138672	124.253433
20396.908989	-1224.422500	867.962891	-115.208961
20396.908989	-1224.422500	866.786133	-148.823242
20396.908989	-1224.422500	865.610352	-89.450127
20396.908989	-1224.422500	864.433594	34.683903
20396.908989	-1224.422500	863.256836	43.244617
20396.908989	-1224.422500	862.079102	99.659645
20396.908989	-1224.422500	860.902344	-15.742138
20396.908989	-1224.422500	859.724609	-97.334854
20396.908989	-1224.422500	858.546875	-32.553257
20396.908989	-1224.422500	857.368164	-97.270592
20396.908989	-1224.422500	856.190430	32.147808
20396.908989	-1224.422500	855.011719	102.418472
20396.908989	-1224.422500	853.833008	-119.856178
20396.908989	-1224.422500	852.654297	-69.315971
20396.908989	-1224.422500	851.474609	-91.912407
20396.908989	-1224.422500	850.294922	-137.010788
20396.908989	-1224.422500	849.115234	14.590842
20396.908989	-1224.422500	847.935547	-92.371368
20396.908989	-1224.422500	846.754883	-75.720123
20396.908989	-1224.422500	845.575195	-42.253998
20396.908989	-1224.422500	844.393555	-219.409500
20396.908989	-1224.422500	843.212891	-110.183159
20396.908989	-1224.422500	842.032227	97.202904
20396.908989	-1224.422500	840.850586	-105.206963
20396.908989	-1224.422500	839.668945	-237.423416
20396.908989	-1224.422500	838.486328	-63.876740
20396.908989	-1224.422500	837.304688	36.656231
20396.908989	-1224.422500	836.122070	53.009441
20396.908989	-1224.422500	834.939453	220.698669
20396.908989	-1224.422500	833.756836	-37.705029
20396.908989	-1224.422500	832.573242	54.222404
20396.908989	-1224.422500	831.389648	-100.443619
20396.908989	-1224.422500	830.206055	44.617947
20396.908989	-1224.422500	829.022461	24.372671
20396.908989	-1224.422500	827.838867	60.099602
20396.908989	-1224.422500	826.654297	199.350586
20396.908989	-1224.422500	825.469727	-100.859390
20396.908989	-1224.422500	824.284180	169.813446
20396.908989	-1224.422500	823.099609	129.830124
20396.908989	-1224.422500	821.914063	-97.555145
20396.908989	-1224.422500	820.728516	105.744965
20396.908989	-1224.422500	819.542969	253.016312
20396.908989	-1224.422500	818.356445	117.889671
20396.908989	-1224.422500	817.169922	415.937744
20396.908989	-1224.422500	815.983398	12.549961
20396.908989	-1224.422500	814.796875	151.208420
20396.908989	-1224.422500	813.609375	393.111145
20396.908989	-1224.422500	812.422852	126.695213
20396.908989	-1224.422500	811.235352	265.144012
20396.908989	-1224.422500	810.046875	26.708176
20396.908989	-1224.422500	808.859375	36.689159
20396.908989	-1224.422500	807.670898	119.169617
20396.908989	-1224.422500	806.482422	95.584824
20396.908989	-1224.422500	805.293945	465.189362
20396.908989	-1224.422500	804.104492	385.709351
20396.908989	-1224.422500	802.915039	671.401428
20396.908989	-1224.422500	801.725586	505.440033
20396.908989	-1224.422500	800.536133	698.962708
20396.908989	-1224.422500	799.345703	488.416931
20396.908989	-1224.422500	798.155273	759.776428
20396.908989	-1224.422500	796.964844	911.242920
20396.908989	-1224.422500	795.774414	636.633545
20396.908989	-1224.422500	794.583008	537.465149
20396.908989	-1224.422500	793.392578	454.996002
20396.908989	-1224.422500	792.200195	250.096603
20396.908989	-1224.422500	791.008789	295.606812
20396.908989	-1224.422500	789.816406	213.121033
20396.908989	-1224.422500	788.625000	316.933960
20396.908989	-1224.422500	787.432617	476.265869
20396.908989	-1224.422500	786.239258	76.805809
20396.908989	-1224.422500	785.046875	149.890640
20396.908989	-1224.422500	783.853516	259.023621
20396.908989	-1224.422500	782.660156	73.622101
20396.908989	-1224.422500	781.465820	196.526794
20396.908989	-1224.422500	780.272461	233.262329
20396.908989	-1224.422500	779.078125	453.159851
20396.908989	-1224.422500	777.883789	398.148529
20396.908989	-1224.422500	776.688477	554.009399
20396.908989	-1224.422500	775.494141	781.895264
20396.908989	-1224.422500	774.298828	937.523804
20396.908989	-1224.422500	773.103516	857.322266
20396.908989	-1224.422500	771.907227	818.697510
20396.908989	-1224.422500	770.711914	641.441467
20396.908989	-1224.422500	769.515625	655.443176
20396.908989	-1224.422500	768.318359	386.763855
20396.908989	-1224.422500	767.122070	87.674995
20396.908989	-1224.422500	765.924805	134.880966
20396.908989	-1224.422500	764.727539	287.248871
20396.908989	-1224.422500	763.530273	123.886841
20396.908989	-1224.422500	762.333008	323.153961
20396.908989	-1224.422500	761.134766	345.174500
20396.908989	-1224.422500	759.936523	-3.620762
20396.908989	-1224.422500	758.738281	181.571594
20396.908989	-1224.422500	757.540039	214.524734
20396.908989	-1224.422500	756.340820	211.467316
20396.908989	-1224.422500	755.141602	219.420090
20396.908989	-1224.422500	753.942383	216.263641
20396.908989	-1224.422500	752.742188	182.660095
20396.908989	-1224.422500	751.541992	347.943817
20396.908989	-1224.422500	750.341797	148.490524
20396.908989	-1224.422500	749.141602	106.484550
20396.908989	-1224.422500	747.941406	34.074081
20396.908989	-1224.422500	746.740234	107.947433
20396.908989	-1224.422500	745.539063	-141.175079
20396.908989	-1224.422500	744.337891	106.440689
20396.908989	-1224.422500	743.135742	-40.607876
20396.908989	-1224.422500	741.933594	-129.724365
20396.908989	-1224.422500	740.731445	-133.370895
20396.908989	-1224.422500	739.529297	108.310715
20396.908989	-1224.422500	738.326172	173.420624
20396.908989	-1224.422500	737.124023	6.955112
20396.908989	-1224.422500	735.919922	-57.550652
20396.908989	-1224.422500	734.716797	-75.251366
20396.908989	-1224.422500	733.513672	127.335922
20396.908989	-1224.422500	732.309570	252.681305
20396.908989	-1224.422500	731.105469	377.919708
20396.908989	-1224.422500	729.900391	282.853210
20396.908989	-1224.422500	728.696289	385.907410
20396.908989	-1224.422500	727.491211	213.730469
20396.908989	-1224.422500	726.286133	253.376480
20396.908989	-1224.422500	725.080078	243.445206
20396.908989	-1224.422500	723.874023	423.183197
20396.908989	-1224.422500	722.668945	17.253166
20396.908989	-1224.422500	721.461914	287.547211
20396.908989	-1224.422500	720.255859	-13.880686
20396.908989	-1224.422500	719.048828	25.421745
20396.908989	-1224.422500	717.841797	-23.243994
20396.908989	-1224.422500	716.634766	43.391521
20396.908989	-1224.422500	715.427734	33.065502
20396.908989	-1224.422500	714.219727	-317.691986
20396.908989	-1224.422500	713.011719	182.405136
20396.908989	-1224.422500	711.803711	-53.111954
20396.908989	-1224.422500	710.594727	-211.778732
20396.908989	-1224.422500	709.385742	-249.758209
20396.908989	-1224.422500	708.176758	-128.737915
20396.908989	-1224.422500	706.967773	41.520386
20396.908989	-1224.422500	705.758789	77.342812
20396.908989	-1224.422500	704.548828	-223.977188
20396.908989	-1224.422500	703.338867	-12.884575
20396.908989	-1224.422500	702.127930	-48.472698
20396.908989	-1224.422500	700.917969	-7.420170
20396.908989	-1224.422500	699.707031	-78.705704
20396.908989	-1224.422500	698.496094	36.129276
20396.908989	-1224.422500	697.285156	-180.310715
20396.908989	-1224.422500	696.073242	-235.275482
20396.908989	-1224.422500	694.861328	-22.169552
20396.908989	-1224.422500	693.649414	-71.791718
20396.908989	-1224.422500	692.436523	100.051476
20396.908989	-1224.422500	691.224609	-294.183990
20396.908989	-1224.422500	690.011719	128.996109
20396.908989	-1224.422500	688.798828	360.636749
20396.908989	-1224.422500	687.584961	283.364838
20396.908989	-1224.422500	686.372070	135.043945
20396.908989	-1224.422500	685.158203	134.209030
20396.908989	-1224.422500	683.943359	2.242888
20396.908989	-1224.422500	682.729492	55.918568
20396.908989	-1224.422500	681.514648	215.960236
20396.908989	-1224.422500	680.299805	89.343880
20396.908989	-1224.422500	679.084961	230.096985
20396.908989	-1224.422500	677.869141	422.556122
20396.908989	-1224.422500	676.653320	273.981659
20396.908989	-1224.422500	675.437500	490.774109
20396.908989	-1224.422500	674.221680	333.954163
20396.908989	-1224.422500	673.004883	392.449097
20396.908989	-1224.422500	671.789063	126.607079
20396.908989	-1224.422500	670.571289	138.690842
20396.908989	-1224.422500	669.354492	194.295471
20396.908989	-1224.422500	668.136719	121.827881
20396.908989	-1224.422500	666.919922	16.667849
20396.908989	-1224.422500	665.701172	99.305176
20396.908989	-1224.422500	664.483398	241.727127
20396.908989	-1224.422500	663.264648	111.944763
20396.908989	-1224.422500	662.045898	286.831360
20396.908989	-1224.422500	660.827148	399.035645
20396.908989	-1224.422500	659.608398	364.305908
20396.908989	-1224.422500	658.388672	359.434296
20396.908989	-1224.422500	657.168945	153.381180
20396.908989	-1224.422500	655.949219	485.404663
20396.908989	-1224.422500	654.728516	542.830933
20396.908989	-1224.422500	653.507813	521.407654
20396.908989	-1224.422500	652.287109	516.233826
20396.908989	-1224.422500	651.066406	318.237427
20396.908989	-1224.422500	649.844727	435.151855
20396.908989	-1224.422500	648.623047	280.568634
20396.908989	-1224.422500	647.401367	139.565308
20396.908989	-1224.422500	646.179688	397.353210
20396.908989	-1224.422500	644.957031	115.240692
20396.908989	-1224.422500	643.734375	201.982620
20396.908989	-1224.422500	642.511719	39.217098
20396.908989	-1224.422500	641.289063	307.441620
20396.908989	-1224.422500	640.065430	220.495682
20396.908989	-1224.422500	638.841797	214.817917
20396.908989	-1224.422500	637.618164	271.395111
20396.908989	-1224.422500	636.393555	5.617453
20396.908989	-1224.422500	635.168945	10.667853
20396.908989	-1224.422500	633.944336	-60.129971
20396.908989	-1224.422500	632.719727	-9.152492
20396.908989	-1224.422500	631.494141	-36.720577
20396.908989	-1224.422500	630.269531	-10.211578
20396.908989	-1224.422500	629.042969	48.688198
20396.908989	-1224.422500	627.817383	-143.969681
20396.908989	-1224.422500	626.590820	9.468334
20396.908989	-1224.422500	625.365234	-118.316216
20396.908989	-1224.422500	624.137695	-19.091074
20396.908989	-1224.422500	622.911133	-65.851105
20396.908989	-1224.422500	621.683594	-72.119774
20396.908989	-1224.422500	620.456055	16.098862
20396.908989	-1224.422500	619.228516	79.936203
20396.908989	-1224.422500	618.000977	127.507057
20396.908989	-1224.422500	616.772461	112.933632
20396.908989	-1224.422500	615.543945	154.992249
20396.908989	-1224.422500	614.314453	380.446686
20396.908989	-1224.422500	613.085938	414.259369
20396.908989	-1224.422500	611.856445	375.201416
20396.908989	-1224.422500	610.626953	241.755310
20396.908989	-1224.422500	609.397461	67.893326
20396.908989	-1224.422500	608.166992	-33.171673
20396.908989	-1224.422500	606.936523	-66.868195
20396.908989	-1224.422500	605.706055	-17.075521
20396.908989	-1224.422500	604.474609	48.813663
20396.908989	-1224.422500	603.244141	-73.846092
20396.908989	-1224.422500	602.012695	56.570354
20396.908989	-1224.422500	600.780273	240.723694
20396.908989	-1224.422500	599.548828	42.645401
20396.908989	-1224.422500	598.316406	35.635265
20396.908989	-1224.422500	597.083984	111.982788
20396.908989	-1224.422500	595.851563	-69.908096
20396.908989	-1224.422500	594.618164	280.612732
20396.908989	-1224.422500	593.384766	114.825081
20396.908989	-1224.422500	592.151367	32.394588
20396.908989	-1224.422500	590.917969	331.527954
20396.908989	-1224.422500	589.683594	47.538280
20396.908989	-1224.422500	588.449219	193.383194
20396.908989	-1224.422500	587.214844	314.971497
20396.908989	-1224.422500	585.979492	302.237396
20396.908989	-1224.422500	584.745117	249.226456
20396.908989	-1224.422500	583.509766	298.183350
20396.908989	-1224.422500	582.273438	247.816620
20396.908989	-1224.422500	581.038086	87.472778
20396.908989	-1224.422500	579.801758	-21.876112
20396.908989	-1224.422500	578.565430	-13.225450
20396.908989	-1224.422500	577.329102	156.243729
20396.908989	-1224.422500	576.091797	22.754471
20396.908989	-1224.422500	574.854492	76.871979
20396.908989	-1224.422500	573.617188	-80.697113
20396.908989	-1224.422500	572.378906	-2.521798
20396.908989	-1224.422500	571.141602	-66.321793
20396.908989	-1224.422500	569.903320	51.938179
20396.908989	-1224.422500	568.664063	-35.986496
20396.908989	-1224.422500	567.425781	-89.095764
20396.908989	-1224.422500	566.186523	-155.582962
20396.908989	-1224.422500	564.947266	88.242134
20396.908989	-1224.422500	563.708008	142.061676
20396.908989	-1224.422500	562.467773	142.357300
20396.908989	-1224.422500	561.227539	273.629761
20396.908989	-1224.422500	559.987305	364.739929
20396.908989	-1224.422500	558.747070	212.629654
20396.908989	-1224.422500	557.505859	252.918182
20396.908989	-1224.422500	556.264648	52.784000
20396.908989	-1224.422500	555.023438	279.993164
20396.908989	-1224.422500	553.781250	309.515442
20396.908989	-1224.422500	552.539063	261.602570
20396.908989	-1224.422500	551.296875	16.210957
20396.908989	-1224.422500	550.054688	85.755989
20396.908989	-1224.422500	548.811523	96.565773
20396.908989	-1224.422500	547.569336	96.698975
20396.908989	-1224.422500	546.325195	-1.851094
20396.908989	-1224.422500	545.082031	-60.375004
20396.908989	-1224.422500	543.837891	-68.250229
20396.908989	-1224.422500	542.593750	-81.460510
20396.908989	-1224.422500	541.349609	-102.668724
20396.908989	-1224.422500	540.105469	97.200523
20396.908989	-1224.422500	538.860352	-25.257307
20396.908989	-1224.422500	537.615234	-275.470367
20396.908989	-1224.422500	536.369141	-158.251495
20396.908989	-1224.422500	535.124023	-73.022575
20396.908989	-1224.422500	533.877930	-91.614471
20396.908989	-1224.422500	532.631836	60.043594
20396.908989	-1224.422500	531.384766	-150.084946
20396.908989	-1224.422500	530.138672	-88.904518
20396.908989	-1224.422500	528.891602	-1.181670
20396.908989	-1224.422500	527.643555	144.960464
20396.908989	-1224.422500	526.396484	38.591991
20396.908989	-1224.422500	525.148438	168.704056
20396.908989	-1224.422500	523.900391	-62.490185
20396.908989	-1224.422500	522.652344	128.645767
20396.908989	-1224.422500	521.403320	14.354368
20396.908989	-1224.422500	520.154297	19.551790
20396.908989	-1224.422500	518.905273	-33.649006
20396.908989	-1224.422500	517.656250	-102.759132
20396.908989	-1224.422500	516.406250	-177.162292
20396.908989	-1224.422500	515.156250	48.151302
20396.908989	-1224.422500	513.906250	-129.691879
20396.908989	-1224.422500	512.655273	15.950669
20396.908989	-1224.422500	511.404297	-39.919174
20396.908989	-1224.422500	510.153320	-119.630157
20396.908989	-1224.422500	508.902344	-204.619476
20396.908989	-1224.422500	507.650391	-69.746796
20396.908989	-1224.422500	506.398438	-342.772095
20396.908989	-1224.422500	505.146484	75.335014
20396.908989	-1224.422500	503.893555	122.648315
20396.908989	-1224.422500	502.641602	-134.418869
20396.908989	-1224.422500	501.388672	-79.183167
20396.908989	-1224.422500	500.134766	177.048706
20396.908989	-1224.422500	498.881836	17.922417
20396.908989	-1224.422500	497.627930	123.256836
20396.908989	-1224.422500	496.374023	239.095337
20396.908989	-1224.422500	495.119141	249.127396
20396.908989	-1224.422500	493.865234	95.299309
20396.908989	-1224.422500	492.610352	197.770447
20396.908989	-1224.422500	491.355469	144.325180
20396.908989	-1224.422500	490.099609	-109.836609
20396.908989	-1224.422500	488.843750	45.315479
20396.908989	-1224.422500	487.587891	44.624527
20396.908989	-1224.422500	486.332031	-45.833061
20396.908989	-1224.422500	485.075195	45.762337
20396.908989	-1224.422500	483.818359	-18.361805
20396.908989	-1224.422500	482.561523	73.105080
20396.908989	-1224.422500	481.304688	-49.095844
20396.908989	-1224.422500	480.046875	-10.484241
20396.908989	-1224.422500	478.789063	246.823410
20396.908989	-1224.422500	477.531250	100.794617
20396.908989	-1224.422500	476.272461	-92.653152
20396.908989	-1224.422500	475.013672	-62.184349
20396.908989	-1224.422500	473.754883	47.215134
20396.908989	-1224.422500	472.496094	114.380630
20396.908989	-1224.422500	471.236328	5.083601
20396.908989	-1224.422500	469.976563	-151.604279
20396.908989	-1224.422500	468.716797	2.182338
20396.908989	-1224.422500	467.456055	232.109009
20396.908989	-1224.422500	466.196289	56.846420
20396.908989	-1224.422500	464.935547	44.598515
20396.908989	-1224.422500	463.673828	445.000580
20396.908989	-1224.422500	462.413086	387.825897
20396.908989	-1224.422500	461.151367	28.390026
20396.908989	-1224.422500	459.889648	249.620789
20396.908989	-1224.422500	458.626953	278.911102
20396.908989	-1224.422500	457.364258	326.470917
20396.908989	-1224.422500	456.101563	549.812012
20396.908989	-1224.422500	454.838867	549.832825
20396.908989	-1224.422500	453.575195	339.786896
20396.908989	-1224.422500	452.312500	184.822769
20396.908989	-1224.422500	451.047852	176.687149
20396.908989	-1224.422500	449.784180	483.154968
20396.908989	-1224.422500	448.519531	535.010864
20396.908989	-1224.422500	447.254883	379.611847
20396.908989	-1224.422500	445.990234	355.187653
20396.908989	-1224.422500	444.725586	63.352524
20396.908989	-1224.422500	443.459961	264.007629
20396.908989	-1224.422500	442.194336	490.613556
20396.908989	-1224.422500	440.927734	360.813141
20396.908989	-1224.422500	439.662109	429.888611
20396.908989	-1224.422500	438.395508	315.526123
20396.908989	-1224.422500	437.127930	588.337769
20396.908989	-1224.422500	435.861328	476.247681
20396.908989	-1224.422500	434.593750	693.601990
20396.908989	-1224.422500	433.326172	458.225342
20396.908989	-1224.422500	432.058594	465.916199
20396.908989	-1224.422500	430.790039	400.189301
20396.908989	-1224.422500	429.521484	266.324341
20396.908989	-1224.422500	428.252930	600.021667
20396.908989	-1224.422500	426.984375	288.074341
20396.908989	-1224.422500	425.714844	545.403931
20396.908989	-1224.422500	424.445313	269.671997
20396.908989	-1224.422500	423.174805	361.911804
20396.908989	-1224.422500	421.905273	506.067902
20396.908989	-1224.422500	420.634766	386.313110
20396.908989	-1224.422500	419.364258	391.570801
20396.908989	-1224.422500	418.092773	373.054321
20396.908989	-1224.422500	416.822266	338.620361
20396.908989	-1224.422500	415.550781	567.232361
20396.908989	-1224.422500	414.278320	532.138916
20396.908989	-1224.422500	413.006836	457.663361
20396.908989	-1224.422500	411.734375	690.347290
20396.908989	-1224.422500	410.461914	297.375031
20396.908989	-1224.422500	409.188477	206.338959
20396.908989	-1224.422500	407.916016	239.991287
20396.908989	-1224.422500	406.642578	255.027084
20396.908989	-1224.422500	405.368164	381.588074
20396.908989	-1224.422500	404.094727	289.135620
20396.908989	-1224.422500	402.820313	336.803864
20396.908989	-1224.422500	401.545898	417.859772
20396.908989	-1224.422500	400.270508	365.818939
20396.908989	-1224.422500	398.996094	386.189240
20396.908989	-1224.422500	397.720703	302.118164
20396.908989	-1224.422500	396.444336	259.197021
20396.908989	-1224.422500	395.168945	353.559082
20396.908989	-1224.422500	393.892578	317.501465
20396.908989	-1224.422500	392.616211	410.830933
20396.908989	-1224.422500	391.339844	54.407490
20396.908989	-1224.422500	390.062500	325.851593
20396.908989	-1224.422500	388.785156	295.575836
20396.908989	-1224.422500	387.507813	145.409271
20396.908989	-1224.422500	386.229492	453.937225
20396.908989	-1224.422500	384.951172	183.351105
20396.908989	-1224.422500	383.672852	223.489014
20396.908989	-1224.422500	382.394531	-1.434198
20396.908989	-1224.422500	381.115234	-151.718765
20396.908989	-1224.422500	379.835938	91.352814
20396.908989	-1224.422500	378.556641	147.131363
20396.908989	-1224.422500	377.277344	272.173523
20396.908989	-1224.422500	375.997070	-105.958656
20396.908989	-1224.422500	374.716797	201.547913
20396.908989	-1224.422500	373.435547	270.034943
20396.908989	-1224.422500	372.155273	-125.479065
20396.908989	-1224.422500	370.874023	270.223206
20396.908989	-1224.422500	369.591797	-10.236515
20396.908989	-1224.422500	368.310547	132.864868
20396.908989	-1224.422500	367.028320	39.775677
20396.908989	-1224.422500	365.746094	85.532494
20396.908989	-1224.422500	364.463867	34.813297
20396.908989	-1224.422500	363.180664	215.827942
20396.908989	-1224.422500	361.897461	-84.652672
20396.908989	-1224.422500	360.614258	174.651093
20396.908989	-1224.422500	359.330078	30.041945
20396.908989	-1224.422500	358.045898	-136.075394
20396.908989	-1224.422500	356.761719	117.712585
20396.908989	-1224.422500	355.477539	114.931396
20396.908989	-1224.422500	354.192383	224.674622
20396.908989	-1224.422500	352.907227	47.026222
20396.908989	-1224.422500	351.622070	152.142639
20396.908989	-1224.422500	350.336914	248.439728
20396.908989	-1224.422500	349.050781	101.262604
20396.908989	-1224.422500	347.764648	74.206711
20396.908989	-1224.422500	346.477539	71.786705
20396.908989	-1224.422500	345.191406	-101.759735
20396.908989	-1224.422500	343.904297	174.338486
20396.908989	-1224.422500	342.616211	70.542488
20396.908989	-1224.422500	341.329102	143.284500
20396.908989	-1224.422500	340.041016	29.393818
20396.908989	-1224.422500	338.752930	89.303337
20396.908989	-1224.422500	337.463867	83.545403
20396.908989	-1224.422500	336.175781	35.376587
20396.908989	-1224.422500	334.886719	155.599701
20396.908989	-1224.422500	333.596680	145.806839
20396.908989	-1224.422500	332.307617	-88.965240
20396.908989	-1224.422500	331.017578	-96.343674
20396.908989	-1224.422500	329.727539	-135.986099
20396.908989	-1224.422500	328.436523	90.056808
20396.908989	-1224.422500	327.146484	-16.768869
20396.908989	-1224.422500	325.855469	5.845945
20396.908989	-1224.422500	324.563477	-91.247978
20396.908989	-1224.422500	323.272461	-105.114616
20396.908989	-1224.422500	321.980469	-241.250778
20396.908989	-1224.422500	320.688477	-319.951691
20396.908989	-1224.422500	319.395508	-243.871765
20396.908989	-1224.422500	318.103516	-313.076691
20396.908989	-1224.422500	316.810547	-186.613663
20396.908989	-1224.422500	315.516602	-0.507250
20396.908989	-1224.422500	314.223633	258.111023
20396.908989	-1224.422500	312.929688	-151.473343
20396.908989	-1224.422500	311.635742	-91.376854
20396.908989	-1224.422500	310.340820	-171.570801
20396.908989	-1224.422500	309.045898	130.434616
20396.908989	-1224.422500	307.750977	404.747040
20396.908989	-1224.422500	306.456055	262.303772
20396.908989	-1224.422500	305.160156	276.469757
20396.908989	-1224.422500	303.865234	222.120850
20396.908989	-1224.422500	302.568359	485.265289
20396.908989	-1224.422500	301.272461	569.780151
20396.908989	-1224.422500	299.975586	759.380249
20396.908989	-1224.422500	298.678711	780.530457
