#X		#Y		#Wave		#Intensity
22964.800000	3073.063833	1999.980469	-53.995583
22964.800000	3073.063833	1999.016602	42.501385
22964.800000	3073.063833	1998.052734	-62.606560
22964.800000	3073.063833	1997.087891	-11.802571
22964.800000	3073.063833	1996.123047	43.691681
22964.800000	3073.063833	1995.158203	141.038956
22964.800000	3073.063833	1994.193359	12.734160
22964.800000	3073.063833	1993.228516	-105.842239
22964.800000	3073.063833	1992.262695	-26.522955
22964.800000	3073.063833	1991.297852	35.225624
22964.800000	3073.063833	1990.332031	86.849930
22964.800000	3073.063833	1989.366211	108.564034
22964.800000	3073.063833	1988.399414	-1.041333
22964.800000	3073.063833	1987.433594	-19.272537
22964.800000	3073.063833	1986.466797	-7.997267
22964.800000	3073.063833	1985.500977	94.585503
22964.800000	3073.063833	1984.534180	26.385674
22964.800000	3073.063833	1983.567383	9.955076
22964.800000	3073.063833	1982.599609	45.271816
22964.800000	3073.063833	1981.632813	-40.644962
22964.800000	3073.063833	1980.665039	26.486393
22964.800000	3073.063833	1979.697266	-10.281875
22964.800000	3073.063833	1978.729492	-27.416214
22964.800000	3073.063833	1977.761719	-49.611958
22964.800000	3073.063833	1976.792969	7.067668
22964.800000	3073.063833	1975.825195	115.434273
22964.800000	3073.063833	1974.856445	117.539886
22964.800000	3073.063833	1973.887695	40.585827
22964.800000	3073.063833	1972.918945	40.020477
22964.800000	3073.063833	1971.949219	-2.572546
22964.800000	3073.063833	1970.980469	-15.658645
22964.800000	3073.063833	1970.010742	30.332872
22964.800000	3073.063833	1969.041016	14.597218
22964.800000	3073.063833	1968.071289	94.891830
22964.800000	3073.063833	1967.101563	29.704037
22964.800000	3073.063833	1966.130859	-20.757471
22964.800000	3073.063833	1965.161133	5.078734
22964.800000	3073.063833	1964.190430	13.595942
22964.800000	3073.063833	1963.219727	86.056915
22964.800000	3073.063833	1962.249023	47.653820
22964.800000	3073.063833	1961.277344	31.353584
22964.800000	3073.063833	1960.306641	-7.143251
22964.800000	3073.063833	1959.334961	82.251801
22964.800000	3073.063833	1958.363281	9.215939
22964.800000	3073.063833	1957.391602	32.072952
22964.800000	3073.063833	1956.419922	72.088203
22964.800000	3073.063833	1955.447266	-23.168428
22964.800000	3073.063833	1954.474609	31.505753
22964.800000	3073.063833	1953.501953	56.632454
22964.800000	3073.063833	1952.529297	37.487938
22964.800000	3073.063833	1951.556641	-20.987055
22964.800000	3073.063833	1950.583984	28.599545
22964.800000	3073.063833	1949.610352	87.961479
22964.800000	3073.063833	1948.636719	19.604422
22964.800000	3073.063833	1947.663086	44.530819
22964.800000	3073.063833	1946.689453	-65.560188
22964.800000	3073.063833	1945.715820	-67.659691
22964.800000	3073.063833	1944.741211	67.612816
22964.800000	3073.063833	1943.767578	21.304419
22964.800000	3073.063833	1942.792969	60.834908
22964.800000	3073.063833	1941.818359	66.011131
22964.800000	3073.063833	1940.842773	-4.824795
22964.800000	3073.063833	1939.868164	-36.423077
22964.800000	3073.063833	1938.892578	42.261719
22964.800000	3073.063833	1937.916992	-65.302887
22964.800000	3073.063833	1936.941406	69.693413
22964.800000	3073.063833	1935.965820	-57.436455
22964.800000	3073.063833	1934.990234	-8.203835
22964.800000	3073.063833	1934.013672	-15.303426
22964.800000	3073.063833	1933.037109	-10.159097
22964.800000	3073.063833	1932.060547	12.118270
22964.800000	3073.063833	1931.083984	-9.654528
22964.800000	3073.063833	1930.107422	-24.074564
22964.800000	3073.063833	1929.129883	-106.975456
22964.800000	3073.063833	1928.153320	-21.087606
22964.800000	3073.063833	1927.175781	-13.471440
22964.800000	3073.063833	1926.198242	74.826942
22964.800000	3073.063833	1925.219727	28.665422
22964.800000	3073.063833	1924.242188	82.729584
22964.800000	3073.063833	1923.263672	-9.818217
22964.800000	3073.063833	1922.285156	-4.603400
22964.800000	3073.063833	1921.306641	-18.917818
22964.800000	3073.063833	1920.328125	47.371929
22964.800000	3073.063833	1919.349609	6.223173
22964.800000	3073.063833	1918.370117	-17.810148
22964.800000	3073.063833	1917.391602	-107.715057
22964.800000	3073.063833	1916.412109	-9.680137
22964.800000	3073.063833	1915.431641	34.658810
22964.800000	3073.063833	1914.452148	103.390961
22964.800000	3073.063833	1913.472656	30.662872
22964.800000	3073.063833	1912.492188	-7.885967
22964.800000	3073.063833	1911.511719	-65.907219
22964.800000	3073.063833	1910.531250	61.355412
22964.800000	3073.063833	1909.550781	-16.118912
22964.800000	3073.063833	1908.569336	-91.111900
22964.800000	3073.063833	1907.588867	14.210976
22964.800000	3073.063833	1906.607422	24.521477
22964.800000	3073.063833	1905.625977	8.058740
22964.800000	3073.063833	1904.644531	25.705332
22964.800000	3073.063833	1903.662109	16.584743
22964.800000	3073.063833	1902.680664	-19.285713
22964.800000	3073.063833	1901.698242	-4.026496
22964.800000	3073.063833	1900.715820	-37.413593
22964.800000	3073.063833	1899.733398	7.066526
22964.800000	3073.063833	1898.750000	-26.277647
22964.800000	3073.063833	1897.767578	76.574066
22964.800000	3073.063833	1896.784180	62.710968
22964.800000	3073.063833	1895.800781	46.438881
22964.800000	3073.063833	1894.817383	13.177706
22964.800000	3073.063833	1893.833984	-17.625834
22964.800000	3073.063833	1892.850586	-145.572388
22964.800000	3073.063833	1891.866211	-64.580582
22964.800000	3073.063833	1890.881836	-29.742954
22964.800000	3073.063833	1889.897461	19.663250
22964.800000	3073.063833	1888.913086	61.782654
22964.800000	3073.063833	1887.927734	11.673676
22964.800000	3073.063833	1886.943359	-74.800583
22964.800000	3073.063833	1885.958008	-69.039978
22964.800000	3073.063833	1884.972656	-63.269352
22964.800000	3073.063833	1883.987305	-25.961845
22964.800000	3073.063833	1883.001953	13.767288
22964.800000	3073.063833	1882.015625	51.067017
22964.800000	3073.063833	1881.029297	-52.217304
22964.800000	3073.063833	1880.042969	-53.672649
22964.800000	3073.063833	1879.056641	-33.312527
22964.800000	3073.063833	1878.070313	-12.951476
22964.800000	3073.063833	1877.083984	24.363522
22964.800000	3073.063833	1876.096680	10.819003
22964.800000	3073.063833	1875.109375	79.602959
22964.800000	3073.063833	1874.122070	-142.107742
22964.800000	3073.063833	1873.134766	81.581276
22964.800000	3073.063833	1872.146484	17.244471
22964.800000	3073.063833	1871.159180	-37.386452
22964.800000	3073.063833	1870.170898	-2.498132
22964.800000	3073.063833	1869.182617	-30.497644
22964.800000	3073.063833	1868.194336	43.067692
22964.800000	3073.063833	1867.205078	-35.693520
22964.800000	3073.063833	1866.216797	-128.925369
22964.800000	3073.063833	1865.227539	104.109787
22964.800000	3073.063833	1864.238281	-39.852589
22964.800000	3073.063833	1863.249023	-7.421376
22964.800000	3073.063833	1862.259766	-8.816784
22964.800000	3073.063833	1861.269531	47.737961
22964.800000	3073.063833	1860.279297	48.739510
22964.800000	3073.063833	1859.290039	66.633995
22964.800000	3073.063833	1858.298828	-48.220234
22964.800000	3073.063833	1857.308594	87.906822
22964.800000	3073.063833	1856.318359	163.664215
22964.800000	3073.063833	1855.327148	46.424606
22964.800000	3073.063833	1854.335938	40.152435
22964.800000	3073.063833	1853.344727	41.106701
22964.800000	3073.063833	1852.353516	58.925556
22964.800000	3073.063833	1851.362305	40.574547
22964.800000	3073.063833	1850.370117	58.364269
22964.800000	3073.063833	1849.377930	97.818748
22964.800000	3073.063833	1848.385742	158.925262
22964.800000	3073.063833	1847.393555	121.251404
22964.800000	3073.063833	1846.401367	35.418961
22964.800000	3073.063833	1845.408203	101.273613
22964.800000	3073.063833	1844.415039	-59.172749
22964.800000	3073.063833	1843.421875	57.180424
22964.800000	3073.063833	1842.428711	57.978855
22964.800000	3073.063833	1841.435547	46.730080
22964.800000	3073.063833	1840.441406	76.354164
22964.800000	3073.063833	1839.448242	38.615135
22964.800000	3073.063833	1838.454102	12.890236
22964.800000	3073.063833	1837.459961	3.980793
22964.800000	3073.063833	1836.464844	59.943275
22964.800000	3073.063833	1835.470703	46.177368
22964.800000	3073.063833	1834.475586	25.184444
22964.800000	3073.063833	1833.480469	13.783249
22964.800000	3073.063833	1832.485352	-67.285011
22964.800000	3073.063833	1831.490234	38.940369
22964.800000	3073.063833	1830.495117	3.458409
22964.800000	3073.063833	1829.499023	-94.444817
22964.800000	3073.063833	1828.502930	95.635025
22964.800000	3073.063833	1827.506836	-23.899700
22964.800000	3073.063833	1826.510742	-45.064831
22964.800000	3073.063833	1825.513672	51.269356
22964.800000	3073.063833	1824.517578	68.404526
22964.800000	3073.063833	1823.520508	-34.376003
22964.800000	3073.063833	1822.523438	47.424107
22964.800000	3073.063833	1821.526367	-60.172626
22964.800000	3073.063833	1820.529297	38.307987
22964.800000	3073.063833	1819.531250	14.533851
22964.800000	3073.063833	1818.533203	-59.567154
22964.800000	3073.063833	1817.535156	-9.145824
22964.800000	3073.063833	1816.537109	41.220058
22964.800000	3073.063833	1815.539063	-13.802173
22964.800000	3073.063833	1814.540039	-16.187084
22964.800000	3073.063833	1813.541992	53.182240
22964.800000	3073.063833	1812.542969	5.249599
22964.800000	3073.063833	1811.543945	86.468559
22964.800000	3073.063833	1810.543945	-21.325743
22964.800000	3073.063833	1809.544922	-43.035110
22964.800000	3073.063833	1808.544922	69.101860
22964.800000	3073.063833	1807.544922	64.030128
22964.800000	3073.063833	1806.544922	51.747929
22964.800000	3073.063833	1805.544922	89.604073
22964.800000	3073.063833	1804.544922	22.288935
22964.800000	3073.063833	1803.543945	33.772438
22964.800000	3073.063833	1802.542969	64.311073
22964.800000	3073.063833	1801.541992	-34.136932
22964.800000	3073.063833	1800.541016	-18.011530
22964.800000	3073.063833	1799.539063	95.912674
22964.800000	3073.063833	1798.538086	-14.556357
22964.800000	3073.063833	1797.536133	30.041903
22964.800000	3073.063833	1796.534180	19.712555
22964.800000	3073.063833	1795.532227	128.582108
22964.800000	3073.063833	1794.529297	13.223173
22964.800000	3073.063833	1793.527344	-2.012304
22964.800000	3073.063833	1792.524414	-5.376864
22964.800000	3073.063833	1791.521484	-65.984505
22964.800000	3073.063833	1790.518555	-0.341485
22964.800000	3073.063833	1789.514648	43.783321
22964.800000	3073.063833	1788.511719	49.734810
22964.800000	3073.063833	1787.507813	105.635750
22964.800000	3073.063833	1786.503906	44.803104
22964.800000	3073.063833	1785.500000	60.112007
22964.800000	3073.063833	1784.496094	8.724484
22964.800000	3073.063833	1783.491211	-11.767492
22964.800000	3073.063833	1782.486328	93.781647
22964.800000	3073.063833	1781.481445	-14.833471
22964.800000	3073.063833	1780.476563	47.761124
22964.800000	3073.063833	1779.471680	-53.780788
22964.800000	3073.063833	1778.465820	-100.667252
22964.800000	3073.063833	1777.460938	2.147102
22964.800000	3073.063833	1776.455078	-25.833406
22964.800000	3073.063833	1775.449219	38.798470
22964.800000	3073.063833	1774.442383	74.841110
22964.800000	3073.063833	1773.436523	-72.053688
22964.800000	3073.063833	1772.429688	-55.113434
22964.800000	3073.063833	1771.422852	-0.251913
22964.800000	3073.063833	1770.416016	56.904964
22964.800000	3073.063833	1769.409180	61.773296
22964.800000	3073.063833	1768.402344	30.991592
22964.800000	3073.063833	1767.394531	45.232460
22964.800000	3073.063833	1766.386719	-11.744228
22964.800000	3073.063833	1765.378906	7.125372
22964.800000	3073.063833	1764.371094	75.718109
22964.800000	3073.063833	1763.362305	-40.672508
22964.800000	3073.063833	1762.354492	103.625435
22964.800000	3073.063833	1761.345703	36.916561
22964.800000	3073.063833	1760.336914	-62.993198
22964.800000	3073.063833	1759.328125	9.986438
22964.800000	3073.063833	1758.318359	-108.948402
22964.800000	3073.063833	1757.308594	-29.007452
22964.800000	3073.063833	1756.299805	-34.373863
22964.800000	3073.063833	1755.290039	-56.370060
22964.800000	3073.063833	1754.279297	-168.344589
22964.800000	3073.063833	1753.269531	24.874075
22964.800000	3073.063833	1752.258789	-49.344406
22964.800000	3073.063833	1751.249023	105.818474
22964.800000	3073.063833	1750.238281	38.587635
22964.800000	3073.063833	1749.226563	51.698570
22964.800000	3073.063833	1748.215820	8.021418
22964.800000	3073.063833	1747.204102	18.650925
22964.800000	3073.063833	1746.193359	-36.935593
22964.800000	3073.063833	1745.181641	63.348351
22964.800000	3073.063833	1744.168945	12.369406
22964.800000	3073.063833	1743.157227	121.932884
22964.800000	3073.063833	1742.144531	42.512196
22964.800000	3073.063833	1741.132813	-60.536819
22964.800000	3073.063833	1740.120117	-29.086664
22964.800000	3073.063833	1739.106445	73.076050
22964.800000	3073.063833	1738.093750	40.673737
22964.800000	3073.063833	1737.080078	36.524521
22964.800000	3073.063833	1736.067383	20.532946
22964.800000	3073.063833	1735.053711	35.135342
22964.800000	3073.063833	1734.040039	-6.902637
22964.800000	3073.063833	1733.025391	28.790310
22964.800000	3073.063833	1732.011719	-53.405708
22964.800000	3073.063833	1730.997070	-6.052299
22964.800000	3073.063833	1729.982422	-1.174576
22964.800000	3073.063833	1728.967773	64.877876
22964.800000	3073.063833	1727.952148	81.393883
22964.800000	3073.063833	1726.937500	29.581015
22964.800000	3073.063833	1725.921875	1.263434
22964.800000	3073.063833	1724.906250	92.919998
22964.800000	3073.063833	1723.890625	-55.506836
22964.800000	3073.063833	1722.875000	-18.090958
22964.800000	3073.063833	1721.858398	160.367340
22964.800000	3073.063833	1720.841797	2.435034
22964.800000	3073.063833	1719.825195	-26.182178
22964.800000	3073.063833	1718.808594	20.377390
22964.800000	3073.063833	1717.791992	-104.697166
22964.800000	3073.063833	1716.774414	-105.248573
22964.800000	3073.063833	1715.756836	6.912026
22964.800000	3073.063833	1714.739258	43.814587
22964.800000	3073.063833	1713.721680	-53.206261
22964.800000	3073.063833	1712.704102	32.896053
22964.800000	3073.063833	1711.685547	20.313023
22964.800000	3073.063833	1710.667969	92.183403
22964.800000	3073.063833	1709.649414	-40.183270
22964.800000	3073.063833	1708.630859	-8.320864
22964.800000	3073.063833	1707.611328	25.817923
22964.800000	3073.063833	1706.592773	38.794117
22964.800000	3073.063833	1705.573242	124.397400
22964.800000	3073.063833	1704.553711	10.651489
22964.800000	3073.063833	1703.534180	18.782698
22964.800000	3073.063833	1702.513672	17.481958
22964.800000	3073.063833	1701.494141	102.832016
22964.800000	3073.063833	1700.473633	42.858727
22964.800000	3073.063833	1699.453125	-96.768433
22964.800000	3073.063833	1698.432617	16.507957
22964.800000	3073.063833	1697.412109	43.071972
22964.800000	3073.063833	1696.390625	-40.440342
22964.800000	3073.063833	1695.369141	-44.395702
22964.800000	3073.063833	1694.347656	-76.471031
22964.800000	3073.063833	1693.326172	45.821777
22964.800000	3073.063833	1692.304688	-68.206642
22964.800000	3073.063833	1691.282227	-46.609356
22964.800000	3073.063833	1690.260742	42.748581
22964.800000	3073.063833	1689.238281	-1.218339
22964.800000	3073.063833	1688.214844	-70.924904
22964.800000	3073.063833	1687.192383	139.764557
22964.800000	3073.063833	1686.168945	20.917923
22964.800000	3073.063833	1685.146484	58.583363
22964.800000	3073.063833	1684.123047	47.146488
22964.800000	3073.063833	1683.099609	61.360245
22964.800000	3073.063833	1682.075195	14.828286
22964.800000	3073.063833	1681.051758	28.969936
22964.800000	3073.063833	1680.027344	96.733551
22964.800000	3073.063833	1679.002930	5.786300
22964.800000	3073.063833	1677.978516	108.448654
22964.800000	3073.063833	1676.953125	-57.171696
22964.800000	3073.063833	1675.928711	85.035820
22964.800000	3073.063833	1674.903320	21.994623
22964.800000	3073.063833	1673.877930	68.495590
22964.800000	3073.063833	1672.852539	-143.725494
22964.800000	3073.063833	1671.826172	-18.062500
22964.800000	3073.063833	1670.800781	168.097122
22964.800000	3073.063833	1669.774414	37.398243
22964.800000	3073.063833	1668.748047	44.108215
22964.800000	3073.063833	1667.721680	104.335159
22964.800000	3073.063833	1666.694336	159.847946
22964.800000	3073.063833	1665.667969	29.142197
22964.800000	3073.063833	1664.640625	40.386753
22964.800000	3073.063833	1663.613281	-50.756618
22964.800000	3073.063833	1662.585938	120.936684
22964.800000	3073.063833	1661.557617	78.590652
22964.800000	3073.063833	1660.530273	103.671623
22964.800000	3073.063833	1659.501953	217.045258
22964.800000	3073.063833	1658.473633	195.555817
22964.800000	3073.063833	1657.444336	246.078461
22964.800000	3073.063833	1656.416016	164.147797
22964.800000	3073.063833	1655.386719	212.295135
22964.800000	3073.063833	1654.358398	200.034119
22964.800000	3073.063833	1653.328125	190.064606
22964.800000	3073.063833	1652.298828	303.125275
22964.800000	3073.063833	1651.269531	376.669128
22964.800000	3073.063833	1650.239258	238.994858
22964.800000	3073.063833	1649.208984	275.363373
22964.800000	3073.063833	1648.178711	416.085541
22964.800000	3073.063833	1647.148438	354.973572
22964.800000	3073.063833	1646.117188	365.744171
22964.800000	3073.063833	1645.086914	348.687988
22964.800000	3073.063833	1644.055664	320.030029
22964.800000	3073.063833	1643.024414	312.229034
22964.800000	3073.063833	1641.992188	385.505005
22964.800000	3073.063833	1640.960938	331.346985
22964.800000	3073.063833	1639.928711	379.098053
22964.800000	3073.063833	1638.896484	350.409363
22964.800000	3073.063833	1637.864258	493.044373
22964.800000	3073.063833	1636.832031	445.815399
22964.800000	3073.063833	1635.798828	477.274963
22964.800000	3073.063833	1634.766602	349.076691
22964.800000	3073.063833	1633.733398	345.835632
22964.800000	3073.063833	1632.699219	423.534943
22964.800000	3073.063833	1631.666016	450.338074
22964.800000	3073.063833	1630.632813	474.817505
22964.800000	3073.063833	1629.598633	499.278778
22964.800000	3073.063833	1628.564453	438.221161
22964.800000	3073.063833	1627.530273	448.818329
22964.800000	3073.063833	1626.495117	526.399658
22964.800000	3073.063833	1625.460938	633.988892
22964.800000	3073.063833	1624.425781	572.954468
22964.800000	3073.063833	1623.390625	715.124878
22964.800000	3073.063833	1622.355469	818.003235
22964.800000	3073.063833	1621.319336	703.893188
22964.800000	3073.063833	1620.284180	839.051208
22964.800000	3073.063833	1619.248047	865.724854
22964.800000	3073.063833	1618.211914	885.477295
22964.800000	3073.063833	1617.174805	979.018372
22964.800000	3073.063833	1616.138672	980.314575
22964.800000	3073.063833	1615.101563	986.222778
22964.800000	3073.063833	1614.065430	909.176636
22964.800000	3073.063833	1613.027344	956.589905
22964.800000	3073.063833	1611.990234	992.486450
22964.800000	3073.063833	1610.953125	1102.093750
22964.800000	3073.063833	1609.915039	981.364746
22964.800000	3073.063833	1608.876953	985.035583
22964.800000	3073.063833	1607.838867	820.667969
22964.800000	3073.063833	1606.800781	909.563477
22964.800000	3073.063833	1605.761719	858.059570
22964.800000	3073.063833	1604.723633	944.648560
22964.800000	3073.063833	1603.684570	893.196167
22964.800000	3073.063833	1602.644531	947.568420
22964.800000	3073.063833	1601.605469	815.697449
22964.800000	3073.063833	1600.566406	727.579468
22964.800000	3073.063833	1599.526367	959.002319
22964.800000	3073.063833	1598.486328	776.707581
22964.800000	3073.063833	1597.446289	884.006958
22964.800000	3073.063833	1596.405273	901.691223
22964.800000	3073.063833	1595.365234	910.215332
22964.800000	3073.063833	1594.324219	944.013062
22964.800000	3073.063833	1593.283203	1005.374207
22964.800000	3073.063833	1592.242188	984.105652
22964.800000	3073.063833	1591.200195	914.672668
22964.800000	3073.063833	1590.159180	1111.462402
22964.800000	3073.063833	1589.117188	1287.551025
22964.800000	3073.063833	1588.075195	1105.803345
22964.800000	3073.063833	1587.032227	1114.479736
22964.800000	3073.063833	1585.990234	1024.607666
22964.800000	3073.063833	1584.947266	976.055664
22964.800000	3073.063833	1583.904297	955.057434
22964.800000	3073.063833	1582.861328	966.180115
22964.800000	3073.063833	1581.818359	1087.296021
22964.800000	3073.063833	1580.775391	954.161621
22964.800000	3073.063833	1579.731445	963.087219
22964.800000	3073.063833	1578.687500	949.150757
22964.800000	3073.063833	1577.643555	758.997803
22964.800000	3073.063833	1576.598633	882.494019
22964.800000	3073.063833	1575.554688	955.648010
22964.800000	3073.063833	1574.509766	765.715271
22964.800000	3073.063833	1573.464844	731.433533
22964.800000	3073.063833	1572.419922	909.882996
22964.800000	3073.063833	1571.374023	845.938843
22964.800000	3073.063833	1570.329102	772.925537
22964.800000	3073.063833	1569.283203	859.962341
22964.800000	3073.063833	1568.237305	924.158264
22964.800000	3073.063833	1567.191406	951.819641
22964.800000	3073.063833	1566.144531	984.076111
22964.800000	3073.063833	1565.098633	963.848022
22964.800000	3073.063833	1564.051758	998.465332
22964.800000	3073.063833	1563.004883	998.873901
22964.800000	3073.063833	1561.957031	1058.664429
22964.800000	3073.063833	1560.910156	1066.002563
22964.800000	3073.063833	1559.862305	977.558289
22964.800000	3073.063833	1558.814453	1110.457520
22964.800000	3073.063833	1557.766602	1038.103149
22964.800000	3073.063833	1556.718750	984.068542
22964.800000	3073.063833	1555.669922	941.498840
22964.800000	3073.063833	1554.621094	821.503479
22964.800000	3073.063833	1553.573242	783.651184
22964.800000	3073.063833	1552.523438	768.636963
22964.800000	3073.063833	1551.474609	849.360168
22964.800000	3073.063833	1550.424805	668.193970
22964.800000	3073.063833	1549.375000	475.769470
22964.800000	3073.063833	1548.325195	565.766907
22964.800000	3073.063833	1547.275391	528.323975
22964.800000	3073.063833	1546.225586	431.785889
22964.800000	3073.063833	1545.174805	439.995209
22964.800000	3073.063833	1544.124023	364.093872
22964.800000	3073.063833	1543.073242	356.509705
22964.800000	3073.063833	1542.022461	435.393524
22964.800000	3073.063833	1540.970703	352.887848
22964.800000	3073.063833	1539.919922	365.944489
22964.800000	3073.063833	1538.868164	313.147858
22964.800000	3073.063833	1537.815430	353.581573
22964.800000	3073.063833	1536.763672	275.942719
22964.800000	3073.063833	1535.710938	395.981995
22964.800000	3073.063833	1534.659180	266.263428
22964.800000	3073.063833	1533.606445	316.003815
22964.800000	3073.063833	1532.552734	358.973236
22964.800000	3073.063833	1531.500000	372.493195
22964.800000	3073.063833	1530.446289	501.781219
22964.800000	3073.063833	1529.393555	442.805542
22964.800000	3073.063833	1528.338867	334.010681
22964.800000	3073.063833	1527.285156	336.441132
22964.800000	3073.063833	1526.231445	382.012451
22964.800000	3073.063833	1525.176758	332.426086
22964.800000	3073.063833	1524.122070	303.322266
22964.800000	3073.063833	1523.067383	244.842484
22964.800000	3073.063833	1522.012695	161.534454
22964.800000	3073.063833	1520.957031	202.891846
22964.800000	3073.063833	1519.901367	169.574646
22964.800000	3073.063833	1518.845703	38.987999
22964.800000	3073.063833	1517.790039	46.598530
22964.800000	3073.063833	1516.734375	95.011543
22964.800000	3073.063833	1515.677734	177.410919
22964.800000	3073.063833	1514.621094	185.195084
22964.800000	3073.063833	1513.564453	120.671463
22964.800000	3073.063833	1512.507813	158.002457
22964.800000	3073.063833	1511.450195	265.473267
22964.800000	3073.063833	1510.393555	298.383575
22964.800000	3073.063833	1509.335938	279.369934
22964.800000	3073.063833	1508.278320	447.975800
22964.800000	3073.063833	1507.219727	352.273285
22964.800000	3073.063833	1506.162109	337.995514
22964.800000	3073.063833	1505.103516	258.306000
22964.800000	3073.063833	1504.044922	291.608215
22964.800000	3073.063833	1502.986328	160.190033
22964.800000	3073.063833	1501.926758	83.058380
22964.800000	3073.063833	1500.868164	265.519409
22964.800000	3073.063833	1499.808594	66.726517
22964.800000	3073.063833	1498.749023	84.614586
22964.800000	3073.063833	1497.688477	163.453018
22964.800000	3073.063833	1496.628906	201.756851
22964.800000	3073.063833	1495.568359	172.493500
22964.800000	3073.063833	1494.507813	53.170269
22964.800000	3073.063833	1493.447266	247.171600
22964.800000	3073.063833	1492.386719	281.224213
22964.800000	3073.063833	1491.325195	231.999771
22964.800000	3073.063833	1490.263672	160.352921
22964.800000	3073.063833	1489.202148	97.817001
22964.800000	3073.063833	1488.140625	276.241272
22964.800000	3073.063833	1487.079102	101.334312
22964.800000	3073.063833	1486.016602	198.835526
22964.800000	3073.063833	1484.954102	114.153351
22964.800000	3073.063833	1483.891602	272.497375
22964.800000	3073.063833	1482.829102	104.786110
22964.800000	3073.063833	1481.765625	-31.304262
22964.800000	3073.063833	1480.702148	120.457626
22964.800000	3073.063833	1479.638672	-19.916920
22964.800000	3073.063833	1478.575195	35.333382
22964.800000	3073.063833	1477.511719	131.064056
22964.800000	3073.063833	1476.447266	-89.819412
22964.800000	3073.063833	1475.382813	-112.932243
22964.800000	3073.063833	1474.318359	-30.502420
22964.800000	3073.063833	1473.253906	-71.393700
22964.800000	3073.063833	1472.189453	2.209852
22964.800000	3073.063833	1471.124023	-130.518356
22964.800000	3073.063833	1470.058594	-119.438599
22964.800000	3073.063833	1468.993164	115.667892
22964.800000	3073.063833	1467.927734	-59.291187
22964.800000	3073.063833	1466.861328	-27.926355
22964.800000	3073.063833	1465.794922	41.498493
22964.800000	3073.063833	1464.728516	122.241631
22964.800000	3073.063833	1463.662109	97.892357
22964.800000	3073.063833	1462.594727	149.412704
22964.800000	3073.063833	1461.528320	201.293106
22964.800000	3073.063833	1460.460938	322.219421
22964.800000	3073.063833	1459.393555	273.983429
22964.800000	3073.063833	1458.326172	307.500092
22964.800000	3073.063833	1457.257813	279.138489
22964.800000	3073.063833	1456.189453	317.757019
22964.800000	3073.063833	1455.121094	278.214539
22964.800000	3073.063833	1454.052734	230.105606
22964.800000	3073.063833	1452.984375	509.591766
22964.800000	3073.063833	1451.915039	330.290955
22964.800000	3073.063833	1450.845703	375.979675
22964.800000	3073.063833	1449.776367	423.847229
22964.800000	3073.063833	1448.707031	302.772888
22964.800000	3073.063833	1447.636719	343.148285
22964.800000	3073.063833	1446.567383	386.632629
22964.800000	3073.063833	1445.497070	261.451782
22964.800000	3073.063833	1444.425781	377.818756
22964.800000	3073.063833	1443.355469	490.378571
22964.800000	3073.063833	1442.285156	429.256378
22964.800000	3073.063833	1441.213867	501.541992
22964.800000	3073.063833	1440.142578	470.648834
22964.800000	3073.063833	1439.070313	414.180939
22964.800000	3073.063833	1437.999023	430.292908
22964.800000	3073.063833	1436.926758	494.858215
22964.800000	3073.063833	1435.854492	291.669800
22964.800000	3073.063833	1434.782227	371.811920
22964.800000	3073.063833	1433.709961	358.107086
22964.800000	3073.063833	1432.636719	115.692528
22964.800000	3073.063833	1431.563477	57.016132
22964.800000	3073.063833	1430.490234	211.887222
22964.800000	3073.063833	1429.416992	182.875870
22964.800000	3073.063833	1428.343750	-58.264282
22964.800000	3073.063833	1427.269531	149.554459
22964.800000	3073.063833	1426.195313	242.068695
22964.800000	3073.063833	1425.121094	155.139481
22964.800000	3073.063833	1424.046875	109.065834
22964.800000	3073.063833	1422.971680	-26.451965
22964.800000	3073.063833	1421.896484	71.682724
22964.800000	3073.063833	1420.821289	60.185421
22964.800000	3073.063833	1419.746094	170.131989
22964.800000	3073.063833	1418.669922	54.324486
22964.800000	3073.063833	1417.594727	225.181351
22964.800000	3073.063833	1416.518555	88.060486
22964.800000	3073.063833	1415.442383	4.559583
22964.800000	3073.063833	1414.365234	69.741684
22964.800000	3073.063833	1413.289063	51.154064
22964.800000	3073.063833	1412.211914	-44.078747
22964.800000	3073.063833	1411.134766	22.232931
22964.800000	3073.063833	1410.057617	-0.231575
22964.800000	3073.063833	1408.979492	187.710220
22964.800000	3073.063833	1407.902344	125.805115
22964.800000	3073.063833	1406.824219	157.270538
22964.800000	3073.063833	1405.746094	165.268951
22964.800000	3073.063833	1404.666992	202.382523
22964.800000	3073.063833	1403.588867	179.415100
22964.800000	3073.063833	1402.509766	186.679337
22964.800000	3073.063833	1401.430664	172.489777
22964.800000	3073.063833	1400.351563	176.707855
22964.800000	3073.063833	1399.271484	204.151794
22964.800000	3073.063833	1398.192383	117.228355
22964.800000	3073.063833	1397.112305	176.985641
22964.800000	3073.063833	1396.031250	59.345795
22964.800000	3073.063833	1394.951172	63.052074
22964.800000	3073.063833	1393.871094	70.447250
22964.800000	3073.063833	1392.790039	117.884590
22964.800000	3073.063833	1391.708984	135.781067
22964.800000	3073.063833	1390.626953	-10.312695
22964.800000	3073.063833	1389.545898	12.558379
22964.800000	3073.063833	1388.463867	62.095657
22964.800000	3073.063833	1387.381836	21.584511
22964.800000	3073.063833	1386.299805	81.479065
22964.800000	3073.063833	1385.217773	121.972710
22964.800000	3073.063833	1384.134766	27.893232
22964.800000	3073.063833	1383.051758	-51.309189
22964.800000	3073.063833	1381.968750	-25.404568
22964.800000	3073.063833	1380.885742	139.460129
22964.800000	3073.063833	1379.802734	181.837631
22964.800000	3073.063833	1378.718750	225.110184
22964.800000	3073.063833	1377.634766	251.867828
22964.800000	3073.063833	1376.550781	294.601746
22964.800000	3073.063833	1375.465820	139.809555
22964.800000	3073.063833	1374.381836	275.439362
22964.800000	3073.063833	1373.296875	141.580276
22964.800000	3073.063833	1372.211914	252.883011
22964.800000	3073.063833	1371.126953	297.090240
22964.800000	3073.063833	1370.041016	185.842407
22964.800000	3073.063833	1368.955078	250.827240
22964.800000	3073.063833	1367.869141	147.380112
22964.800000	3073.063833	1366.783203	76.650902
22964.800000	3073.063833	1365.697266	19.639574
22964.800000	3073.063833	1364.610352	83.850075
22964.800000	3073.063833	1363.523438	90.038216
22964.800000	3073.063833	1362.436523	76.043297
22964.800000	3073.063833	1361.349609	125.034691
22964.800000	3073.063833	1360.261719	143.749451
22964.800000	3073.063833	1359.174805	167.444778
22964.800000	3073.063833	1358.086914	232.789719
22964.800000	3073.063833	1356.998047	39.016727
22964.800000	3073.063833	1355.910156	178.494583
22964.800000	3073.063833	1354.821289	150.408188
22964.800000	3073.063833	1353.732422	108.680367
22964.800000	3073.063833	1352.643555	56.130878
22964.800000	3073.063833	1351.554688	148.749878
22964.800000	3073.063833	1350.464844	147.897827
22964.800000	3073.063833	1349.375000	70.091606
22964.800000	3073.063833	1348.285156	-3.834860
22964.800000	3073.063833	1347.195313	100.631020
22964.800000	3073.063833	1346.105469	267.882721
22964.800000	3073.063833	1345.014648	139.742798
22964.800000	3073.063833	1343.923828	256.134186
22964.800000	3073.063833	1342.833008	279.860016
22964.800000	3073.063833	1341.741211	183.136520
22964.800000	3073.063833	1340.650391	229.200424
22964.800000	3073.063833	1339.558594	307.439362
22964.800000	3073.063833	1338.466797	180.502670
22964.800000	3073.063833	1337.374023	137.651627
22964.800000	3073.063833	1336.282227	85.616776
22964.800000	3073.063833	1335.189453	78.514107
22964.800000	3073.063833	1334.096680	124.998131
22964.800000	3073.063833	1333.003906	106.853416
22964.800000	3073.063833	1331.910156	252.452240
22964.800000	3073.063833	1330.817383	173.348083
22964.800000	3073.063833	1329.723633	212.589355
22964.800000	3073.063833	1328.629883	225.095566
22964.800000	3073.063833	1327.535156	106.926582
22964.800000	3073.063833	1326.441406	124.120514
22964.800000	3073.063833	1325.346680	127.354927
22964.800000	3073.063833	1324.251953	119.557472
22964.800000	3073.063833	1323.156250	166.000092
22964.800000	3073.063833	1322.061523	209.934479
22964.800000	3073.063833	1320.965820	190.340698
22964.800000	3073.063833	1319.870117	264.720978
22964.800000	3073.063833	1318.774414	216.722687
22964.800000	3073.063833	1317.678711	263.470673
22964.800000	3073.063833	1316.582031	310.353760
22964.800000	3073.063833	1315.485352	311.309113
22964.800000	3073.063833	1314.388672	416.438202
22964.800000	3073.063833	1313.291016	336.296875
22964.800000	3073.063833	1312.194336	397.195892
22964.800000	3073.063833	1311.096680	379.841431
22964.800000	3073.063833	1309.999023	403.449768
22964.800000	3073.063833	1308.901367	364.153656
22964.800000	3073.063833	1307.802734	317.574005
22964.800000	3073.063833	1306.705078	342.595093
22964.800000	3073.063833	1305.606445	211.810959
22964.800000	3073.063833	1304.506836	280.773743
22964.800000	3073.063833	1303.408203	272.803741
22964.800000	3073.063833	1302.308594	310.106354
22964.800000	3073.063833	1301.208984	263.015503
22964.800000	3073.063833	1300.109375	173.392334
22964.800000	3073.063833	1299.009766	256.269501
22964.800000	3073.063833	1297.909180	235.202164
22964.800000	3073.063833	1296.808594	157.663254
22964.800000	3073.063833	1295.708008	239.738129
22964.800000	3073.063833	1294.607422	225.288010
22964.800000	3073.063833	1293.506836	155.028610
22964.800000	3073.063833	1292.405273	132.436523
22964.800000	3073.063833	1291.303711	288.184875
22964.800000	3073.063833	1290.202148	266.488861
22964.800000	3073.063833	1289.099609	276.276825
22964.800000	3073.063833	1287.998047	289.754303
22964.800000	3073.063833	1286.895508	219.770737
22964.800000	3073.063833	1285.792969	244.926910
22964.800000	3073.063833	1284.689453	160.486618
22964.800000	3073.063833	1283.586914	255.109955
22964.800000	3073.063833	1282.483398	239.870529
22964.800000	3073.063833	1281.379883	29.030712
22964.800000	3073.063833	1280.276367	202.013260
22964.800000	3073.063833	1279.171875	192.569839
22964.800000	3073.063833	1278.067383	242.304565
22964.800000	3073.063833	1276.962891	140.485428
22964.800000	3073.063833	1275.858398	129.998566
22964.800000	3073.063833	1274.753906	101.716942
22964.800000	3073.063833	1273.648438	195.210114
22964.800000	3073.063833	1272.542969	49.401054
22964.800000	3073.063833	1271.437500	152.566040
22964.800000	3073.063833	1270.331055	249.281494
22964.800000	3073.063833	1269.225586	214.764954
22964.800000	3073.063833	1268.119141	92.990135
22964.800000	3073.063833	1267.012695	243.697876
22964.800000	3073.063833	1265.906250	247.274323
22964.800000	3073.063833	1264.798828	236.787628
22964.800000	3073.063833	1263.691406	282.934174
22964.800000	3073.063833	1262.583984	339.344727
22964.800000	3073.063833	1261.476563	330.519257
22964.800000	3073.063833	1260.368164	382.100647
22964.800000	3073.063833	1259.260742	370.640350
22964.800000	3073.063833	1258.152344	323.166412
22964.800000	3073.063833	1257.043945	359.526031
22964.800000	3073.063833	1255.934570	278.573517
22964.800000	3073.063833	1254.825195	378.705505
22964.800000	3073.063833	1253.716797	305.508514
22964.800000	3073.063833	1252.606445	321.487854
22964.800000	3073.063833	1251.497070	380.404785
22964.800000	3073.063833	1250.387695	372.371368
22964.800000	3073.063833	1249.277344	290.782410
22964.800000	3073.063833	1248.166992	285.196198
22964.800000	3073.063833	1247.055664	121.198418
22964.800000	3073.063833	1245.945313	257.917908
22964.800000	3073.063833	1244.833984	190.119812
22964.800000	3073.063833	1243.722656	129.227219
22964.800000	3073.063833	1242.611328	110.571144
22964.800000	3073.063833	1241.499023	37.544910
22964.800000	3073.063833	1240.387695	-63.494061
22964.800000	3073.063833	1239.275391	-92.631981
22964.800000	3073.063833	1238.162109	55.477081
22964.800000	3073.063833	1237.049805	-66.285217
22964.800000	3073.063833	1235.936523	-35.097404
22964.800000	3073.063833	1234.823242	-61.780972
22964.800000	3073.063833	1233.709961	-45.485310
22964.800000	3073.063833	1232.596680	-53.493595
22964.800000	3073.063833	1231.482422	-8.271486
22964.800000	3073.063833	1230.369141	-72.381493
22964.800000	3073.063833	1229.253906	-8.394748
22964.800000	3073.063833	1228.139648	40.941597
22964.800000	3073.063833	1227.025391	34.992207
22964.800000	3073.063833	1225.910156	135.535019
22964.800000	3073.063833	1224.794922	150.205750
22964.800000	3073.063833	1223.679688	117.958054
22964.800000	3073.063833	1222.563477	137.759766
22964.800000	3073.063833	1221.447266	195.386322
22964.800000	3073.063833	1220.331055	191.827011
22964.800000	3073.063833	1219.214844	167.859268
22964.800000	3073.063833	1218.098633	119.143814
22964.800000	3073.063833	1216.981445	124.985817
22964.800000	3073.063833	1215.864258	61.341457
22964.800000	3073.063833	1214.747070	109.528206
22964.800000	3073.063833	1213.629883	-55.098145
22964.800000	3073.063833	1212.511719	68.858612
22964.800000	3073.063833	1211.393555	22.085188
22964.800000	3073.063833	1210.275391	42.711090
22964.800000	3073.063833	1209.157227	-41.163967
22964.800000	3073.063833	1208.038086	-77.384827
22964.800000	3073.063833	1206.918945	17.517326
22964.800000	3073.063833	1205.799805	-46.972778
22964.800000	3073.063833	1204.680664	81.661583
22964.800000	3073.063833	1203.560547	48.728100
22964.800000	3073.063833	1202.441406	-50.343792
22964.800000	3073.063833	1201.321289	-7.084133
22964.800000	3073.063833	1200.200195	7.841378
22964.800000	3073.063833	1199.080078	-12.881570
22964.800000	3073.063833	1197.958984	-74.197937
22964.800000	3073.063833	1196.837891	12.409414
22964.800000	3073.063833	1195.716797	-57.206821
22964.800000	3073.063833	1194.594727	-31.638039
22964.800000	3073.063833	1193.473633	36.628616
22964.800000	3073.063833	1192.351563	36.926533
22964.800000	3073.063833	1191.229492	-1.632533
22964.800000	3073.063833	1190.106445	-12.902996
22964.800000	3073.063833	1188.984375	-34.672813
22964.800000	3073.063833	1187.861328	2.118516
22964.800000	3073.063833	1186.738281	-69.565079
22964.800000	3073.063833	1185.614258	60.763939
22964.800000	3073.063833	1184.491211	-5.376743
22964.800000	3073.063833	1183.367188	42.069530
22964.800000	3073.063833	1182.243164	-27.047213
22964.800000	3073.063833	1181.119141	6.710750
22964.800000	3073.063833	1179.994141	34.748329
22964.800000	3073.063833	1178.869141	62.179813
22964.800000	3073.063833	1177.744141	57.853092
22964.800000	3073.063833	1176.619141	83.281586
22964.800000	3073.063833	1175.493164	104.683594
22964.800000	3073.063833	1174.368164	109.163269
22964.800000	3073.063833	1173.242188	157.932571
22964.800000	3073.063833	1172.115234	301.159637
22964.800000	3073.063833	1170.989258	358.703461
22964.800000	3073.063833	1169.862305	258.325165
22964.800000	3073.063833	1168.735352	301.988678
22964.800000	3073.063833	1167.608398	385.355896
22964.800000	3073.063833	1166.481445	378.718384
22964.800000	3073.063833	1165.353516	456.196564
22964.800000	3073.063833	1164.225586	278.545746
22964.800000	3073.063833	1163.097656	281.048218
22964.800000	3073.063833	1161.968750	270.750366
22964.800000	3073.063833	1160.840820	158.420914
22964.800000	3073.063833	1159.711914	143.782654
22964.800000	3073.063833	1158.583008	55.100121
22964.800000	3073.063833	1157.453125	63.997467
22964.800000	3073.063833	1156.324219	-4.659613
22964.800000	3073.063833	1155.194336	-3.326558
22964.800000	3073.063833	1154.064453	-85.478905
22964.800000	3073.063833	1152.933594	-101.434265
22964.800000	3073.063833	1151.803711	-109.148697
22964.800000	3073.063833	1150.672852	-32.518551
22964.800000	3073.063833	1149.541992	-32.099533
22964.800000	3073.063833	1148.411133	-72.704521
22964.800000	3073.063833	1147.279297	-59.796772
22964.800000	3073.063833	1146.147461	38.461418
22964.800000	3073.063833	1145.015625	63.681747
22964.800000	3073.063833	1143.883789	-10.589019
22964.800000	3073.063833	1142.750977	-35.782028
22964.800000	3073.063833	1141.619141	-91.216728
22964.800000	3073.063833	1140.486328	-46.041710
22964.800000	3073.063833	1139.352539	-17.594572
22964.800000	3073.063833	1138.219727	-42.422813
22964.800000	3073.063833	1137.085938	-75.057541
22964.800000	3073.063833	1135.952148	35.165218
22964.800000	3073.063833	1134.818359	-6.080531
22964.800000	3073.063833	1133.683594	-75.179298
22964.800000	3073.063833	1132.549805	-77.657234
22964.800000	3073.063833	1131.415039	56.451809
22964.800000	3073.063833	1130.279297	140.499725
22964.800000	3073.063833	1129.144531	27.960808
22964.800000	3073.063833	1128.008789	100.425545
22964.800000	3073.063833	1126.873047	93.792824
22964.800000	3073.063833	1125.737305	122.390251
22964.800000	3073.063833	1124.601563	126.140877
22964.800000	3073.063833	1123.464844	15.054716
22964.800000	3073.063833	1122.328125	3.268857
22964.800000	3073.063833	1121.191406	75.066238
22964.800000	3073.063833	1120.054688	66.322823
22964.800000	3073.063833	1118.916992	78.705475
22964.800000	3073.063833	1117.779297	47.735233
22964.800000	3073.063833	1116.641602	103.011703
22964.800000	3073.063833	1115.503906	128.402069
22964.800000	3073.063833	1114.365234	110.943443
22964.800000	3073.063833	1113.226563	16.801552
22964.800000	3073.063833	1112.087891	-18.201334
22964.800000	3073.063833	1110.949219	32.488518
22964.800000	3073.063833	1109.809570	120.780907
22964.800000	3073.063833	1108.669922	145.829742
22964.800000	3073.063833	1107.530273	117.432396
22964.800000	3073.063833	1106.390625	159.253723
22964.800000	3073.063833	1105.250000	100.762970
22964.800000	3073.063833	1104.109375	52.041912
22964.800000	3073.063833	1102.968750	214.214630
22964.800000	3073.063833	1101.828125	129.167908
22964.800000	3073.063833	1100.686523	142.670166
22964.800000	3073.063833	1099.544922	226.568497
22964.800000	3073.063833	1098.403320	254.808533
22964.800000	3073.063833	1097.261719	179.775070
22964.800000	3073.063833	1096.120117	198.745575
22964.800000	3073.063833	1094.977539	308.783203
22964.800000	3073.063833	1093.834961	138.279480
22964.800000	3073.063833	1092.691406	177.079987
22964.800000	3073.063833	1091.548828	293.157043
22964.800000	3073.063833	1090.405273	224.995453
22964.800000	3073.063833	1089.261719	178.393616
22964.800000	3073.063833	1088.118164	185.688278
22964.800000	3073.063833	1086.973633	171.934387
22964.800000	3073.063833	1085.829102	105.049545
22964.800000	3073.063833	1084.684570	194.725021
22964.800000	3073.063833	1083.540039	88.885735
22964.800000	3073.063833	1082.395508	125.845268
22964.800000	3073.063833	1081.250000	81.969719
22964.800000	3073.063833	1080.104492	190.747421
22964.800000	3073.063833	1078.958984	73.197777
22964.800000	3073.063833	1077.812500	80.118439
22964.800000	3073.063833	1076.666016	140.077911
22964.800000	3073.063833	1075.519531	124.252380
22964.800000	3073.063833	1074.373047	33.676628
22964.800000	3073.063833	1073.226563	118.322975
22964.800000	3073.063833	1072.079102	170.681046
22964.800000	3073.063833	1070.931641	61.219215
22964.800000	3073.063833	1069.784180	98.817505
22964.800000	3073.063833	1068.635742	223.194214
22964.800000	3073.063833	1067.487305	160.707474
22964.800000	3073.063833	1066.338867	37.245613
22964.800000	3073.063833	1065.190430	93.998978
22964.800000	3073.063833	1064.041992	252.837860
22964.800000	3073.063833	1062.892578	149.538025
22964.800000	3073.063833	1061.743164	133.048843
22964.800000	3073.063833	1060.593750	166.626587
22964.800000	3073.063833	1059.443359	21.291567
22964.800000	3073.063833	1058.292969	43.596760
22964.800000	3073.063833	1057.142578	54.467152
22964.800000	3073.063833	1055.992188	29.533287
22964.800000	3073.063833	1054.841797	54.539501
22964.800000	3073.063833	1053.690430	-106.732536
22964.800000	3073.063833	1052.539063	0.974151
22964.800000	3073.063833	1051.387695	65.426849
22964.800000	3073.063833	1050.235352	106.942543
22964.800000	3073.063833	1049.083984	14.278932
22964.800000	3073.063833	1047.931641	89.288277
22964.800000	3073.063833	1046.778320	59.349854
22964.800000	3073.063833	1045.625977	92.330406
22964.800000	3073.063833	1044.472656	18.667255
22964.800000	3073.063833	1043.319336	125.840523
22964.800000	3073.063833	1042.166016	97.390221
22964.800000	3073.063833	1041.012695	119.025536
22964.800000	3073.063833	1039.858398	154.013672
22964.800000	3073.063833	1038.704102	139.556320
22964.800000	3073.063833	1037.549805	140.442993
22964.800000	3073.063833	1036.394531	140.335098
22964.800000	3073.063833	1035.239258	155.618744
22964.800000	3073.063833	1034.083984	91.373489
22964.800000	3073.063833	1032.928711	235.322723
22964.800000	3073.063833	1031.773438	257.519623
22964.800000	3073.063833	1030.617188	183.167007
22964.800000	3073.063833	1029.460938	137.614716
22964.800000	3073.063833	1028.304688	235.257263
22964.800000	3073.063833	1027.147461	349.491730
22964.800000	3073.063833	1025.991211	226.215820
22964.800000	3073.063833	1024.833984	151.027359
22964.800000	3073.063833	1023.675781	88.039276
22964.800000	3073.063833	1022.518555	210.262024
22964.800000	3073.063833	1021.360352	165.365036
22964.800000	3073.063833	1020.202148	80.217438
22964.800000	3073.063833	1019.043945	98.207642
22964.800000	3073.063833	1017.884766	71.429054
22964.800000	3073.063833	1016.726563	-92.565643
22964.800000	3073.063833	1015.567383	0.452546
22964.800000	3073.063833	1014.407227	67.496017
22964.800000	3073.063833	1013.248047	105.289703
22964.800000	3073.063833	1012.087891	53.798813
22964.800000	3073.063833	1010.927734	-62.890297
22964.800000	3073.063833	1009.767578	-105.629425
22964.800000	3073.063833	1008.606445	-44.545567
22964.800000	3073.063833	1007.446289	-51.631813
22964.800000	3073.063833	1006.285156	7.869297
22964.800000	3073.063833	1005.123047	22.505798
22964.800000	3073.063833	1003.961914	76.601387
22964.800000	3073.063833	1002.799805	72.136787
22964.800000	3073.063833	1001.637695	25.082321
22964.800000	3073.063833	1000.475586	-32.401104
22964.800000	3073.063833	999.312500	-2.738017
22964.800000	3073.063833	998.149414	7.269277
22964.800000	3073.063833	996.986328	115.050232
22964.800000	3073.063833	995.823242	43.013294
22964.800000	3073.063833	994.659180	34.405010
22964.800000	3073.063833	993.496094	-20.629017
22964.800000	3073.063833	992.332031	46.790977
22964.800000	3073.063833	991.166992	-14.128275
22964.800000	3073.063833	990.002930	-18.734453
22964.800000	3073.063833	988.837891	55.384068
22964.800000	3073.063833	987.672852	-116.114143
22964.800000	3073.063833	986.506836	25.761707
22964.800000	3073.063833	985.341797	47.075939
22964.800000	3073.063833	984.175781	-48.339550
22964.800000	3073.063833	983.009766	-21.022654
22964.800000	3073.063833	981.843750	84.063744
22964.800000	3073.063833	980.676758	-18.667303
22964.800000	3073.063833	979.509766	8.775673
22964.800000	3073.063833	978.342773	9.253268
22964.800000	3073.063833	977.175781	18.776962
22964.800000	3073.063833	976.007813	-37.835224
22964.800000	3073.063833	974.839844	-3.529510
22964.800000	3073.063833	973.671875	-38.464588
22964.800000	3073.063833	972.503906	-92.150703
22964.800000	3073.063833	971.334961	21.223253
22964.800000	3073.063833	970.166016	85.120308
22964.800000	3073.063833	968.997070	59.668148
22964.800000	3073.063833	967.828125	18.259342
22964.800000	3073.063833	966.658203	107.972778
22964.800000	3073.063833	965.488281	-34.821983
22964.800000	3073.063833	964.318359	-12.863222
22964.800000	3073.063833	963.148438	74.231384
22964.800000	3073.063833	961.977539	63.385612
22964.800000	3073.063833	960.806641	56.938091
22964.800000	3073.063833	959.635742	139.688370
22964.800000	3073.063833	958.463867	100.558968
22964.800000	3073.063833	957.292969	96.971886
22964.800000	3073.063833	956.121094	111.738472
22964.800000	3073.063833	954.948242	34.357693
22964.800000	3073.063833	953.776367	-0.551110
22964.800000	3073.063833	952.603516	71.180016
22964.800000	3073.063833	951.430664	11.761622
22964.800000	3073.063833	950.257813	92.307693
22964.800000	3073.063833	949.084961	79.333595
22964.800000	3073.063833	947.911133	92.520752
22964.800000	3073.063833	946.737305	88.171783
22964.800000	3073.063833	945.563477	59.957092
22964.800000	3073.063833	944.388672	120.764839
22964.800000	3073.063833	943.213867	142.047104
22964.800000	3073.063833	942.039063	72.743309
22964.800000	3073.063833	940.864258	18.542631
22964.800000	3073.063833	939.688477	96.546074
22964.800000	3073.063833	938.513672	44.415028
22964.800000	3073.063833	937.337891	-5.413606
22964.800000	3073.063833	936.161133	124.399948
22964.800000	3073.063833	934.985352	63.599159
22964.800000	3073.063833	933.808594	106.790298
22964.800000	3073.063833	932.631836	156.425034
22964.800000	3073.063833	931.454102	108.633850
22964.800000	3073.063833	930.277344	119.262077
22964.800000	3073.063833	929.099609	134.196915
22964.800000	3073.063833	927.921875	157.802414
22964.800000	3073.063833	926.743164	40.718529
22964.800000	3073.063833	925.565430	109.766739
22964.800000	3073.063833	924.386719	55.433517
22964.800000	3073.063833	923.208008	139.576126
22964.800000	3073.063833	922.028320	16.032446
22964.800000	3073.063833	920.849609	0.654308
22964.800000	3073.063833	919.669922	1.029919
22964.800000	3073.063833	919.474609	17.767282
22964.800000	3073.063833	918.309570	67.222229
22964.800000	3073.063833	917.143555	-2.221339
22964.800000	3073.063833	915.977539	38.556053
22964.800000	3073.063833	914.810547	79.308495
22964.800000	3073.063833	913.644531	139.474564
22964.800000	3073.063833	912.477539	39.804195
22964.800000	3073.063833	911.310547	136.641037
22964.800000	3073.063833	910.143555	125.498657
22964.800000	3073.063833	908.975586	120.827393
22964.800000	3073.063833	907.807617	72.995049
22964.800000	3073.063833	906.639648	20.859426
22964.800000	3073.063833	905.471680	-39.890362
22964.800000	3073.063833	904.303711	-14.365762
22964.800000	3073.063833	903.134766	-38.446800
22964.800000	3073.063833	901.965820	-10.792257
22964.800000	3073.063833	900.796875	29.774258
22964.800000	3073.063833	899.626953	1.367811
22964.800000	3073.063833	898.457031	0.970741
22964.800000	3073.063833	897.287109	-42.509117
22964.800000	3073.063833	896.117188	56.143444
22964.800000	3073.063833	894.947266	60.020821
22964.800000	3073.063833	893.776367	57.432369
22964.800000	3073.063833	892.605469	-42.003323
22964.800000	3073.063833	891.434570	50.087635
22964.800000	3073.063833	890.262695	107.716232
22964.800000	3073.063833	889.091797	10.462591
22964.800000	3073.063833	887.919922	-9.346970
22964.800000	3073.063833	886.748047	41.790184
22964.800000	3073.063833	885.575195	71.406746
22964.800000	3073.063833	884.403320	-53.720608
22964.800000	3073.063833	883.230469	-116.495338
22964.800000	3073.063833	882.057617	-93.326424
22964.800000	3073.063833	880.883789	-44.400681
22964.800000	3073.063833	879.710938	-117.891846
22964.800000	3073.063833	878.537109	-107.634338
22964.800000	3073.063833	877.362305	-35.142502
22964.800000	3073.063833	876.188477	-42.083946
22964.800000	3073.063833	875.013672	38.935883
22964.800000	3073.063833	873.839844	66.291618
22964.800000	3073.063833	872.664063	-118.681946
22964.800000	3073.063833	871.489258	-31.279192
22964.800000	3073.063833	870.313477	-16.803371
22964.800000	3073.063833	869.138672	-105.214783
22964.800000	3073.063833	867.962891	-65.025925
22964.800000	3073.063833	866.786133	37.270802
22964.800000	3073.063833	865.610352	-23.267052
22964.800000	3073.063833	864.433594	66.120682
22964.800000	3073.063833	863.256836	-43.652447
22964.800000	3073.063833	862.079102	-37.791420
22964.800000	3073.063833	860.902344	21.567223
22964.800000	3073.063833	859.724609	40.241478
22964.800000	3073.063833	858.546875	-90.848503
22964.800000	3073.063833	857.368164	-31.529562
22964.800000	3073.063833	856.190430	49.144794
22964.800000	3073.063833	855.011719	-34.844151
22964.800000	3073.063833	853.833008	0.899835
22964.800000	3073.063833	852.654297	10.979066
22964.800000	3073.063833	851.474609	44.553238
22964.800000	3073.063833	850.294922	-5.204314
22964.800000	3073.063833	849.115234	24.078493
22964.800000	3073.063833	847.935547	-83.318298
22964.800000	3073.063833	846.754883	63.380207
22964.800000	3073.063833	845.575195	-24.779343
22964.800000	3073.063833	844.393555	0.197171
22964.800000	3073.063833	843.212891	-21.780319
22964.800000	3073.063833	842.032227	-7.489656
22964.800000	3073.063833	840.850586	-97.713089
22964.800000	3073.063833	839.668945	33.854313
22964.800000	3073.063833	838.486328	-22.240120
22964.800000	3073.063833	837.304688	-1.585215
22964.800000	3073.063833	836.122070	-0.122209
22964.800000	3073.063833	834.939453	58.860092
22964.800000	3073.063833	833.756836	-20.642973
22964.800000	3073.063833	832.573242	-51.135620
22964.800000	3073.063833	831.389648	22.711023
22964.800000	3073.063833	830.206055	-16.302774
22964.800000	3073.063833	829.022461	2.159872
22964.800000	3073.063833	827.838867	-2.796819
22964.800000	3073.063833	826.654297	62.450100
22964.800000	3073.063833	825.469727	17.059837
22964.800000	3073.063833	824.284180	86.519096
22964.800000	3073.063833	823.099609	138.935394
22964.800000	3073.063833	821.914063	174.319550
22964.800000	3073.063833	820.728516	16.283880
22964.800000	3073.063833	819.542969	70.791969
22964.800000	3073.063833	818.356445	48.793873
22964.800000	3073.063833	817.169922	-19.927408
22964.800000	3073.063833	815.983398	-56.772808
22964.800000	3073.063833	814.796875	-19.300240
22964.800000	3073.063833	813.609375	-7.320653
22964.800000	3073.063833	812.422852	-73.872711
22964.800000	3073.063833	811.235352	3.877301
22964.800000	3073.063833	810.046875	-13.870502
22964.800000	3073.063833	808.859375	-44.341526
22964.800000	3073.063833	807.670898	43.939266
22964.800000	3073.063833	806.482422	-39.543205
22964.800000	3073.063833	805.293945	35.971249
22964.800000	3073.063833	804.104492	-66.559082
22964.800000	3073.063833	802.915039	-75.830429
22964.800000	3073.063833	801.725586	-63.921215
22964.800000	3073.063833	800.536133	-71.083229
22964.800000	3073.063833	799.345703	-120.596733
22964.800000	3073.063833	798.155273	-81.184059
22964.800000	3073.063833	796.964844	49.215755
22964.800000	3073.063833	795.774414	6.037455
22964.800000	3073.063833	794.583008	34.802013
22964.800000	3073.063833	793.392578	-4.138226
22964.800000	3073.063833	792.200195	-15.577371
22964.800000	3073.063833	791.008789	-5.875282
22964.800000	3073.063833	789.816406	-13.095422
22964.800000	3073.063833	788.625000	-30.886393
22964.800000	3073.063833	787.432617	103.459076
22964.800000	3073.063833	786.239258	41.272907
22964.800000	3073.063833	785.046875	154.412155
22964.800000	3073.063833	783.853516	178.805969
22964.800000	3073.063833	782.660156	125.066063
22964.800000	3073.063833	781.465820	-15.202675
22964.800000	3073.063833	780.272461	49.286049
22964.800000	3073.063833	779.078125	12.462800
22964.800000	3073.063833	777.883789	-11.695697
22964.800000	3073.063833	776.688477	44.292133
22964.800000	3073.063833	775.494141	55.967754
22964.800000	3073.063833	774.298828	61.305874
22964.800000	3073.063833	773.103516	-26.107391
22964.800000	3073.063833	771.907227	-48.166218
22964.800000	3073.063833	770.711914	-7.017575
22964.800000	3073.063833	769.515625	50.956509
22964.800000	3073.063833	768.318359	12.022034
22964.800000	3073.063833	767.122070	-83.754547
22964.800000	3073.063833	765.924805	-2.670580
22964.800000	3073.063833	764.727539	-71.061050
22964.800000	3073.063833	763.530273	24.698704
22964.800000	3073.063833	762.333008	-96.282021
22964.800000	3073.063833	761.134766	-0.575200
22964.800000	3073.063833	759.936523	-24.784344
22964.800000	3073.063833	758.738281	39.312145
22964.800000	3073.063833	757.540039	-14.342463
22964.800000	3073.063833	756.340820	-46.968361
22964.800000	3073.063833	755.141602	-8.150229
22964.800000	3073.063833	753.942383	-53.387417
22964.800000	3073.063833	752.742188	-60.810539
22964.800000	3073.063833	751.541992	28.353413
22964.800000	3073.063833	750.341797	18.797476
22964.800000	3073.063833	749.141602	-78.922279
22964.800000	3073.063833	747.941406	77.313454
22964.800000	3073.063833	746.740234	-58.164310
22964.800000	3073.063833	745.539063	-23.684076
22964.800000	3073.063833	744.337891	48.521900
22964.800000	3073.063833	743.135742	32.621048
22964.800000	3073.063833	741.933594	-16.825470
22964.800000	3073.063833	740.731445	51.109764
22964.800000	3073.063833	739.529297	72.905441
22964.800000	3073.063833	738.326172	86.300735
22964.800000	3073.063833	737.124023	-5.050844
22964.800000	3073.063833	735.919922	-37.739273
22964.800000	3073.063833	734.716797	203.855560
22964.800000	3073.063833	733.513672	215.075134
22964.800000	3073.063833	732.309570	132.099258
22964.800000	3073.063833	731.105469	137.028976
22964.800000	3073.063833	729.900391	79.185211
22964.800000	3073.063833	728.696289	88.284340
22964.800000	3073.063833	727.491211	63.909897
22964.800000	3073.063833	726.286133	3.992810
22964.800000	3073.063833	725.080078	44.420124
22964.800000	3073.063833	723.874023	124.525139
22964.800000	3073.063833	722.668945	-21.065611
22964.800000	3073.063833	721.461914	46.462151
22964.800000	3073.063833	720.255859	118.127563
22964.800000	3073.063833	719.048828	93.700073
22964.800000	3073.063833	717.841797	92.234711
22964.800000	3073.063833	716.634766	57.363033
22964.800000	3073.063833	715.427734	14.147266
22964.800000	3073.063833	714.219727	-47.839577
22964.800000	3073.063833	713.011719	38.283756
22964.800000	3073.063833	711.803711	-40.389744
22964.800000	3073.063833	710.594727	64.436310
22964.800000	3073.063833	709.385742	21.202766
22964.800000	3073.063833	708.176758	69.676460
22964.800000	3073.063833	706.967773	99.364700
22964.800000	3073.063833	705.758789	131.111221
22964.800000	3073.063833	704.548828	67.022675
22964.800000	3073.063833	703.338867	5.030954
22964.800000	3073.063833	702.127930	32.575462
22964.800000	3073.063833	700.917969	30.955833
22964.800000	3073.063833	699.707031	70.945412
22964.800000	3073.063833	698.496094	187.888733
22964.800000	3073.063833	697.285156	117.553871
22964.800000	3073.063833	696.073242	142.904129
22964.800000	3073.063833	694.861328	182.786743
22964.800000	3073.063833	693.649414	131.169785
22964.800000	3073.063833	692.436523	183.483307
22964.800000	3073.063833	691.224609	231.607437
22964.800000	3073.063833	690.011719	123.880852
22964.800000	3073.063833	688.798828	36.958721
22964.800000	3073.063833	687.584961	114.118752
22964.800000	3073.063833	686.372070	114.413780
22964.800000	3073.063833	685.158203	154.136246
22964.800000	3073.063833	683.943359	212.507385
22964.800000	3073.063833	682.729492	470.037567
22964.800000	3073.063833	681.514648	578.081726
22964.800000	3073.063833	680.299805	601.031738
22964.800000	3073.063833	679.084961	538.941284
22964.800000	3073.063833	677.869141	451.985626
22964.800000	3073.063833	676.653320	354.691040
22964.800000	3073.063833	675.437500	367.258820
22964.800000	3073.063833	674.221680	265.856049
22964.800000	3073.063833	673.004883	162.411972
22964.800000	3073.063833	671.789063	170.835648
22964.800000	3073.063833	670.571289	55.007683
22964.800000	3073.063833	669.354492	88.268593
22964.800000	3073.063833	668.136719	96.666740
22964.800000	3073.063833	666.919922	51.250404
22964.800000	3073.063833	665.701172	20.321772
22964.800000	3073.063833	664.483398	82.474136
22964.800000	3073.063833	663.264648	-87.023003
22964.800000	3073.063833	662.045898	90.884750
22964.800000	3073.063833	660.827148	126.077629
22964.800000	3073.063833	659.608398	20.712749
22964.800000	3073.063833	658.388672	31.089199
22964.800000	3073.063833	657.168945	-18.456612
22964.800000	3073.063833	655.949219	-8.096909
22964.800000	3073.063833	654.728516	159.180527
22964.800000	3073.063833	653.507813	111.672340
22964.800000	3073.063833	652.287109	-30.770975
22964.800000	3073.063833	651.066406	-26.648041
22964.800000	3073.063833	649.844727	82.683716
22964.800000	3073.063833	648.623047	57.883049
22964.800000	3073.063833	647.401367	20.709652
22964.800000	3073.063833	646.179688	144.368042
22964.800000	3073.063833	644.957031	152.524704
22964.800000	3073.063833	643.734375	80.290833
22964.800000	3073.063833	642.511719	51.350693
22964.800000	3073.063833	641.289063	168.682495
22964.800000	3073.063833	640.065430	108.823349
22964.800000	3073.063833	638.841797	16.033878
22964.800000	3073.063833	637.618164	17.981039
22964.800000	3073.063833	636.393555	190.762955
22964.800000	3073.063833	635.168945	198.830002
22964.800000	3073.063833	633.944336	29.942141
22964.800000	3073.063833	632.719727	35.968987
22964.800000	3073.063833	631.494141	83.117790
22964.800000	3073.063833	630.269531	68.555748
22964.800000	3073.063833	629.042969	167.057739
22964.800000	3073.063833	627.817383	64.092033
22964.800000	3073.063833	626.590820	-30.617294
22964.800000	3073.063833	625.365234	115.079201
22964.800000	3073.063833	624.137695	69.683403
22964.800000	3073.063833	622.911133	110.553284
22964.800000	3073.063833	621.683594	44.636311
22964.800000	3073.063833	620.456055	44.429340
22964.800000	3073.063833	619.228516	97.577156
22964.800000	3073.063833	618.000977	31.692320
22964.800000	3073.063833	616.772461	93.016754
22964.800000	3073.063833	615.543945	55.865459
22964.800000	3073.063833	614.314453	55.635139
22964.800000	3073.063833	613.085938	63.603252
22964.800000	3073.063833	611.856445	104.358604
22964.800000	3073.063833	610.626953	-12.695406
22964.800000	3073.063833	609.397461	-12.921536
22964.800000	3073.063833	608.166992	-33.634007
22964.800000	3073.063833	606.936523	-33.860073
22964.800000	3073.063833	605.706055	-72.989586
22964.800000	3073.063833	604.474609	-46.599205
22964.800000	3073.063833	603.244141	204.907166
22964.800000	3073.063833	602.012695	110.501877
22964.800000	3073.063833	600.780273	136.833923
22964.800000	3073.063833	599.548828	73.162727
22964.800000	3073.063833	598.316406	138.344452
22964.800000	3073.063833	597.083984	58.344788
22964.800000	3073.063833	595.851563	-3.223910
22964.800000	3073.063833	594.618164	16.976030
22964.800000	3073.063833	593.384766	-64.987167
22964.800000	3073.063833	592.151367	-93.803383
22964.800000	3073.063833	590.917969	8.099477
22964.800000	3073.063833	589.683594	42.580086
22964.800000	3073.063833	588.449219	75.007446
22964.800000	3073.063833	587.214844	13.540813
22964.800000	3073.063833	585.979492	-15.249215
22964.800000	3073.063833	584.745117	-23.621067
22964.800000	3073.063833	583.509766	35.322021
22964.800000	3073.063833	582.273438	-101.520943
22964.800000	3073.063833	581.038086	8.392617
22964.800000	3073.063833	579.801758	-75.379387
22964.800000	3073.063833	578.565430	-97.973091
22964.800000	3073.063833	577.329102	17.997055
22964.800000	3073.063833	576.091797	-47.373634
22964.800000	3073.063833	574.854492	-53.648579
22964.800000	3073.063833	573.617188	-17.154612
22964.800000	3073.063833	572.378906	-35.635040
22964.800000	3073.063833	571.141602	29.348370
22964.800000	3073.063833	569.903320	10.880965
22964.800000	3073.063833	568.664063	61.599060
22964.800000	3073.063833	567.425781	61.455242
22964.800000	3073.063833	566.186523	51.151112
22964.800000	3073.063833	564.947266	-77.061378
22964.800000	3073.063833	563.708008	-42.594048
22964.800000	3073.063833	562.467773	30.480015
22964.800000	3073.063833	561.227539	20.227671
22964.800000	3073.063833	559.987305	148.124786
22964.800000	3073.063833	558.747070	56.634071
22964.800000	3073.063833	557.505859	91.084770
22964.800000	3073.063833	556.264648	66.658951
22964.800000	3073.063833	555.023438	7.750914
22964.800000	3073.063833	553.781250	115.274918
22964.800000	3073.063833	552.539063	226.822144
22964.800000	3073.063833	551.296875	80.732948
22964.800000	3073.063833	550.054688	171.985352
22964.800000	3073.063833	548.811523	182.111084
22964.800000	3073.063833	547.569336	72.650002
22964.800000	3073.063833	546.325195	135.509735
22964.800000	3073.063833	545.082031	137.571457
22964.800000	3073.063833	543.837891	155.850754
22964.800000	3073.063833	542.593750	151.857864
22964.800000	3073.063833	541.349609	218.751450
22964.800000	3073.063833	540.105469	348.388885
22964.800000	3073.063833	538.860352	180.453766
22964.800000	3073.063833	537.615234	273.647675
22964.800000	3073.063833	536.369141	320.283112
22964.800000	3073.063833	535.124023	322.414795
22964.800000	3073.063833	533.877930	310.403870
22964.800000	3073.063833	532.631836	342.894501
22964.800000	3073.063833	531.384766	126.751663
22964.800000	3073.063833	530.138672	197.697433
22964.800000	3073.063833	528.891602	147.395004
22964.800000	3073.063833	527.643555	190.054520
22964.800000	3073.063833	526.396484	20.646212
22964.800000	3073.063833	525.148438	49.212246
22964.800000	3073.063833	523.900391	81.819923
22964.800000	3073.063833	522.652344	-30.893497
22964.800000	3073.063833	521.403320	-16.412102
22964.800000	3073.063833	520.154297	-72.533432
22964.800000	3073.063833	518.905273	-41.879768
22964.800000	3073.063833	517.656250	-3.155950
22964.800000	3073.063833	516.406250	-28.952024
22964.800000	3073.063833	515.156250	-86.972862
22964.800000	3073.063833	513.906250	-150.998291
22964.800000	3073.063833	512.655273	-92.070503
22964.800000	3073.063833	511.404297	-55.310734
22964.800000	3073.063833	510.153320	-32.648991
22964.800000	3073.063833	508.902344	-92.538994
22964.800000	3073.063833	507.650391	-91.992195
22964.800000	3073.063833	506.398438	-97.467590
22964.800000	3073.063833	505.146484	-0.296627
22964.800000	3073.063833	503.893555	-78.186340
22964.800000	3073.063833	502.641602	95.405220
22964.800000	3073.063833	501.388672	59.790703
22964.800000	3073.063833	500.134766	102.619080
22964.800000	3073.063833	498.881836	171.576447
22964.800000	3073.063833	497.627930	222.430801
22964.800000	3073.063833	496.374023	281.314911
22964.800000	3073.063833	495.119141	340.186981
22964.800000	3073.063833	493.865234	280.550812
22964.800000	3073.063833	492.610352	331.392883
22964.800000	3073.063833	491.355469	201.545547
22964.800000	3073.063833	490.099609	69.758926
22964.800000	3073.063833	488.843750	114.630707
22964.800000	3073.063833	487.587891	0.999772
22964.800000	3073.063833	486.332031	9.784823
22964.800000	3073.063833	485.075195	-41.585369
22964.800000	3073.063833	483.818359	-46.809181
22964.800000	3073.063833	482.561523	-60.039280
22964.800000	3073.063833	481.304688	95.089943
22964.800000	3073.063833	480.046875	53.800629
22964.800000	3073.063833	478.789063	-5.492456
22964.800000	3073.063833	477.531250	-20.691126
22964.800000	3073.063833	476.272461	30.201347
22964.800000	3073.063833	475.013672	81.077400
22964.800000	3073.063833	473.754883	87.902794
22964.800000	3073.063833	472.496094	58.710163
22964.800000	3073.063833	471.236328	7.525418
22964.800000	3073.063833	469.976563	48.375362
22964.800000	3073.063833	468.716797	-116.768997
22964.800000	3073.063833	467.456055	-15.927999
22964.800000	3073.063833	466.196289	-9.080227
22964.800000	3073.063833	464.935547	81.699379
22964.800000	3073.063833	463.673828	128.479568
22964.800000	3073.063833	462.413086	109.314362
22964.800000	3073.063833	461.151367	108.126740
22964.800000	3073.063833	459.889648	25.066259
22964.800000	3073.063833	458.626953	-39.999035
22964.800000	3073.063833	457.364258	-13.233386
22964.800000	3073.063833	456.101563	53.420250
22964.800000	3073.063833	454.838867	-9.643717
22964.800000	3073.063833	453.575195	-40.779606
22964.800000	3073.063833	452.312500	11.839559
22964.800000	3073.063833	451.047852	26.538246
22964.800000	3073.063833	449.784180	-72.405052
22964.800000	3073.063833	448.519531	-11.893868
22964.800000	3073.063833	447.254883	-5.225303
22964.800000	3073.063833	445.990234	41.258652
22964.800000	3073.063833	444.725586	35.917366
22964.800000	3073.063833	443.459961	54.446327
22964.800000	3073.063833	442.194336	33.125202
22964.800000	3073.063833	440.927734	-4.138757
22964.800000	3073.063833	439.662109	-11.569267
22964.800000	3073.063833	438.395508	40.652832
22964.800000	3073.063833	437.127930	66.959282
22964.800000	3073.063833	435.861328	61.400520
22964.800000	3073.063833	434.593750	18.029278
22964.800000	3073.063833	433.326172	12.401867
22964.800000	3073.063833	432.058594	2.757992
22964.800000	3073.063833	430.790039	-10.902267
22964.800000	3073.063833	429.521484	19.095976
22964.800000	3073.063833	428.252930	53.002258
22964.800000	3073.063833	426.984375	190.089264
22964.800000	3073.063833	425.714844	241.698944
22964.800000	3073.063833	424.445313	188.038071
22964.800000	3073.063833	423.174805	142.275055
22964.800000	3073.063833	421.905273	165.902893
22964.800000	3073.063833	420.634766	183.501846
22964.800000	3073.063833	419.364258	191.108185
22964.800000	3073.063833	418.092773	238.288040
22964.800000	3073.063833	416.822266	229.872940
22964.800000	3073.063833	415.550781	255.069641
22964.800000	3073.063833	414.278320	191.014709
22964.800000	3073.063833	413.006836	150.673141
22964.800000	3073.063833	411.734375	205.317734
22964.800000	3073.063833	410.461914	115.308197
22964.800000	3073.063833	409.188477	165.787552
22964.800000	3073.063833	407.916016	69.692726
22964.800000	3073.063833	406.642578	82.362328
22964.800000	3073.063833	405.368164	110.743393
22964.800000	3073.063833	404.094727	-54.823586
22964.800000	3073.063833	402.820313	54.423092
22964.800000	3073.063833	401.545898	31.046469
22964.800000	3073.063833	400.270508	33.250217
22964.800000	3073.063833	398.996094	53.113739
22964.800000	3073.063833	397.720703	64.932106
22964.800000	3073.063833	396.444336	-22.154898
22964.800000	3073.063833	395.168945	-14.549952
22964.800000	3073.063833	393.892578	-1.171986
22964.800000	3073.063833	392.616211	-5.714472
22964.800000	3073.063833	391.339844	84.321465
22964.800000	3073.063833	390.062500	85.366959
22964.800000	3073.063833	388.785156	-6.466967
22964.800000	3073.063833	387.507813	10.044623
22964.800000	3073.063833	386.229492	65.808998
22964.800000	3073.063833	384.951172	34.629185
22964.800000	3073.063833	383.672852	109.711746
22964.800000	3073.063833	382.394531	143.191391
22964.800000	3073.063833	381.115234	70.072357
22964.800000	3073.063833	379.835938	16.482035
22964.800000	3073.063833	378.556641	126.157364
22964.800000	3073.063833	377.277344	186.353043
22964.800000	3073.063833	375.997070	114.418678
22964.800000	3073.063833	374.716797	30.484571
22964.800000	3073.063833	373.435547	27.021864
22964.800000	3073.063833	372.155273	-21.913315
22964.800000	3073.063833	370.874023	37.093380
22964.800000	3073.063833	369.591797	80.090607
22964.800000	3073.063833	368.310547	-18.718973
22964.800000	3073.063833	367.028320	-9.656115
22964.800000	3073.063833	365.746094	34.504425
22964.800000	3073.063833	364.463867	66.583405
22964.800000	3073.063833	363.180664	-68.589386
22964.800000	3073.063833	361.897461	-21.369740
22964.800000	3073.063833	360.614258	58.908695
22964.800000	3073.063833	359.330078	-27.999277
22964.800000	3073.063833	358.045898	-44.534130
22964.800000	3073.063833	356.761719	1.402516
22964.800000	3073.063833	355.477539	48.954575
22964.800000	3073.063833	354.192383	64.765778
22964.800000	3073.063833	352.907227	-23.689093
22964.800000	3073.063833	351.622070	89.451523
22964.800000	3073.063833	350.336914	-5.558355
22964.800000	3073.063833	349.050781	14.702498
22964.800000	3073.063833	347.764648	-55.534267
22964.800000	3073.063833	346.477539	34.466911
22964.800000	3073.063833	345.191406	-7.148396
22964.800000	3073.063833	343.904297	62.431229
22964.800000	3073.063833	342.616211	-44.595837
22964.800000	3073.063833	341.329102	-163.726410
22964.800000	3073.063833	340.041016	8.260521
22964.800000	3073.063833	338.752930	-64.765297
22964.800000	3073.063833	337.463867	-52.175217
22964.800000	3073.063833	336.175781	22.527685
22964.800000	3073.063833	334.886719	-69.433380
22964.800000	3073.063833	333.596680	4.268494
22964.800000	3073.063833	332.307617	-63.215015
22964.800000	3073.063833	331.017578	-129.228455
22964.800000	3073.063833	329.727539	7.390303
22964.800000	3073.063833	328.436523	-53.796410
22964.800000	3073.063833	327.146484	7.513221
22964.800000	3073.063833	325.855469	31.156296
22964.800000	3073.063833	324.563477	-97.981880
22964.800000	3073.063833	323.272461	-26.672005
22964.800000	3073.063833	321.980469	-14.499320
22964.800000	3073.063833	320.688477	-6.819540
22964.800000	3073.063833	319.395508	-38.752331
22964.800000	3073.063833	318.103516	-20.586279
22964.800000	3073.063833	316.810547	26.160992
22964.800000	3073.063833	315.516602	70.284897
22964.800000	3073.063833	314.223633	4.677854
22964.800000	3073.063833	312.929688	117.586266
22964.800000	3073.063833	311.635742	159.677216
22964.800000	3073.063833	310.340820	160.163193
22964.800000	3073.063833	309.045898	19.822758
22964.800000	3073.063833	307.750977	149.291092
22964.800000	3073.063833	306.456055	186.545044
22964.800000	3073.063833	305.160156	158.836761
22964.800000	3073.063833	303.865234	23.462290
22964.800000	3073.063833	302.568359	188.660721
22964.800000	3073.063833	301.272461	148.946213
22964.800000	3073.063833	299.975586	186.154892
22964.800000	3073.063833	298.678711	166.194214
