#X		#Y		#Wave		#Intensity
30895.713457	1192.641500	1999.980469	-12.292709
30895.713457	1192.641500	1999.016602	66.395836
30895.713457	1192.641500	1998.052734	-149.208527
30895.713457	1192.641500	1997.087891	-70.104660
30895.713457	1192.641500	1996.123047	-172.167801
30895.713457	1192.641500	1995.158203	-21.777834
30895.713457	1192.641500	1994.193359	39.139820
30895.713457	1192.641500	1993.228516	92.361229
30895.713457	1192.641500	1992.262695	21.537813
30895.713457	1192.641500	1991.297852	-148.510010
30895.713457	1192.641500	1990.332031	97.070839
30895.713457	1192.641500	1989.366211	8.291677
30895.713457	1192.641500	1988.399414	99.940170
30895.713457	1192.641500	1987.433594	104.772537
30895.713457	1192.641500	1986.466797	-93.383377
30895.713457	1192.641500	1985.500977	71.813652
30895.713457	1192.641500	1984.534180	9.328585
30895.713457	1192.641500	1983.567383	-107.690575
30895.713457	1192.641500	1982.599609	170.561432
30895.713457	1192.641500	1981.632813	43.331112
30895.713457	1192.641500	1980.665039	-42.016685
30895.713457	1192.641500	1979.697266	186.182877
30895.713457	1192.641500	1978.729492	51.143791
30895.713457	1192.641500	1977.761719	9.827951
30895.713457	1192.641500	1976.792969	136.245987
30895.713457	1192.641500	1975.825195	-38.621555
30895.713457	1192.641500	1974.856445	225.675034
30895.713457	1192.641500	1973.887695	171.488815
30895.713457	1192.641500	1972.918945	132.000305
30895.713457	1192.641500	1971.949219	38.154503
30895.713457	1192.641500	1970.980469	-50.839321
30895.713457	1192.641500	1970.010742	-70.879425
30895.713457	1192.641500	1969.041016	118.494225
30895.713457	1192.641500	1968.071289	-197.498306
30895.713457	1192.641500	1967.101563	6.416132
30895.713457	1192.641500	1966.130859	-50.962769
30895.713457	1192.641500	1965.161133	100.944992
30895.713457	1192.641500	1964.190430	-20.628822
30895.713457	1192.641500	1963.219727	-43.754951
30895.713457	1192.641500	1962.249023	16.745527
30895.713457	1192.641500	1961.277344	99.300308
30895.713457	1192.641500	1960.306641	-91.384315
30895.713457	1192.641500	1959.334961	96.813293
30895.713457	1192.641500	1958.363281	68.415092
30895.713457	1192.641500	1957.391602	3.077072
30895.713457	1192.641500	1956.419922	-67.212349
30895.713457	1192.641500	1955.447266	32.100574
30895.713457	1192.641500	1954.474609	148.530365
30895.713457	1192.641500	1953.501953	28.947533
30895.713457	1192.641500	1952.529297	-51.324894
30895.713457	1192.641500	1951.556641	158.266510
30895.713457	1192.641500	1950.583984	109.844444
30895.713457	1192.641500	1949.610352	46.667427
30895.713457	1192.641500	1948.636719	84.141411
30895.713457	1192.641500	1947.663086	-69.904617
30895.713457	1192.641500	1946.689453	19.051611
30895.713457	1192.641500	1945.715820	29.421459
30895.713457	1192.641500	1944.741211	49.572796
30895.713457	1192.641500	1943.767578	37.803429
30895.713457	1192.641500	1942.792969	35.823883
30895.713457	1192.641500	1941.818359	-2.957260
30895.713457	1192.641500	1940.842773	-7.422498
30895.713457	1192.641500	1939.868164	-97.692574
30895.713457	1192.641500	1938.892578	111.032936
30895.713457	1192.641500	1937.916992	-106.668152
30895.713457	1192.641500	1936.941406	190.144211
30895.713457	1192.641500	1935.965820	168.425629
30895.713457	1192.641500	1934.990234	234.864029
30895.713457	1192.641500	1934.013672	-29.263945
30895.713457	1192.641500	1933.037109	29.824379
30895.713457	1192.641500	1932.060547	44.828979
30895.713457	1192.641500	1931.083984	-55.185959
30895.713457	1192.641500	1930.107422	-57.306709
30895.713457	1192.641500	1929.129883	104.457893
30895.713457	1192.641500	1928.153320	163.443649
30895.713457	1192.641500	1927.175781	-0.106112
30895.713457	1192.641500	1926.198242	80.877075
30895.713457	1192.641500	1925.219727	105.612190
30895.713457	1192.641500	1924.242188	-13.845460
30895.713457	1192.641500	1923.263672	-262.754669
30895.713457	1192.641500	1922.285156	30.755516
30895.713457	1192.641500	1921.306641	-61.746822
30895.713457	1192.641500	1920.328125	50.916660
30895.713457	1192.641500	1919.349609	7.284140
30895.713457	1192.641500	1918.370117	32.023018
30895.713457	1192.641500	1917.391602	-16.459723
30895.713457	1192.641500	1916.412109	-113.722466
30895.713457	1192.641500	1915.431641	-101.155418
30895.713457	1192.641500	1914.452148	1.666305
30895.713457	1192.641500	1913.472656	38.609615
30895.713457	1192.641500	1912.492188	85.298737
30895.713457	1192.641500	1911.511719	58.841919
30895.713457	1192.641500	1910.531250	39.715431
30895.713457	1192.641500	1909.550781	81.528328
30895.713457	1192.641500	1908.569336	23.435970
30895.713457	1192.641500	1907.588867	11.659245
30895.713457	1192.641500	1906.607422	46.171284
30895.713457	1192.641500	1905.625977	-138.485367
30895.713457	1192.641500	1904.644531	8.055493
30895.713457	1192.641500	1903.662109	40.139534
30895.713457	1192.641500	1902.680664	-47.035076
30895.713457	1192.641500	1901.698242	-56.302895
30895.713457	1192.641500	1900.715820	34.188969
30895.713457	1192.641500	1899.733398	-118.587967
30895.713457	1192.641500	1898.750000	78.904236
30895.713457	1192.641500	1897.767578	-3.294682
30895.713457	1192.641500	1896.784180	-90.317680
30895.713457	1192.641500	1895.800781	60.898403
30895.713457	1192.641500	1894.817383	-35.811279
30895.713457	1192.641500	1893.833984	83.765343
30895.713457	1192.641500	1892.850586	91.558113
30895.713457	1192.641500	1891.866211	-82.806786
30895.713457	1192.641500	1890.881836	-74.975334
30895.713457	1192.641500	1889.897461	-130.267288
30895.713457	1192.641500	1888.913086	-136.984833
30895.713457	1192.641500	1887.927734	-112.145897
30895.713457	1192.641500	1886.943359	0.042771
30895.713457	1192.641500	1885.958008	-89.172028
30895.713457	1192.641500	1884.972656	112.723236
30895.713457	1192.641500	1883.987305	-78.331055
30895.713457	1192.641500	1883.001953	26.501959
30895.713457	1192.641500	1882.015625	-89.311371
30895.713457	1192.641500	1881.029297	56.690159
30895.713457	1192.641500	1880.042969	-143.902267
30895.713457	1192.641500	1879.056641	-53.673229
30895.713457	1192.641500	1878.070313	63.167152
30895.713457	1192.641500	1877.083984	-42.860767
30895.713457	1192.641500	1876.096680	-51.991402
30895.713457	1192.641500	1875.109375	-286.281708
30895.713457	1192.641500	1874.122070	116.134796
30895.713457	1192.641500	1873.134766	0.480102
30895.713457	1192.641500	1872.146484	56.662285
30895.713457	1192.641500	1871.159180	8.788804
30895.713457	1192.641500	1870.170898	-89.868881
30895.713457	1192.641500	1869.182617	-65.161240
30895.713457	1192.641500	1868.194336	-45.307274
30895.713457	1192.641500	1867.205078	-20.635794
30895.713457	1192.641500	1866.216797	-24.987076
30895.713457	1192.641500	1865.227539	-80.095161
30895.713457	1192.641500	1864.238281	-45.799274
30895.713457	1192.641500	1863.249023	-55.010368
30895.713457	1192.641500	1862.259766	-71.476303
30895.713457	1192.641500	1861.269531	85.909538
30895.713457	1192.641500	1860.279297	30.764977
30895.713457	1192.641500	1859.290039	-65.408821
30895.713457	1192.641500	1858.298828	50.812050
30895.713457	1192.641500	1857.308594	171.798431
30895.713457	1192.641500	1856.318359	-124.634605
30895.713457	1192.641500	1855.327148	85.545219
30895.713457	1192.641500	1854.335938	177.460175
30895.713457	1192.641500	1853.344727	-99.578079
30895.713457	1192.641500	1852.353516	35.686470
30895.713457	1192.641500	1851.362305	76.879929
30895.713457	1192.641500	1850.370117	-2.452839
30895.713457	1192.641500	1849.377930	43.502907
30895.713457	1192.641500	1848.385742	115.913315
30895.713457	1192.641500	1847.393555	-16.442175
30895.713457	1192.641500	1846.401367	284.652863
30895.713457	1192.641500	1845.408203	371.341339
30895.713457	1192.641500	1844.415039	51.181225
30895.713457	1192.641500	1843.421875	27.119963
30895.713457	1192.641500	1842.428711	-47.490761
30895.713457	1192.641500	1841.435547	53.509354
30895.713457	1192.641500	1840.441406	84.687347
30895.713457	1192.641500	1839.448242	-23.654436
30895.713457	1192.641500	1838.454102	7.459723
30895.713457	1192.641500	1837.459961	223.624680
30895.713457	1192.641500	1836.464844	103.195473
30895.713457	1192.641500	1835.470703	-55.671318
30895.713457	1192.641500	1834.475586	-60.756065
30895.713457	1192.641500	1833.480469	30.204695
30895.713457	1192.641500	1832.485352	3.414742
30895.713457	1192.641500	1831.490234	60.634987
30895.713457	1192.641500	1830.495117	300.244995
30895.713457	1192.641500	1829.499023	83.678200
30895.713457	1192.641500	1828.502930	-24.858896
30895.713457	1192.641500	1827.506836	200.109009
30895.713457	1192.641500	1826.510742	17.138765
30895.713457	1192.641500	1825.513672	119.604042
30895.713457	1192.641500	1824.517578	90.098885
30895.713457	1192.641500	1823.520508	-68.909363
30895.713457	1192.641500	1822.523438	-172.771988
30895.713457	1192.641500	1821.526367	128.385757
30895.713457	1192.641500	1820.529297	206.537750
30895.713457	1192.641500	1819.531250	193.572571
30895.713457	1192.641500	1818.533203	5.708007
30895.713457	1192.641500	1817.535156	57.344704
30895.713457	1192.641500	1816.537109	82.572777
30895.713457	1192.641500	1815.539063	153.222595
30895.713457	1192.641500	1814.540039	171.135147
30895.713457	1192.641500	1813.541992	-16.808731
30895.713457	1192.641500	1812.542969	-56.399517
30895.713457	1192.641500	1811.543945	124.042397
30895.713457	1192.641500	1810.543945	-54.389210
30895.713457	1192.641500	1809.544922	11.094626
30895.713457	1192.641500	1808.544922	28.679138
30895.713457	1192.641500	1807.544922	-23.118908
30895.713457	1192.641500	1806.544922	285.909821
30895.713457	1192.641500	1805.544922	155.115845
30895.713457	1192.641500	1804.544922	76.868141
30895.713457	1192.641500	1803.543945	-111.283768
30895.713457	1192.641500	1802.542969	65.943344
30895.713457	1192.641500	1801.541992	40.098209
30895.713457	1192.641500	1800.541016	152.654404
30895.713457	1192.641500	1799.539063	55.073841
30895.713457	1192.641500	1798.538086	129.278198
30895.713457	1192.641500	1797.536133	84.099014
30895.713457	1192.641500	1796.534180	198.690033
30895.713457	1192.641500	1795.532227	150.999985
30895.713457	1192.641500	1794.529297	205.790817
30895.713457	1192.641500	1793.527344	-4.123522
30895.713457	1192.641500	1792.524414	129.198792
30895.713457	1192.641500	1791.521484	128.951401
30895.713457	1192.641500	1790.518555	121.488876
30895.713457	1192.641500	1789.514648	128.250626
30895.713457	1192.641500	1788.511719	208.778336
30895.713457	1192.641500	1787.507813	-8.455480
30895.713457	1192.641500	1786.503906	-11.402794
30895.713457	1192.641500	1785.500000	133.162582
30895.713457	1192.641500	1784.496094	-17.504353
30895.713457	1192.641500	1783.491211	-132.497696
30895.713457	1192.641500	1782.486328	-73.850639
30895.713457	1192.641500	1781.481445	-46.218781
30895.713457	1192.641500	1780.476563	40.783787
30895.713457	1192.641500	1779.471680	-29.245098
30895.713457	1192.641500	1778.465820	76.589935
30895.713457	1192.641500	1777.460938	108.636879
30895.713457	1192.641500	1776.455078	59.799980
30895.713457	1192.641500	1775.449219	58.425037
30895.713457	1192.641500	1774.442383	23.717245
30895.713457	1192.641500	1773.436523	79.200005
30895.713457	1192.641500	1772.429688	96.591515
30895.713457	1192.641500	1771.422852	52.176380
30895.713457	1192.641500	1770.416016	31.439754
30895.713457	1192.641500	1769.409180	-79.543335
30895.713457	1192.641500	1768.402344	63.317760
30895.713457	1192.641500	1767.394531	-83.368835
30895.713457	1192.641500	1766.386719	47.424068
30895.713457	1192.641500	1765.378906	-142.039490
30895.713457	1192.641500	1764.371094	-1.953474
30895.713457	1192.641500	1763.362305	-25.563021
30895.713457	1192.641500	1762.354492	-27.904079
30895.713457	1192.641500	1761.345703	83.412025
30895.713457	1192.641500	1760.336914	-56.514748
30895.713457	1192.641500	1759.328125	-4.604361
30895.713457	1192.641500	1758.318359	40.098431
30895.713457	1192.641500	1757.308594	-78.665527
30895.713457	1192.641500	1756.299805	98.454285
30895.713457	1192.641500	1755.290039	52.941456
30895.713457	1192.641500	1754.279297	-39.963974
30895.713457	1192.641500	1753.269531	4.318204
30895.713457	1192.641500	1752.258789	-55.580376
30895.713457	1192.641500	1751.249023	-82.416100
30895.713457	1192.641500	1750.238281	-128.242172
30895.713457	1192.641500	1749.226563	-133.943481
30895.713457	1192.641500	1748.215820	47.017002
30895.713457	1192.641500	1747.204102	64.762466
30895.713457	1192.641500	1746.193359	186.393738
30895.713457	1192.641500	1745.181641	31.502478
30895.713457	1192.641500	1744.168945	134.031006
30895.713457	1192.641500	1743.157227	130.187057
30895.713457	1192.641500	1742.144531	60.153694
30895.713457	1192.641500	1741.132813	32.567699
30895.713457	1192.641500	1740.120117	-47.013130
30895.713457	1192.641500	1739.106445	-67.656174
30895.713457	1192.641500	1738.093750	15.442783
30895.713457	1192.641500	1737.080078	100.787453
30895.713457	1192.641500	1736.067383	-85.171158
30895.713457	1192.641500	1735.053711	101.394623
30895.713457	1192.641500	1734.040039	28.502970
30895.713457	1192.641500	1733.025391	101.686768
30895.713457	1192.641500	1732.011719	-110.358231
30895.713457	1192.641500	1730.997070	-4.340992
30895.713457	1192.641500	1729.982422	-126.929543
30895.713457	1192.641500	1728.967773	40.135227
30895.713457	1192.641500	1727.952148	91.675972
30895.713457	1192.641500	1726.937500	16.003437
30895.713457	1192.641500	1725.921875	-125.626137
30895.713457	1192.641500	1724.906250	-93.129402
30895.713457	1192.641500	1723.890625	153.394409
30895.713457	1192.641500	1722.875000	39.831436
30895.713457	1192.641500	1721.858398	36.775490
30895.713457	1192.641500	1720.841797	-206.206375
30895.713457	1192.641500	1719.825195	-75.346161
30895.713457	1192.641500	1718.808594	-71.539909
30895.713457	1192.641500	1717.791992	68.504837
30895.713457	1192.641500	1716.774414	-111.144753
30895.713457	1192.641500	1715.756836	202.552383
30895.713457	1192.641500	1714.739258	95.622108
30895.713457	1192.641500	1713.721680	-117.013191
30895.713457	1192.641500	1712.704102	-83.103012
30895.713457	1192.641500	1711.685547	23.489876
30895.713457	1192.641500	1710.667969	-36.654957
30895.713457	1192.641500	1709.649414	-193.061447
30895.713457	1192.641500	1708.630859	37.636192
30895.713457	1192.641500	1707.611328	-186.889847
30895.713457	1192.641500	1706.592773	-12.697186
30895.713457	1192.641500	1705.573242	-16.848265
30895.713457	1192.641500	1704.553711	32.857929
30895.713457	1192.641500	1703.534180	0.445433
30895.713457	1192.641500	1702.513672	-74.207741
30895.713457	1192.641500	1701.494141	-36.422256
30895.713457	1192.641500	1700.473633	12.989894
30895.713457	1192.641500	1699.453125	-122.701584
30895.713457	1192.641500	1698.432617	-127.270462
30895.713457	1192.641500	1697.412109	-64.004166
30895.713457	1192.641500	1696.390625	27.258244
30895.713457	1192.641500	1695.369141	88.003532
30895.713457	1192.641500	1694.347656	50.394489
30895.713457	1192.641500	1693.326172	-179.085785
30895.713457	1192.641500	1692.304688	-64.712952
30895.713457	1192.641500	1691.282227	12.134666
30895.713457	1192.641500	1690.260742	-53.712936
30895.713457	1192.641500	1689.238281	-112.586380
30895.713457	1192.641500	1688.214844	-28.937225
30895.713457	1192.641500	1687.192383	17.250389
30895.713457	1192.641500	1686.168945	-114.196213
30895.713457	1192.641500	1685.146484	72.031990
30895.713457	1192.641500	1684.123047	-71.153854
30895.713457	1192.641500	1683.099609	51.841114
30895.713457	1192.641500	1682.075195	-65.718201
30895.713457	1192.641500	1681.051758	-68.905205
30895.713457	1192.641500	1680.027344	44.525883
30895.713457	1192.641500	1679.002930	87.874237
30895.713457	1192.641500	1677.978516	189.475632
30895.713457	1192.641500	1676.953125	-54.182575
30895.713457	1192.641500	1675.928711	313.132324
30895.713457	1192.641500	1674.903320	162.706802
30895.713457	1192.641500	1673.877930	229.061890
30895.713457	1192.641500	1672.852539	94.936737
30895.713457	1192.641500	1671.826172	33.038292
30895.713457	1192.641500	1670.800781	255.330124
30895.713457	1192.641500	1669.774414	88.536812
30895.713457	1192.641500	1668.748047	19.568333
30895.713457	1192.641500	1667.721680	192.713623
30895.713457	1192.641500	1666.694336	172.546722
30895.713457	1192.641500	1665.667969	315.266876
30895.713457	1192.641500	1664.640625	113.520256
30895.713457	1192.641500	1663.613281	251.463135
30895.713457	1192.641500	1662.585938	217.200867
30895.713457	1192.641500	1661.557617	257.321991
30895.713457	1192.641500	1660.530273	127.681412
30895.713457	1192.641500	1659.501953	18.968945
30895.713457	1192.641500	1658.473633	24.148638
30895.713457	1192.641500	1657.444336	115.259155
30895.713457	1192.641500	1656.416016	183.085251
30895.713457	1192.641500	1655.386719	267.104706
30895.713457	1192.641500	1654.358398	346.430481
30895.713457	1192.641500	1653.328125	170.274261
30895.713457	1192.641500	1652.298828	453.808044
30895.713457	1192.641500	1651.269531	405.312683
30895.713457	1192.641500	1650.239258	609.734924
30895.713457	1192.641500	1649.208984	563.489197
30895.713457	1192.641500	1648.178711	579.869446
30895.713457	1192.641500	1647.148438	515.052429
30895.713457	1192.641500	1646.117188	526.745483
30895.713457	1192.641500	1645.086914	633.475159
30895.713457	1192.641500	1644.055664	568.616272
30895.713457	1192.641500	1643.024414	591.825562
30895.713457	1192.641500	1641.992188	536.222534
30895.713457	1192.641500	1640.960938	740.080933
30895.713457	1192.641500	1639.928711	670.545898
30895.713457	1192.641500	1638.896484	793.215698
30895.713457	1192.641500	1637.864258	869.522949
30895.713457	1192.641500	1636.832031	825.426697
30895.713457	1192.641500	1635.798828	739.669373
30895.713457	1192.641500	1634.766602	945.481750
30895.713457	1192.641500	1633.733398	878.223938
30895.713457	1192.641500	1632.699219	884.983765
30895.713457	1192.641500	1631.666016	894.059448
30895.713457	1192.641500	1630.632813	1023.346741
30895.713457	1192.641500	1629.598633	995.386047
30895.713457	1192.641500	1628.564453	1046.008179
30895.713457	1192.641500	1627.530273	1124.335083
30895.713457	1192.641500	1626.495117	1258.062500
30895.713457	1192.641500	1625.460938	1121.510986
30895.713457	1192.641500	1624.425781	1275.970459
30895.713457	1192.641500	1623.390625	1536.577026
30895.713457	1192.641500	1622.355469	1598.563354
30895.713457	1192.641500	1621.319336	1972.088989
30895.713457	1192.641500	1620.284180	1874.757446
30895.713457	1192.641500	1619.248047	1927.415405
30895.713457	1192.641500	1618.211914	1880.875000
30895.713457	1192.641500	1617.174805	1905.839722
30895.713457	1192.641500	1616.138672	1806.305908
30895.713457	1192.641500	1615.101563	1584.631592
30895.713457	1192.641500	1614.065430	1379.197998
30895.713457	1192.641500	1613.027344	1397.354126
30895.713457	1192.641500	1611.990234	1337.194092
30895.713457	1192.641500	1610.953125	1078.973389
30895.713457	1192.641500	1609.915039	1173.216064
30895.713457	1192.641500	1608.876953	1179.939087
30895.713457	1192.641500	1607.838867	1138.331909
30895.713457	1192.641500	1606.800781	1260.174805
30895.713457	1192.641500	1605.761719	1202.483032
30895.713457	1192.641500	1604.723633	1388.724121
30895.713457	1192.641500	1603.684570	1151.644409
30895.713457	1192.641500	1602.644531	1119.355347
30895.713457	1192.641500	1601.605469	1266.464844
30895.713457	1192.641500	1600.566406	1271.004883
30895.713457	1192.641500	1599.526367	1408.868774
30895.713457	1192.641500	1598.486328	1277.831055
30895.713457	1192.641500	1597.446289	1355.952515
30895.713457	1192.641500	1596.405273	1395.008057
30895.713457	1192.641500	1595.365234	1296.283325
30895.713457	1192.641500	1594.324219	1261.910645
30895.713457	1192.641500	1593.283203	1395.175537
30895.713457	1192.641500	1592.242188	1427.422485
30895.713457	1192.641500	1591.200195	1227.891846
30895.713457	1192.641500	1590.159180	1198.271973
30895.713457	1192.641500	1589.117188	1370.560913
30895.713457	1192.641500	1588.075195	1416.670654
30895.713457	1192.641500	1587.032227	1203.662964
30895.713457	1192.641500	1585.990234	1460.784424
30895.713457	1192.641500	1584.947266	1172.281494
30895.713457	1192.641500	1583.904297	1339.994751
30895.713457	1192.641500	1582.861328	1351.870361
30895.713457	1192.641500	1581.818359	1423.343872
30895.713457	1192.641500	1580.775391	1144.393677
30895.713457	1192.641500	1579.731445	1266.332642
30895.713457	1192.641500	1578.687500	1381.396606
30895.713457	1192.641500	1577.643555	1313.333618
30895.713457	1192.641500	1576.598633	1416.979004
30895.713457	1192.641500	1575.554688	1284.954590
30895.713457	1192.641500	1574.509766	1521.346558
30895.713457	1192.641500	1573.464844	1323.106201
30895.713457	1192.641500	1572.419922	1493.173950
30895.713457	1192.641500	1571.374023	1576.331787
30895.713457	1192.641500	1570.329102	1428.635376
30895.713457	1192.641500	1569.283203	1509.587402
30895.713457	1192.641500	1568.237305	1336.918335
30895.713457	1192.641500	1567.191406	1381.408325
30895.713457	1192.641500	1566.144531	1266.032959
30895.713457	1192.641500	1565.098633	1098.240967
30895.713457	1192.641500	1564.051758	1088.105835
30895.713457	1192.641500	1563.004883	1399.907593
30895.713457	1192.641500	1561.957031	1081.700928
30895.713457	1192.641500	1560.910156	1060.335693
30895.713457	1192.641500	1559.862305	1189.605469
30895.713457	1192.641500	1558.814453	1136.401245
30895.713457	1192.641500	1557.766602	1233.796997
30895.713457	1192.641500	1556.718750	1141.964478
30895.713457	1192.641500	1555.669922	1255.391479
30895.713457	1192.641500	1554.621094	1309.576294
30895.713457	1192.641500	1553.573242	1174.673828
30895.713457	1192.641500	1552.523438	1199.353760
30895.713457	1192.641500	1551.474609	1244.599365
30895.713457	1192.641500	1550.424805	1071.250244
30895.713457	1192.641500	1549.375000	1080.193848
30895.713457	1192.641500	1548.325195	923.014954
30895.713457	1192.641500	1547.275391	929.844116
30895.713457	1192.641500	1546.225586	1105.137085
30895.713457	1192.641500	1545.174805	907.290649
30895.713457	1192.641500	1544.124023	937.066711
30895.713457	1192.641500	1543.073242	973.724854
30895.713457	1192.641500	1542.022461	942.224731
30895.713457	1192.641500	1540.970703	935.808899
30895.713457	1192.641500	1539.919922	938.568481
30895.713457	1192.641500	1538.868164	864.128662
30895.713457	1192.641500	1537.815430	887.482544
30895.713457	1192.641500	1536.763672	942.712830
30895.713457	1192.641500	1535.710938	941.210876
30895.713457	1192.641500	1534.659180	789.927307
30895.713457	1192.641500	1533.606445	927.096436
30895.713457	1192.641500	1532.552734	1027.964233
30895.713457	1192.641500	1531.500000	874.710327
30895.713457	1192.641500	1530.446289	850.916260
30895.713457	1192.641500	1529.393555	663.889160
30895.713457	1192.641500	1528.338867	517.826721
30895.713457	1192.641500	1527.285156	498.894806
30895.713457	1192.641500	1526.231445	718.101318
30895.713457	1192.641500	1525.176758	624.493652
30895.713457	1192.641500	1524.122070	569.532471
30895.713457	1192.641500	1523.067383	689.142212
30895.713457	1192.641500	1522.012695	620.766785
30895.713457	1192.641500	1520.957031	624.972290
30895.713457	1192.641500	1519.901367	563.593140
30895.713457	1192.641500	1518.845703	617.787170
30895.713457	1192.641500	1517.790039	687.892639
30895.713457	1192.641500	1516.734375	414.065399
30895.713457	1192.641500	1515.677734	572.594604
30895.713457	1192.641500	1514.621094	593.155090
30895.713457	1192.641500	1513.564453	491.661316
30895.713457	1192.641500	1512.507813	485.271942
30895.713457	1192.641500	1511.450195	621.403503
30895.713457	1192.641500	1510.393555	420.776123
30895.713457	1192.641500	1509.335938	292.631653
30895.713457	1192.641500	1508.278320	408.656921
30895.713457	1192.641500	1507.219727	249.116440
30895.713457	1192.641500	1506.162109	453.374146
30895.713457	1192.641500	1505.103516	352.784851
30895.713457	1192.641500	1504.044922	417.143402
30895.713457	1192.641500	1502.986328	291.958038
30895.713457	1192.641500	1501.926758	379.054138
30895.713457	1192.641500	1500.868164	308.267426
30895.713457	1192.641500	1499.808594	210.528687
30895.713457	1192.641500	1498.749023	83.602058
30895.713457	1192.641500	1497.688477	110.159004
30895.713457	1192.641500	1496.628906	188.662369
30895.713457	1192.641500	1495.568359	190.585663
30895.713457	1192.641500	1494.507813	75.413322
30895.713457	1192.641500	1493.447266	-19.337749
30895.713457	1192.641500	1492.386719	-197.305954
30895.713457	1192.641500	1491.325195	-28.249033
30895.713457	1192.641500	1490.263672	-106.869461
30895.713457	1192.641500	1489.202148	30.780279
30895.713457	1192.641500	1488.140625	31.161367
30895.713457	1192.641500	1487.079102	-150.652725
30895.713457	1192.641500	1486.016602	-111.788445
30895.713457	1192.641500	1484.954102	-183.072815
30895.713457	1192.641500	1483.891602	26.924053
30895.713457	1192.641500	1482.829102	-55.403099
30895.713457	1192.641500	1481.765625	-40.918682
30895.713457	1192.641500	1480.702148	-183.691330
30895.713457	1192.641500	1479.638672	-31.893719
30895.713457	1192.641500	1478.575195	5.354193
30895.713457	1192.641500	1477.511719	76.370911
30895.713457	1192.641500	1476.447266	-34.417488
30895.713457	1192.641500	1475.382813	-44.045990
30895.713457	1192.641500	1474.318359	-141.094543
30895.713457	1192.641500	1473.253906	-78.733932
30895.713457	1192.641500	1472.189453	-94.565613
30895.713457	1192.641500	1471.124023	68.778320
30895.713457	1192.641500	1470.058594	39.597324
30895.713457	1192.641500	1468.993164	-88.150505
30895.713457	1192.641500	1467.927734	71.091537
30895.713457	1192.641500	1466.861328	35.365532
30895.713457	1192.641500	1465.794922	114.067200
30895.713457	1192.641500	1464.728516	210.808884
30895.713457	1192.641500	1463.662109	204.276184
30895.713457	1192.641500	1462.594727	193.722443
30895.713457	1192.641500	1461.528320	319.788574
30895.713457	1192.641500	1460.460938	235.994019
30895.713457	1192.641500	1459.393555	207.850098
30895.713457	1192.641500	1458.326172	231.210342
30895.713457	1192.641500	1457.257813	296.773834
30895.713457	1192.641500	1456.189453	286.820129
30895.713457	1192.641500	1455.121094	267.751526
30895.713457	1192.641500	1454.052734	239.978119
30895.713457	1192.641500	1452.984375	159.319199
30895.713457	1192.641500	1451.915039	296.787811
30895.713457	1192.641500	1450.845703	332.235229
30895.713457	1192.641500	1449.776367	268.117401
30895.713457	1192.641500	1448.707031	86.332687
30895.713457	1192.641500	1447.636719	234.052673
30895.713457	1192.641500	1446.567383	277.883179
30895.713457	1192.641500	1445.497070	125.462479
30895.713457	1192.641500	1444.425781	289.988007
30895.713457	1192.641500	1443.355469	234.644089
30895.713457	1192.641500	1442.285156	290.590759
30895.713457	1192.641500	1441.213867	183.012772
30895.713457	1192.641500	1440.142578	46.647102
30895.713457	1192.641500	1439.070313	309.450226
30895.713457	1192.641500	1437.999023	363.600555
30895.713457	1192.641500	1436.926758	322.828674
30895.713457	1192.641500	1435.854492	239.188477
30895.713457	1192.641500	1434.782227	209.586990
30895.713457	1192.641500	1433.709961	174.674393
30895.713457	1192.641500	1432.636719	118.616653
30895.713457	1192.641500	1431.563477	195.484833
30895.713457	1192.641500	1430.490234	38.414440
30895.713457	1192.641500	1429.416992	265.191345
30895.713457	1192.641500	1428.343750	88.220612
30895.713457	1192.641500	1427.269531	81.697884
30895.713457	1192.641500	1426.195313	27.464247
30895.713457	1192.641500	1425.121094	56.999889
30895.713457	1192.641500	1424.046875	275.390472
30895.713457	1192.641500	1422.971680	165.777298
30895.713457	1192.641500	1421.896484	-26.882719
30895.713457	1192.641500	1420.821289	80.294861
30895.713457	1192.641500	1419.746094	84.444481
30895.713457	1192.641500	1418.669922	101.158997
30895.713457	1192.641500	1417.594727	87.344574
30895.713457	1192.641500	1416.518555	85.122864
30895.713457	1192.641500	1415.442383	35.130806
30895.713457	1192.641500	1414.365234	125.102211
30895.713457	1192.641500	1413.289063	30.616312
30895.713457	1192.641500	1412.211914	153.404831
30895.713457	1192.641500	1411.134766	253.702957
30895.713457	1192.641500	1410.057617	66.278854
30895.713457	1192.641500	1408.979492	143.314957
30895.713457	1192.641500	1407.902344	71.391563
30895.713457	1192.641500	1406.824219	373.333984
30895.713457	1192.641500	1405.746094	388.513672
30895.713457	1192.641500	1404.666992	377.281342
30895.713457	1192.641500	1403.588867	498.854218
30895.713457	1192.641500	1402.509766	283.550537
30895.713457	1192.641500	1401.430664	262.744263
30895.713457	1192.641500	1400.351563	312.652679
30895.713457	1192.641500	1399.271484	430.279297
30895.713457	1192.641500	1398.192383	483.588501
30895.713457	1192.641500	1397.112305	627.833862
30895.713457	1192.641500	1396.031250	675.257385
30895.713457	1192.641500	1394.951172	368.597260
30895.713457	1192.641500	1393.871094	484.310303
30895.713457	1192.641500	1392.790039	417.646545
30895.713457	1192.641500	1391.708984	343.010345
30895.713457	1192.641500	1390.626953	332.002472
30895.713457	1192.641500	1389.545898	219.946335
30895.713457	1192.641500	1388.463867	238.101639
30895.713457	1192.641500	1387.381836	309.793304
30895.713457	1192.641500	1386.299805	375.543304
30895.713457	1192.641500	1385.217773	290.421356
30895.713457	1192.641500	1384.134766	260.334351
30895.713457	1192.641500	1383.051758	168.880356
30895.713457	1192.641500	1381.968750	395.912262
30895.713457	1192.641500	1380.885742	600.026245
30895.713457	1192.641500	1379.802734	666.107422
30895.713457	1192.641500	1378.718750	524.862793
30895.713457	1192.641500	1377.634766	664.121521
30895.713457	1192.641500	1376.550781	623.282410
30895.713457	1192.641500	1375.465820	898.240112
30895.713457	1192.641500	1374.381836	771.802124
30895.713457	1192.641500	1373.296875	741.780090
30895.713457	1192.641500	1372.211914	599.170593
30895.713457	1192.641500	1371.126953	500.886078
30895.713457	1192.641500	1370.041016	638.853943
30895.713457	1192.641500	1368.955078	731.833130
30895.713457	1192.641500	1367.869141	415.372009
30895.713457	1192.641500	1366.783203	507.121155
30895.713457	1192.641500	1365.697266	368.631775
30895.713457	1192.641500	1364.610352	382.781647
30895.713457	1192.641500	1363.523438	401.064880
30895.713457	1192.641500	1362.436523	480.645782
30895.713457	1192.641500	1361.349609	382.220032
30895.713457	1192.641500	1360.261719	428.668640
30895.713457	1192.641500	1359.174805	789.589905
30895.713457	1192.641500	1358.086914	321.542542
30895.713457	1192.641500	1356.998047	544.236938
30895.713457	1192.641500	1355.910156	525.126526
30895.713457	1192.641500	1354.821289	503.587738
30895.713457	1192.641500	1353.732422	715.712585
30895.713457	1192.641500	1352.643555	551.684937
30895.713457	1192.641500	1351.554688	549.914246
30895.713457	1192.641500	1350.464844	614.965698
30895.713457	1192.641500	1349.375000	635.909546
30895.713457	1192.641500	1348.285156	682.410095
30895.713457	1192.641500	1347.195313	656.834839
30895.713457	1192.641500	1346.105469	798.498474
30895.713457	1192.641500	1345.014648	479.948853
30895.713457	1192.641500	1343.923828	752.952209
30895.713457	1192.641500	1342.833008	693.089844
30895.713457	1192.641500	1341.741211	671.482056
30895.713457	1192.641500	1340.650391	723.277710
30895.713457	1192.641500	1339.558594	561.988708
30895.713457	1192.641500	1338.466797	792.582092
30895.713457	1192.641500	1337.374023	843.433350
30895.713457	1192.641500	1336.282227	755.901733
30895.713457	1192.641500	1335.189453	650.668518
30895.713457	1192.641500	1334.096680	526.496521
30895.713457	1192.641500	1333.003906	618.722839
30895.713457	1192.641500	1331.910156	509.310028
30895.713457	1192.641500	1330.817383	652.307312
30895.713457	1192.641500	1329.723633	544.029297
30895.713457	1192.641500	1328.629883	398.862457
30895.713457	1192.641500	1327.535156	465.199219
30895.713457	1192.641500	1326.441406	388.272064
30895.713457	1192.641500	1325.346680	469.500397
30895.713457	1192.641500	1324.251953	449.216827
30895.713457	1192.641500	1323.156250	326.081512
30895.713457	1192.641500	1322.061523	413.780640
30895.713457	1192.641500	1320.965820	300.575806
30895.713457	1192.641500	1319.870117	339.954681
30895.713457	1192.641500	1318.774414	397.432129
30895.713457	1192.641500	1317.678711	224.912628
30895.713457	1192.641500	1316.582031	90.877876
30895.713457	1192.641500	1315.485352	119.056602
30895.713457	1192.641500	1314.388672	171.782990
30895.713457	1192.641500	1313.291016	136.845490
30895.713457	1192.641500	1312.194336	277.533051
30895.713457	1192.641500	1311.096680	207.516144
30895.713457	1192.641500	1309.999023	329.670776
30895.713457	1192.641500	1308.901367	202.080154
30895.713457	1192.641500	1307.802734	224.152023
30895.713457	1192.641500	1306.705078	-1.521316
30895.713457	1192.641500	1305.606445	164.150894
30895.713457	1192.641500	1304.506836	199.131851
30895.713457	1192.641500	1303.408203	46.594662
30895.713457	1192.641500	1302.308594	256.774841
30895.713457	1192.641500	1301.208984	396.375244
30895.713457	1192.641500	1300.109375	192.576721
30895.713457	1192.641500	1299.009766	321.824768
30895.713457	1192.641500	1297.909180	503.802795
30895.713457	1192.641500	1296.808594	581.684265
30895.713457	1192.641500	1295.708008	571.519165
30895.713457	1192.641500	1294.607422	564.799866
30895.713457	1192.641500	1293.506836	429.167175
30895.713457	1192.641500	1292.405273	673.105408
30895.713457	1192.641500	1291.303711	592.561401
30895.713457	1192.641500	1290.202148	557.502991
30895.713457	1192.641500	1289.099609	481.500610
30895.713457	1192.641500	1287.998047	630.785156
30895.713457	1192.641500	1286.895508	421.511932
30895.713457	1192.641500	1285.792969	469.683136
30895.713457	1192.641500	1284.689453	606.870239
30895.713457	1192.641500	1283.586914	455.407501
30895.713457	1192.641500	1282.483398	719.337036
30895.713457	1192.641500	1281.379883	569.122986
30895.713457	1192.641500	1280.276367	417.570190
30895.713457	1192.641500	1279.171875	594.172119
30895.713457	1192.641500	1278.067383	428.000153
30895.713457	1192.641500	1276.962891	463.723511
30895.713457	1192.641500	1275.858398	420.859955
30895.713457	1192.641500	1274.753906	410.331512
30895.713457	1192.641500	1273.648438	399.102448
30895.713457	1192.641500	1272.542969	338.229492
30895.713457	1192.641500	1271.437500	333.423767
30895.713457	1192.641500	1270.331055	290.727661
30895.713457	1192.641500	1269.225586	317.225006
30895.713457	1192.641500	1268.119141	371.138123
30895.713457	1192.641500	1267.012695	169.236511
30895.713457	1192.641500	1265.906250	247.454010
30895.713457	1192.641500	1264.798828	195.081100
30895.713457	1192.641500	1263.691406	163.775040
30895.713457	1192.641500	1262.583984	178.195221
30895.713457	1192.641500	1261.476563	207.176834
30895.713457	1192.641500	1260.368164	215.850220
30895.713457	1192.641500	1259.260742	132.506180
30895.713457	1192.641500	1258.152344	38.908108
30895.713457	1192.641500	1257.043945	44.931011
30895.713457	1192.641500	1255.934570	71.195511
30895.713457	1192.641500	1254.825195	63.952560
30895.713457	1192.641500	1253.716797	10.957036
30895.713457	1192.641500	1252.606445	10.691422
30895.713457	1192.641500	1251.497070	33.852448
30895.713457	1192.641500	1250.387695	85.743362
30895.713457	1192.641500	1249.277344	60.315868
30895.713457	1192.641500	1248.166992	146.727188
30895.713457	1192.641500	1247.055664	89.888985
30895.713457	1192.641500	1245.945313	124.606667
30895.713457	1192.641500	1244.833984	55.743328
30895.713457	1192.641500	1243.722656	70.176918
30895.713457	1192.641500	1242.611328	75.395020
30895.713457	1192.641500	1241.499023	25.711636
30895.713457	1192.641500	1240.387695	-90.898827
30895.713457	1192.641500	1239.275391	-44.810589
30895.713457	1192.641500	1238.162109	-64.323181
30895.713457	1192.641500	1237.049805	-145.745361
30895.713457	1192.641500	1235.936523	-112.908409
30895.713457	1192.641500	1234.823242	-209.000717
30895.713457	1192.641500	1233.709961	-165.306152
30895.713457	1192.641500	1232.596680	-96.654480
30895.713457	1192.641500	1231.482422	-162.935837
30895.713457	1192.641500	1230.369141	-220.362152
30895.713457	1192.641500	1229.253906	-67.642593
30895.713457	1192.641500	1228.139648	-222.873001
30895.713457	1192.641500	1227.025391	-143.864395
30895.713457	1192.641500	1225.910156	-46.328247
30895.713457	1192.641500	1224.794922	-104.916687
30895.713457	1192.641500	1223.679688	-90.745567
30895.713457	1192.641500	1222.563477	-106.715836
30895.713457	1192.641500	1221.447266	-146.699295
30895.713457	1192.641500	1220.331055	-300.092072
30895.713457	1192.641500	1219.214844	-255.306870
30895.713457	1192.641500	1218.098633	-163.228104
30895.713457	1192.641500	1216.981445	-169.529205
30895.713457	1192.641500	1215.864258	-273.151215
30895.713457	1192.641500	1214.747070	-152.257843
30895.713457	1192.641500	1213.629883	-172.158234
30895.713457	1192.641500	1212.511719	-152.993668
30895.713457	1192.641500	1211.393555	-124.664101
30895.713457	1192.641500	1210.275391	-129.173019
30895.713457	1192.641500	1209.157227	-124.225090
30895.713457	1192.641500	1208.038086	-243.675522
30895.713457	1192.641500	1206.918945	-78.137054
30895.713457	1192.641500	1205.799805	-76.975456
30895.713457	1192.641500	1204.680664	-55.724472
30895.713457	1192.641500	1203.560547	-43.720833
30895.713457	1192.641500	1202.441406	-40.380585
30895.713457	1192.641500	1201.321289	34.883099
30895.713457	1192.641500	1200.200195	90.106735
30895.713457	1192.641500	1199.080078	69.307060
30895.713457	1192.641500	1197.958984	117.221146
30895.713457	1192.641500	1196.837891	134.646698
30895.713457	1192.641500	1195.716797	131.768738
30895.713457	1192.641500	1194.594727	54.735767
30895.713457	1192.641500	1193.473633	214.321609
30895.713457	1192.641500	1192.351563	127.179146
30895.713457	1192.641500	1191.229492	94.145279
30895.713457	1192.641500	1190.106445	90.898659
30895.713457	1192.641500	1188.984375	78.921387
30895.713457	1192.641500	1187.861328	113.597588
30895.713457	1192.641500	1186.738281	151.666626
30895.713457	1192.641500	1185.614258	92.506294
30895.713457	1192.641500	1184.491211	45.907539
30895.713457	1192.641500	1183.367188	54.177116
30895.713457	1192.641500	1182.243164	4.736190
30895.713457	1192.641500	1181.119141	7.693720
30895.713457	1192.641500	1179.994141	115.139267
30895.713457	1192.641500	1178.869141	-56.500999
30895.713457	1192.641500	1177.744141	29.249073
30895.713457	1192.641500	1176.619141	36.701599
30895.713457	1192.641500	1175.493164	8.320055
30895.713457	1192.641500	1174.368164	-24.151825
30895.713457	1192.641500	1173.242188	207.342194
30895.713457	1192.641500	1172.115234	184.266479
30895.713457	1192.641500	1170.989258	71.572006
30895.713457	1192.641500	1169.862305	219.264069
30895.713457	1192.641500	1168.735352	-22.688860
30895.713457	1192.641500	1167.608398	91.679695
30895.713457	1192.641500	1166.481445	-9.114986
30895.713457	1192.641500	1165.353516	1.479194
30895.713457	1192.641500	1164.225586	99.692619
30895.713457	1192.641500	1163.097656	-2.281657
30895.713457	1192.641500	1161.968750	-33.416058
30895.713457	1192.641500	1160.840820	-14.654407
30895.713457	1192.641500	1159.711914	-83.754723
30895.713457	1192.641500	1158.583008	-122.701241
30895.713457	1192.641500	1157.453125	-43.661823
30895.713457	1192.641500	1156.324219	-133.724487
30895.713457	1192.641500	1155.194336	-61.787193
30895.713457	1192.641500	1154.064453	-95.890633
30895.713457	1192.641500	1152.933594	-99.131493
30895.713457	1192.641500	1151.803711	-72.595528
30895.713457	1192.641500	1150.672852	0.664738
30895.713457	1192.641500	1149.541992	-9.721290
30895.713457	1192.641500	1148.411133	3.789123
30895.713457	1192.641500	1147.279297	-7.687989
30895.713457	1192.641500	1146.147461	-69.232071
30895.713457	1192.641500	1145.015625	-45.605061
30895.713457	1192.641500	1143.883789	-43.254421
30895.713457	1192.641500	1142.750977	78.600784
30895.713457	1192.641500	1141.619141	45.528900
30895.713457	1192.641500	1140.486328	-17.585747
30895.713457	1192.641500	1139.352539	140.617859
30895.713457	1192.641500	1138.219727	-163.046539
30895.713457	1192.641500	1137.085938	-47.613804
30895.713457	1192.641500	1135.952148	3.270631
30895.713457	1192.641500	1134.818359	86.689621
30895.713457	1192.641500	1133.683594	-104.023438
30895.713457	1192.641500	1132.549805	78.526695
30895.713457	1192.641500	1131.415039	100.513748
30895.713457	1192.641500	1130.279297	114.467758
30895.713457	1192.641500	1129.144531	135.719772
30895.713457	1192.641500	1128.008789	198.155212
30895.713457	1192.641500	1126.873047	169.283325
30895.713457	1192.641500	1125.737305	176.439957
30895.713457	1192.641500	1124.601563	155.508789
30895.713457	1192.641500	1123.464844	123.635406
30895.713457	1192.641500	1122.328125	42.842918
30895.713457	1192.641500	1121.191406	-58.561131
30895.713457	1192.641500	1120.054688	72.863617
30895.713457	1192.641500	1118.916992	-42.815533
30895.713457	1192.641500	1117.779297	2.968672
30895.713457	1192.641500	1116.641602	104.905640
30895.713457	1192.641500	1115.503906	117.433792
30895.713457	1192.641500	1114.365234	122.299004
30895.713457	1192.641500	1113.226563	-28.345335
30895.713457	1192.641500	1112.087891	89.254654
30895.713457	1192.641500	1110.949219	-57.871746
30895.713457	1192.641500	1109.809570	52.318047
30895.713457	1192.641500	1108.669922	-9.460850
30895.713457	1192.641500	1107.530273	-9.977966
30895.713457	1192.641500	1106.390625	60.002052
30895.713457	1192.641500	1105.250000	-51.863121
30895.713457	1192.641500	1104.109375	-6.748798
30895.713457	1192.641500	1102.968750	99.007156
30895.713457	1192.641500	1101.828125	91.828598
30895.713457	1192.641500	1100.686523	-35.855473
30895.713457	1192.641500	1099.544922	98.022026
30895.713457	1192.641500	1098.403320	105.817589
30895.713457	1192.641500	1097.261719	100.689461
30895.713457	1192.641500	1096.120117	168.792984
30895.713457	1192.641500	1094.977539	174.240555
30895.713457	1192.641500	1093.834961	378.015533
30895.713457	1192.641500	1092.691406	128.546631
30895.713457	1192.641500	1091.548828	215.575211
30895.713457	1192.641500	1090.405273	326.280914
30895.713457	1192.641500	1089.261719	289.981232
30895.713457	1192.641500	1088.118164	210.112823
30895.713457	1192.641500	1086.973633	312.315155
30895.713457	1192.641500	1085.829102	349.586548
30895.713457	1192.641500	1084.684570	302.575592
30895.713457	1192.641500	1083.540039	191.961060
30895.713457	1192.641500	1082.395508	112.369095
30895.713457	1192.641500	1081.250000	202.578629
30895.713457	1192.641500	1080.104492	165.794312
30895.713457	1192.641500	1078.958984	141.462540
30895.713457	1192.641500	1077.812500	376.700073
30895.713457	1192.641500	1076.666016	143.609100
30895.713457	1192.641500	1075.519531	220.674194
30895.713457	1192.641500	1074.373047	201.274399
30895.713457	1192.641500	1073.226563	191.555389
30895.713457	1192.641500	1072.079102	221.711838
30895.713457	1192.641500	1070.931641	323.686066
30895.713457	1192.641500	1069.784180	142.137405
30895.713457	1192.641500	1068.635742	209.960632
30895.713457	1192.641500	1067.487305	325.440948
30895.713457	1192.641500	1066.338867	387.653778
30895.713457	1192.641500	1065.190430	210.942047
30895.713457	1192.641500	1064.041992	232.509109
30895.713457	1192.641500	1062.892578	230.335480
30895.713457	1192.641500	1061.743164	484.783722
30895.713457	1192.641500	1060.593750	499.891205
30895.713457	1192.641500	1059.443359	314.323883
30895.713457	1192.641500	1058.292969	538.028442
30895.713457	1192.641500	1057.142578	375.934784
30895.713457	1192.641500	1055.992188	292.552948
30895.713457	1192.641500	1054.841797	276.015930
30895.713457	1192.641500	1053.690430	438.228821
30895.713457	1192.641500	1052.539063	393.971527
30895.713457	1192.641500	1051.387695	383.615417
30895.713457	1192.641500	1050.235352	226.362274
30895.713457	1192.641500	1049.083984	262.425415
30895.713457	1192.641500	1047.931641	360.437653
30895.713457	1192.641500	1046.778320	286.771271
30895.713457	1192.641500	1045.625977	87.586510
30895.713457	1192.641500	1044.472656	148.590256
30895.713457	1192.641500	1043.319336	190.928497
30895.713457	1192.641500	1042.166016	150.523376
30895.713457	1192.641500	1041.012695	41.409832
30895.713457	1192.641500	1039.858398	99.413910
30895.713457	1192.641500	1038.704102	51.654400
30895.713457	1192.641500	1037.549805	96.961670
30895.713457	1192.641500	1036.394531	113.377968
30895.713457	1192.641500	1035.239258	-46.971443
30895.713457	1192.641500	1034.083984	51.999180
30895.713457	1192.641500	1032.928711	91.433212
30895.713457	1192.641500	1031.773438	134.918350
30895.713457	1192.641500	1030.617188	136.224701
30895.713457	1192.641500	1029.460938	194.478210
30895.713457	1192.641500	1028.304688	115.272957
30895.713457	1192.641500	1027.147461	-0.575171
30895.713457	1192.641500	1025.991211	-22.148741
30895.713457	1192.641500	1024.833984	116.455215
30895.713457	1192.641500	1023.675781	121.591904
30895.713457	1192.641500	1022.518555	-14.481210
30895.713457	1192.641500	1021.360352	97.641098
30895.713457	1192.641500	1020.202148	62.377045
30895.713457	1192.641500	1019.043945	56.919838
30895.713457	1192.641500	1017.884766	-118.159973
30895.713457	1192.641500	1016.726563	-91.345795
30895.713457	1192.641500	1015.567383	-17.532524
30895.713457	1192.641500	1014.407227	16.917297
30895.713457	1192.641500	1013.248047	-54.845772
30895.713457	1192.641500	1012.087891	-191.982422
30895.713457	1192.641500	1010.927734	-153.538513
30895.713457	1192.641500	1009.767578	-77.306694
30895.713457	1192.641500	1008.606445	-80.012512
30895.713457	1192.641500	1007.446289	111.754166
30895.713457	1192.641500	1006.285156	116.721527
30895.713457	1192.641500	1005.123047	-94.019836
30895.713457	1192.641500	1003.961914	193.019485
30895.713457	1192.641500	1002.799805	264.729156
30895.713457	1192.641500	1001.637695	128.074249
30895.713457	1192.641500	1000.475586	186.798798
30895.713457	1192.641500	999.312500	264.976837
30895.713457	1192.641500	998.149414	194.513947
30895.713457	1192.641500	996.986328	249.993515
30895.713457	1192.641500	995.823242	330.705933
30895.713457	1192.641500	994.659180	302.877960
30895.713457	1192.641500	993.496094	121.509262
30895.713457	1192.641500	992.332031	257.191132
30895.713457	1192.641500	991.166992	174.122131
30895.713457	1192.641500	990.002930	-56.628128
30895.713457	1192.641500	988.837891	163.992966
30895.713457	1192.641500	987.672852	221.479141
30895.713457	1192.641500	986.506836	101.370003
30895.713457	1192.641500	985.341797	88.527351
30895.713457	1192.641500	984.175781	228.259964
30895.713457	1192.641500	983.009766	-23.081900
30895.713457	1192.641500	981.843750	159.327820
30895.713457	1192.641500	980.676758	81.124268
30895.713457	1192.641500	979.509766	197.963486
30895.713457	1192.641500	978.342773	-7.855864
30895.713457	1192.641500	977.175781	82.521080
30895.713457	1192.641500	976.007813	56.114147
30895.713457	1192.641500	974.839844	-7.648092
30895.713457	1192.641500	973.671875	185.035492
30895.713457	1192.641500	972.503906	112.752144
30895.713457	1192.641500	971.334961	197.162735
30895.713457	1192.641500	970.166016	203.039673
30895.713457	1192.641500	968.997070	303.865723
30895.713457	1192.641500	967.828125	238.547440
30895.713457	1192.641500	966.658203	294.558136
30895.713457	1192.641500	965.488281	219.161514
30895.713457	1192.641500	964.318359	191.398376
30895.713457	1192.641500	963.148438	126.867249
30895.713457	1192.641500	961.977539	8.737112
30895.713457	1192.641500	960.806641	-200.685791
30895.713457	1192.641500	959.635742	52.828342
30895.713457	1192.641500	958.463867	7.861074
30895.713457	1192.641500	957.292969	4.872815
30895.713457	1192.641500	956.121094	-34.560593
30895.713457	1192.641500	954.948242	-49.903236
30895.713457	1192.641500	953.776367	-44.481236
30895.713457	1192.641500	952.603516	-72.862396
30895.713457	1192.641500	951.430664	9.745937
30895.713457	1192.641500	950.257813	-95.619781
30895.713457	1192.641500	949.084961	-158.340118
30895.713457	1192.641500	947.911133	-150.664230
30895.713457	1192.641500	946.737305	20.101952
30895.713457	1192.641500	945.563477	-80.261482
30895.713457	1192.641500	944.388672	-256.038910
30895.713457	1192.641500	943.213867	-50.596771
30895.713457	1192.641500	942.039063	37.525200
30895.713457	1192.641500	940.864258	-86.508171
30895.713457	1192.641500	939.688477	5.908818
30895.713457	1192.641500	938.513672	58.740902
30895.713457	1192.641500	937.337891	26.346622
30895.713457	1192.641500	936.161133	20.035788
30895.713457	1192.641500	934.985352	91.193123
30895.713457	1192.641500	933.808594	77.723488
30895.713457	1192.641500	932.631836	57.267845
30895.713457	1192.641500	931.454102	140.288239
30895.713457	1192.641500	930.277344	324.585968
30895.713457	1192.641500	929.099609	303.918335
30895.713457	1192.641500	927.921875	339.814026
30895.713457	1192.641500	926.743164	173.211121
30895.713457	1192.641500	925.565430	159.607727
30895.713457	1192.641500	924.386719	138.958328
30895.713457	1192.641500	923.208008	231.246246
30895.713457	1192.641500	922.028320	139.993454
30895.713457	1192.641500	920.849609	161.660553
30895.713457	1192.641500	919.669922	163.729767
30895.713457	1192.641500	919.474609	190.703690
30895.713457	1192.641500	918.309570	-25.152641
30895.713457	1192.641500	917.143555	57.591568
30895.713457	1192.641500	915.977539	-160.518814
30895.713457	1192.641500	914.810547	11.485856
30895.713457	1192.641500	913.644531	21.319208
30895.713457	1192.641500	912.477539	49.930080
30895.713457	1192.641500	911.310547	-163.342209
30895.713457	1192.641500	910.143555	-176.982330
30895.713457	1192.641500	908.975586	-49.791710
30895.713457	1192.641500	907.807617	-44.692242
30895.713457	1192.641500	906.639648	9.668290
30895.713457	1192.641500	905.471680	-48.600094
30895.713457	1192.641500	904.303711	-88.090500
30895.713457	1192.641500	903.134766	-3.295811
30895.713457	1192.641500	901.965820	-12.317595
30895.713457	1192.641500	900.796875	-63.533642
30895.713457	1192.641500	899.626953	56.333153
30895.713457	1192.641500	898.457031	75.397530
30895.713457	1192.641500	897.287109	82.733849
30895.713457	1192.641500	896.117188	-118.374580
30895.713457	1192.641500	894.947266	38.838474
30895.713457	1192.641500	893.776367	-12.368013
30895.713457	1192.641500	892.605469	111.979118
30895.713457	1192.641500	891.434570	28.003502
30895.713457	1192.641500	890.262695	-27.868439
30895.713457	1192.641500	889.091797	16.854958
30895.713457	1192.641500	887.919922	98.972717
30895.713457	1192.641500	886.748047	136.625488
30895.713457	1192.641500	885.575195	66.724503
30895.713457	1192.641500	884.403320	151.098862
30895.713457	1192.641500	883.230469	48.496731
30895.713457	1192.641500	882.057617	76.758476
30895.713457	1192.641500	880.883789	88.653679
30895.713457	1192.641500	879.710938	79.518303
30895.713457	1192.641500	878.537109	5.007195
30895.713457	1192.641500	877.362305	77.584236
30895.713457	1192.641500	876.188477	-15.579649
30895.713457	1192.641500	875.013672	21.958433
30895.713457	1192.641500	873.839844	57.140411
30895.713457	1192.641500	872.664063	150.615173
30895.713457	1192.641500	871.489258	209.064423
30895.713457	1192.641500	870.313477	-30.942078
30895.713457	1192.641500	869.138672	-42.421833
30895.713457	1192.641500	867.962891	-172.757751
30895.713457	1192.641500	866.786133	-53.732067
30895.713457	1192.641500	865.610352	90.861816
30895.713457	1192.641500	864.433594	-93.007477
30895.713457	1192.641500	863.256836	-62.577724
30895.713457	1192.641500	862.079102	-76.399323
30895.713457	1192.641500	860.902344	-232.209488
30895.713457	1192.641500	859.724609	9.983781
30895.713457	1192.641500	858.546875	-43.418140
30895.713457	1192.641500	857.368164	-66.562866
30895.713457	1192.641500	856.190430	-99.008873
30895.713457	1192.641500	855.011719	68.524338
30895.713457	1192.641500	853.833008	-42.991539
30895.713457	1192.641500	852.654297	-105.658142
30895.713457	1192.641500	851.474609	-98.590446
30895.713457	1192.641500	850.294922	-186.789871
30895.713457	1192.641500	849.115234	-161.139847
30895.713457	1192.641500	847.935547	-107.639496
30895.713457	1192.641500	846.754883	-263.139648
30895.713457	1192.641500	845.575195	-179.476563
30895.713457	1192.641500	844.393555	-51.755322
30895.713457	1192.641500	843.212891	-65.645020
30895.713457	1192.641500	842.032227	-93.457474
30895.713457	1192.641500	840.850586	-176.934204
30895.713457	1192.641500	839.668945	-153.708511
30895.713457	1192.641500	838.486328	-49.349556
30895.713457	1192.641500	837.304688	-146.717972
30895.713457	1192.641500	836.122070	-109.632187
30895.713457	1192.641500	834.939453	-102.693733
30895.713457	1192.641500	833.756836	-70.284134
30895.713457	1192.641500	832.573242	-56.425278
30895.713457	1192.641500	831.389648	-88.896431
30895.713457	1192.641500	830.206055	-91.265656
30895.713457	1192.641500	829.022461	-26.516054
30895.713457	1192.641500	827.838867	-40.489128
30895.713457	1192.641500	826.654297	35.772640
30895.713457	1192.641500	825.469727	28.712664
30895.713457	1192.641500	824.284180	-140.254044
30895.713457	1192.641500	823.099609	51.567223
30895.713457	1192.641500	821.914063	-68.806793
30895.713457	1192.641500	820.728516	51.244587
30895.713457	1192.641500	819.542969	32.578053
30895.713457	1192.641500	818.356445	-87.752289
30895.713457	1192.641500	817.169922	-44.036404
30895.713457	1192.641500	815.983398	-83.493286
30895.713457	1192.641500	814.796875	-76.766258
30895.713457	1192.641500	813.609375	63.842266
30895.713457	1192.641500	812.422852	-21.813690
30895.713457	1192.641500	811.235352	-68.217606
30895.713457	1192.641500	810.046875	81.490555
30895.713457	1192.641500	808.859375	5.069647
30895.713457	1192.641500	807.670898	48.587383
30895.713457	1192.641500	806.482422	-27.823786
30895.713457	1192.641500	805.293945	77.894440
30895.713457	1192.641500	804.104492	36.049885
30895.713457	1192.641500	802.915039	42.596790
30895.713457	1192.641500	801.725586	-10.773736
30895.713457	1192.641500	800.536133	80.970222
30895.713457	1192.641500	799.345703	75.941086
30895.713457	1192.641500	798.155273	22.547256
30895.713457	1192.641500	796.964844	10.591629
30895.713457	1192.641500	795.774414	136.708160
30895.713457	1192.641500	794.583008	-13.357022
30895.713457	1192.641500	793.392578	204.693817
30895.713457	1192.641500	792.200195	153.539154
30895.713457	1192.641500	791.008789	-60.879086
30895.713457	1192.641500	789.816406	225.960922
30895.713457	1192.641500	788.625000	117.310127
30895.713457	1192.641500	787.432617	277.559906
30895.713457	1192.641500	786.239258	-3.415629
30895.713457	1192.641500	785.046875	-141.875214
30895.713457	1192.641500	783.853516	-98.862633
30895.713457	1192.641500	782.660156	26.771864
30895.713457	1192.641500	781.465820	358.944611
30895.713457	1192.641500	780.272461	245.685104
30895.713457	1192.641500	779.078125	132.449875
30895.713457	1192.641500	777.883789	101.831604
30895.713457	1192.641500	776.688477	-114.593292
30895.713457	1192.641500	775.494141	-85.569618
30895.713457	1192.641500	774.298828	-118.488144
30895.713457	1192.641500	773.103516	105.325409
30895.713457	1192.641500	771.907227	219.011322
30895.713457	1192.641500	770.711914	-11.087160
30895.713457	1192.641500	769.515625	17.758640
30895.713457	1192.641500	768.318359	35.114178
30895.713457	1192.641500	767.122070	40.985420
30895.713457	1192.641500	765.924805	124.669746
30895.713457	1192.641500	764.727539	-206.022186
30895.713457	1192.641500	763.530273	-115.512169
30895.713457	1192.641500	762.333008	137.384445
30895.713457	1192.641500	761.134766	28.707132
30895.713457	1192.641500	759.936523	-22.776833
30895.713457	1192.641500	758.738281	-110.855942
30895.713457	1192.641500	757.540039	-34.324562
30895.713457	1192.641500	756.340820	179.284897
30895.713457	1192.641500	755.141602	8.858479
30895.713457	1192.641500	753.942383	41.812740
30895.713457	1192.641500	752.742188	24.467247
30895.713457	1192.641500	751.541992	224.055756
30895.713457	1192.641500	750.341797	284.246307
30895.713457	1192.641500	749.141602	273.609741
30895.713457	1192.641500	747.941406	48.402042
30895.713457	1192.641500	746.740234	46.878147
30895.713457	1192.641500	745.539063	17.942846
30895.713457	1192.641500	744.337891	39.164566
30895.713457	1192.641500	743.135742	115.072609
30895.713457	1192.641500	741.933594	143.032776
30895.713457	1192.641500	740.731445	4.541237
30895.713457	1192.641500	739.529297	180.575592
30895.713457	1192.641500	738.326172	73.958015
30895.713457	1192.641500	737.124023	-39.486877
30895.713457	1192.641500	735.919922	97.612411
30895.713457	1192.641500	734.716797	16.011986
30895.713457	1192.641500	733.513672	-1.847872
30895.713457	1192.641500	732.309570	-12.912245
30895.713457	1192.641500	731.105469	101.151253
30895.713457	1192.641500	729.900391	60.411152
30895.713457	1192.641500	728.696289	40.119289
30895.713457	1192.641500	727.491211	78.925293
30895.713457	1192.641500	726.286133	204.077209
30895.713457	1192.641500	725.080078	92.708389
30895.713457	1192.641500	723.874023	97.257866
30895.713457	1192.641500	722.668945	219.926041
30895.713457	1192.641500	721.461914	76.686310
30895.713457	1192.641500	720.255859	151.518600
30895.713457	1192.641500	719.048828	273.964661
30895.713457	1192.641500	717.841797	62.555531
30895.713457	1192.641500	716.634766	178.067673
30895.713457	1192.641500	715.427734	200.435776
30895.713457	1192.641500	714.219727	84.335854
30895.713457	1192.641500	713.011719	56.711678
30895.713457	1192.641500	711.803711	29.052143
30895.713457	1192.641500	710.594727	-14.517621
30895.713457	1192.641500	709.385742	-37.712894
30895.713457	1192.641500	708.176758	41.052883
30895.713457	1192.641500	706.967773	133.334045
30895.713457	1192.641500	705.758789	64.661514
30895.713457	1192.641500	704.548828	127.351631
30895.713457	1192.641500	703.338867	228.465714
30895.713457	1192.641500	702.127930	114.379616
30895.713457	1192.641500	700.917969	7.082775
30895.713457	1192.641500	699.707031	101.215889
30895.713457	1192.641500	698.496094	154.526474
30895.713457	1192.641500	697.285156	-52.411083
30895.713457	1192.641500	696.073242	125.209099
30895.713457	1192.641500	694.861328	8.715709
30895.713457	1192.641500	693.649414	82.139709
30895.713457	1192.641500	692.436523	223.292236
30895.713457	1192.641500	691.224609	255.853348
30895.713457	1192.641500	690.011719	347.093506
30895.713457	1192.641500	688.798828	323.029175
30895.713457	1192.641500	687.584961	445.726685
30895.713457	1192.641500	686.372070	310.895752
30895.713457	1192.641500	685.158203	297.976990
30895.713457	1192.641500	683.943359	395.606689
30895.713457	1192.641500	682.729492	382.564728
30895.713457	1192.641500	681.514648	464.231323
30895.713457	1192.641500	680.299805	387.906036
30895.713457	1192.641500	679.084961	313.812225
30895.713457	1192.641500	677.869141	476.442780
30895.713457	1192.641500	676.653320	305.310669
30895.713457	1192.641500	675.437500	499.314178
30895.713457	1192.641500	674.221680	283.067871
30895.713457	1192.641500	673.004883	386.762665
30895.713457	1192.641500	671.789063	472.338440
30895.713457	1192.641500	670.571289	190.750961
30895.713457	1192.641500	669.354492	285.219940
30895.713457	1192.641500	668.136719	298.552948
30895.713457	1192.641500	666.919922	289.319214
30895.713457	1192.641500	665.701172	275.525726
30895.713457	1192.641500	664.483398	232.437195
30895.713457	1192.641500	663.264648	292.763733
30895.713457	1192.641500	662.045898	379.989227
30895.713457	1192.641500	660.827148	267.034027
30895.713457	1192.641500	659.608398	255.212479
30895.713457	1192.641500	658.388672	247.827850
30895.713457	1192.641500	657.168945	415.630402
30895.713457	1192.641500	655.949219	250.858826
30895.713457	1192.641500	654.728516	189.399796
30895.713457	1192.641500	653.507813	118.925575
30895.713457	1192.641500	652.287109	225.761841
30895.713457	1192.641500	651.066406	238.230835
30895.713457	1192.641500	649.844727	268.581879
30895.713457	1192.641500	648.623047	114.902527
30895.713457	1192.641500	647.401367	169.819244
30895.713457	1192.641500	646.179688	99.075714
30895.713457	1192.641500	644.957031	339.932831
30895.713457	1192.641500	643.734375	322.855804
30895.713457	1192.641500	642.511719	269.870087
30895.713457	1192.641500	641.289063	277.341492
30895.713457	1192.641500	640.065430	313.867188
30895.713457	1192.641500	638.841797	193.545395
30895.713457	1192.641500	637.618164	290.409943
30895.713457	1192.641500	636.393555	367.022247
30895.713457	1192.641500	635.168945	396.540771
30895.713457	1192.641500	633.944336	289.487640
30895.713457	1192.641500	632.719727	309.942139
30895.713457	1192.641500	631.494141	222.960648
30895.713457	1192.641500	630.269531	373.006531
30895.713457	1192.641500	629.042969	198.729477
30895.713457	1192.641500	627.817383	205.533920
30895.713457	1192.641500	626.590820	339.659729
30895.713457	1192.641500	625.365234	8.921768
30895.713457	1192.641500	624.137695	24.514162
30895.713457	1192.641500	622.911133	220.954208
30895.713457	1192.641500	621.683594	207.350128
30895.713457	1192.641500	620.456055	37.419701
30895.713457	1192.641500	619.228516	135.346298
30895.713457	1192.641500	618.000977	-88.168106
30895.713457	1192.641500	616.772461	-1.530393
30895.713457	1192.641500	615.543945	82.783562
30895.713457	1192.641500	614.314453	-64.931999
30895.713457	1192.641500	613.085938	99.514709
30895.713457	1192.641500	611.856445	69.892487
30895.713457	1192.641500	610.626953	-15.489660
30895.713457	1192.641500	609.397461	153.127441
30895.713457	1192.641500	608.166992	216.908966
30895.713457	1192.641500	606.936523	-31.210426
30895.713457	1192.641500	605.706055	-18.741537
30895.713457	1192.641500	604.474609	-6.336656
30895.713457	1192.641500	603.244141	43.854481
30895.713457	1192.641500	602.012695	24.979500
30895.713457	1192.641500	600.780273	168.473801
30895.713457	1192.641500	599.548828	-28.479065
30895.713457	1192.641500	598.316406	248.300552
30895.713457	1192.641500	597.083984	115.788239
30895.713457	1192.641500	595.851563	9.957661
30895.713457	1192.641500	594.618164	39.692940
30895.713457	1192.641500	593.384766	-28.405668
30895.713457	1192.641500	592.151367	34.550568
30895.713457	1192.641500	590.917969	1.922551
30895.713457	1192.641500	589.683594	-55.172295
30895.713457	1192.641500	588.449219	-94.528542
30895.713457	1192.641500	587.214844	108.034088
30895.713457	1192.641500	585.979492	166.207642
30895.713457	1192.641500	584.745117	115.596115
30895.713457	1192.641500	583.509766	56.083008
30895.713457	1192.641500	582.273438	169.535049
30895.713457	1192.641500	581.038086	178.684402
30895.713457	1192.641500	579.801758	-29.472818
30895.713457	1192.641500	578.565430	97.092903
30895.713457	1192.641500	577.329102	26.345119
30895.713457	1192.641500	576.091797	-73.221062
30895.713457	1192.641500	574.854492	64.217941
30895.713457	1192.641500	573.617188	-24.322544
30895.713457	1192.641500	572.378906	-33.164845
30895.713457	1192.641500	571.141602	-168.209564
30895.713457	1192.641500	569.903320	17.657658
30895.713457	1192.641500	568.664063	141.449203
30895.713457	1192.641500	567.425781	99.245598
30895.713457	1192.641500	566.186523	21.630812
30895.713457	1192.641500	564.947266	105.432129
30895.713457	1192.641500	563.708008	-62.860447
30895.713457	1192.641500	562.467773	98.207947
30895.713457	1192.641500	561.227539	-61.245266
30895.713457	1192.641500	559.987305	106.316315
30895.713457	1192.641500	558.747070	147.870026
30895.713457	1192.641500	557.505859	-144.094650
30895.713457	1192.641500	556.264648	60.812733
30895.713457	1192.641500	555.023438	84.593468
30895.713457	1192.641500	553.781250	-105.744476
30895.713457	1192.641500	552.539063	-97.445801
30895.713457	1192.641500	551.296875	10.092335
30895.713457	1192.641500	550.054688	66.831184
30895.713457	1192.641500	548.811523	198.486664
30895.713457	1192.641500	547.569336	34.650826
30895.713457	1192.641500	546.325195	-49.802708
30895.713457	1192.641500	545.082031	-26.258162
30895.713457	1192.641500	543.837891	-29.189854
30895.713457	1192.641500	542.593750	7.506298
30895.713457	1192.641500	541.349609	-160.642044
30895.713457	1192.641500	540.105469	-71.131638
30895.713457	1192.641500	538.860352	33.724026
30895.713457	1192.641500	537.615234	-24.344944
30895.713457	1192.641500	536.369141	-42.805870
30895.713457	1192.641500	535.124023	-23.872120
30895.713457	1192.641500	533.877930	1.629242
30895.713457	1192.641500	532.631836	2.916636
30895.713457	1192.641500	531.384766	26.166723
30895.713457	1192.641500	530.138672	-75.886536
30895.713457	1192.641500	528.891602	68.208023
30895.713457	1192.641500	527.643555	-152.489304
30895.713457	1192.641500	526.396484	-43.609749
30895.713457	1192.641500	525.148438	-128.051346
30895.713457	1192.641500	523.900391	-118.054672
30895.713457	1192.641500	522.652344	49.980152
30895.713457	1192.641500	521.403320	-146.390945
30895.713457	1192.641500	520.154297	-263.694183
30895.713457	1192.641500	518.905273	-111.122711
30895.713457	1192.641500	517.656250	-22.228102
30895.713457	1192.641500	516.406250	-174.593628
30895.713457	1192.641500	515.156250	-4.625426
30895.713457	1192.641500	513.906250	-216.118774
30895.713457	1192.641500	512.655273	-101.013901
30895.713457	1192.641500	511.404297	-10.063212
30895.713457	1192.641500	510.153320	-300.292480
30895.713457	1192.641500	508.902344	-207.152313
30895.713457	1192.641500	507.650391	-190.693390
30895.713457	1192.641500	506.398438	-130.461609
30895.713457	1192.641500	505.146484	-227.834427
30895.713457	1192.641500	503.893555	46.805908
30895.713457	1192.641500	502.641602	-61.500740
30895.713457	1192.641500	501.388672	-106.339256
30895.713457	1192.641500	500.134766	115.612068
30895.713457	1192.641500	498.881836	-56.043034
30895.713457	1192.641500	497.627930	-146.756195
30895.713457	1192.641500	496.374023	-27.641932
30895.713457	1192.641500	495.119141	-48.410301
30895.713457	1192.641500	493.865234	-101.926468
30895.713457	1192.641500	492.610352	-124.848221
30895.713457	1192.641500	491.355469	-134.656418
30895.713457	1192.641500	490.099609	-30.951860
30895.713457	1192.641500	488.843750	81.440750
30895.713457	1192.641500	487.587891	-2.589821
30895.713457	1192.641500	486.332031	129.390045
30895.713457	1192.641500	485.075195	80.282364
30895.713457	1192.641500	483.818359	46.463425
30895.713457	1192.641500	482.561523	-105.062950
30895.713457	1192.641500	481.304688	-53.814472
30895.713457	1192.641500	480.046875	8.304075
30895.713457	1192.641500	478.789063	-12.391766
30895.713457	1192.641500	477.531250	247.916092
30895.713457	1192.641500	476.272461	-29.799334
30895.713457	1192.641500	475.013672	219.510727
30895.713457	1192.641500	473.754883	235.796036
30895.713457	1192.641500	472.496094	158.490707
30895.713457	1192.641500	471.236328	272.691559
30895.713457	1192.641500	469.976563	149.723480
30895.713457	1192.641500	468.716797	155.128815
30895.713457	1192.641500	467.456055	147.476868
30895.713457	1192.641500	466.196289	178.964722
30895.713457	1192.641500	464.935547	201.735458
30895.713457	1192.641500	463.673828	181.024536
30895.713457	1192.641500	462.413086	132.080551
30895.713457	1192.641500	461.151367	165.686081
30895.713457	1192.641500	459.889648	49.426239
30895.713457	1192.641500	458.626953	-21.203400
30895.713457	1192.641500	457.364258	94.869431
30895.713457	1192.641500	456.101563	67.644379
30895.713457	1192.641500	454.838867	42.589729
30895.713457	1192.641500	453.575195	97.789612
30895.713457	1192.641500	452.312500	81.383698
30895.713457	1192.641500	451.047852	47.609554
30895.713457	1192.641500	449.784180	-142.252335
30895.713457	1192.641500	448.519531	103.595299
30895.713457	1192.641500	447.254883	266.969208
30895.713457	1192.641500	445.990234	-68.046707
30895.713457	1192.641500	444.725586	106.072777
30895.713457	1192.641500	443.459961	124.159958
30895.713457	1192.641500	442.194336	-15.842773
30895.713457	1192.641500	440.927734	-19.454922
30895.713457	1192.641500	439.662109	15.859025
30895.713457	1192.641500	438.395508	-22.452423
30895.713457	1192.641500	437.127930	49.527813
30895.713457	1192.641500	435.861328	123.600708
30895.713457	1192.641500	434.593750	24.604881
30895.713457	1192.641500	433.326172	92.060257
30895.713457	1192.641500	432.058594	129.173584
30895.713457	1192.641500	430.790039	140.275711
30895.713457	1192.641500	429.521484	207.482986
30895.713457	1192.641500	428.252930	45.641415
30895.713457	1192.641500	426.984375	17.689665
30895.713457	1192.641500	425.714844	26.372917
30895.713457	1192.641500	424.445313	45.769073
30895.713457	1192.641500	423.174805	114.703979
30895.713457	1192.641500	421.905273	19.553364
30895.713457	1192.641500	420.634766	-21.724560
30895.713457	1192.641500	419.364258	96.514168
30895.713457	1192.641500	418.092773	210.283005
30895.713457	1192.641500	416.822266	86.775002
30895.713457	1192.641500	415.550781	299.425720
30895.713457	1192.641500	414.278320	201.571487
30895.713457	1192.641500	413.006836	166.122192
30895.713457	1192.641500	411.734375	96.093414
30895.713457	1192.641500	410.461914	159.473236
30895.713457	1192.641500	409.188477	108.576096
30895.713457	1192.641500	407.916016	74.784554
30895.713457	1192.641500	406.642578	251.745529
30895.713457	1192.641500	405.368164	142.311676
30895.713457	1192.641500	404.094727	204.855881
30895.713457	1192.641500	402.820313	15.573658
30895.713457	1192.641500	401.545898	129.365585
30895.713457	1192.641500	400.270508	167.675766
30895.713457	1192.641500	398.996094	119.817780
30895.713457	1192.641500	397.720703	63.177620
30895.713457	1192.641500	396.444336	173.909149
30895.713457	1192.641500	395.168945	114.710022
30895.713457	1192.641500	393.892578	-34.884956
30895.713457	1192.641500	392.616211	85.856377
30895.713457	1192.641500	391.339844	232.060120
30895.713457	1192.641500	390.062500	152.616501
30895.713457	1192.641500	388.785156	193.093445
30895.713457	1192.641500	387.507813	80.987434
30895.713457	1192.641500	386.229492	305.330963
30895.713457	1192.641500	384.951172	338.465179
30895.713457	1192.641500	383.672852	285.541168
30895.713457	1192.641500	382.394531	326.626648
30895.713457	1192.641500	381.115234	480.922119
30895.713457	1192.641500	379.835938	360.616241
30895.713457	1192.641500	378.556641	257.151978
30895.713457	1192.641500	377.277344	408.187866
30895.713457	1192.641500	375.997070	244.079422
30895.713457	1192.641500	374.716797	203.801392
30895.713457	1192.641500	373.435547	133.175919
30895.713457	1192.641500	372.155273	267.572113
30895.713457	1192.641500	370.874023	129.832169
30895.713457	1192.641500	369.591797	85.797440
30895.713457	1192.641500	368.310547	111.904427
30895.713457	1192.641500	367.028320	158.899673
30895.713457	1192.641500	365.746094	36.570419
30895.713457	1192.641500	364.463867	35.591702
30895.713457	1192.641500	363.180664	17.003113
30895.713457	1192.641500	361.897461	-42.675629
30895.713457	1192.641500	360.614258	129.874069
30895.713457	1192.641500	359.330078	-44.050694
30895.713457	1192.641500	358.045898	114.478134
30895.713457	1192.641500	356.761719	148.590591
30895.713457	1192.641500	355.477539	-44.049461
30895.713457	1192.641500	354.192383	76.288406
30895.713457	1192.641500	352.907227	87.180916
30895.713457	1192.641500	351.622070	39.848450
30895.713457	1192.641500	350.336914	-33.717514
30895.713457	1192.641500	349.050781	-137.801804
30895.713457	1192.641500	347.764648	-50.805809
30895.713457	1192.641500	346.477539	-166.964539
30895.713457	1192.641500	345.191406	-158.158386
30895.713457	1192.641500	343.904297	-24.533600
30895.713457	1192.641500	342.616211	10.289709
30895.713457	1192.641500	341.329102	-117.444611
30895.713457	1192.641500	340.041016	-122.580009
30895.713457	1192.641500	338.752930	-200.906586
30895.713457	1192.641500	337.463867	-186.531860
30895.713457	1192.641500	336.175781	-209.197906
30895.713457	1192.641500	334.886719	-71.246391
30895.713457	1192.641500	333.596680	76.282074
30895.713457	1192.641500	332.307617	-55.585182
30895.713457	1192.641500	331.017578	-190.560791
30895.713457	1192.641500	329.727539	-186.326965
30895.713457	1192.641500	328.436523	-26.043682
30895.713457	1192.641500	327.146484	-60.095490
30895.713457	1192.641500	325.855469	40.566273
30895.713457	1192.641500	324.563477	4.181336
30895.713457	1192.641500	323.272461	-135.173401
30895.713457	1192.641500	321.980469	-171.765533
30895.713457	1192.641500	320.688477	-88.690308
30895.713457	1192.641500	319.395508	-13.315789
30895.713457	1192.641500	318.103516	-178.781677
30895.713457	1192.641500	316.810547	-239.570251
30895.713457	1192.641500	315.516602	30.943577
30895.713457	1192.641500	314.223633	20.343069
30895.713457	1192.641500	312.929688	92.999458
30895.713457	1192.641500	311.635742	214.985229
30895.713457	1192.641500	310.340820	189.294952
30895.713457	1192.641500	309.045898	151.501022
30895.713457	1192.641500	307.750977	-55.024040
30895.713457	1192.641500	306.456055	462.632690
30895.713457	1192.641500	305.160156	280.333557
30895.713457	1192.641500	303.865234	447.543091
30895.713457	1192.641500	302.568359	579.029236
30895.713457	1192.641500	301.272461	484.681366
30895.713457	1192.641500	299.975586	747.803650
30895.713457	1192.641500	298.678711	949.808777
