#X		#Y		#Wave		#Intensity
-28879.670585	18698.098000	2000.043945	0.822991
-28879.670585	18698.098000	1999.080078	-167.785339
-28879.670585	18698.098000	1998.116211	-104.213402
-28879.670585	18698.098000	1997.151367	73.470451
-28879.670585	18698.098000	1996.186523	181.854904
-28879.670585	18698.098000	1995.222656	27.748854
-28879.670585	18698.098000	1994.256836	17.484901
-28879.670585	18698.098000	1993.291992	106.407082
-28879.670585	18698.098000	1992.327148	-32.355122
-28879.670585	18698.098000	1991.361328	74.121330
-28879.670585	18698.098000	1990.395508	-133.639832
-28879.670585	18698.098000	1989.429688	-54.165272
-28879.670585	18698.098000	1988.463867	109.508636
-28879.670585	18698.098000	1987.497070	196.551697
-28879.670585	18698.098000	1986.531250	26.470570
-28879.670585	18698.098000	1985.564453	79.092575
-28879.670585	18698.098000	1984.597656	450.710571
-28879.670585	18698.098000	1983.630859	206.829453
-28879.670585	18698.098000	1982.664063	101.526428
-28879.670585	18698.098000	1981.696289	30.946817
-28879.670585	18698.098000	1980.728516	350.801239
-28879.670585	18698.098000	1979.761719	221.104630
-28879.670585	18698.098000	1978.792969	177.971161
-28879.670585	18698.098000	1977.825195	164.566528
-28879.670585	18698.098000	1976.857422	336.386047
-28879.670585	18698.098000	1975.888672	160.222366
-28879.670585	18698.098000	1974.919922	92.775986
-28879.670585	18698.098000	1973.951172	-11.580510
-28879.670585	18698.098000	1972.982422	-147.892517
-28879.670585	18698.098000	1972.013672	103.111015
-28879.670585	18698.098000	1971.043945	3.949835
-28879.670585	18698.098000	1970.075195	-134.557175
-28879.670585	18698.098000	1969.105469	-162.030182
-28879.670585	18698.098000	1968.135742	61.936218
-28879.670585	18698.098000	1967.165039	-103.426910
-28879.670585	18698.098000	1966.195313	-69.131073
-28879.670585	18698.098000	1965.224609	24.319397
-28879.670585	18698.098000	1964.253906	162.113037
-28879.670585	18698.098000	1963.283203	16.763449
-28879.670585	18698.098000	1962.312500	144.756927
-28879.670585	18698.098000	1961.341797	88.159882
-28879.670585	18698.098000	1960.370117	228.489151
-28879.670585	18698.098000	1959.399414	159.681961
-28879.670585	18698.098000	1958.427734	-29.591234
-28879.670585	18698.098000	1957.455078	123.099510
-28879.670585	18698.098000	1956.483398	152.822174
-28879.670585	18698.098000	1955.511719	47.355522
-28879.670585	18698.098000	1954.539063	30.449249
-28879.670585	18698.098000	1953.566406	82.391365
-28879.670585	18698.098000	1952.593750	176.115768
-28879.670585	18698.098000	1951.621094	33.995838
-28879.670585	18698.098000	1950.647461	105.644760
-28879.670585	18698.098000	1949.674805	169.923248
-28879.670585	18698.098000	1948.701172	-87.432823
-28879.670585	18698.098000	1947.727539	97.188766
-28879.670585	18698.098000	1946.753906	149.229904
-28879.670585	18698.098000	1945.780273	169.370804
-28879.670585	18698.098000	1944.805664	79.119469
-28879.670585	18698.098000	1943.831055	-403.556366
-28879.670585	18698.098000	1942.856445	28.748199
-28879.670585	18698.098000	1941.881836	-2.532640
-28879.670585	18698.098000	1940.907227	-53.400188
-28879.670585	18698.098000	1939.932617	-42.961193
-28879.670585	18698.098000	1938.957031	107.175423
-28879.670585	18698.098000	1937.981445	279.317291
-28879.670585	18698.098000	1937.005859	27.594040
-28879.670585	18698.098000	1936.030273	45.393188
-28879.670585	18698.098000	1935.054688	183.186218
-28879.670585	18698.098000	1934.078125	232.790146
-28879.670585	18698.098000	1933.101563	223.627914
-28879.670585	18698.098000	1932.125000	-54.750797
-28879.670585	18698.098000	1931.148438	41.369747
-28879.670585	18698.098000	1930.171875	12.677957
-28879.670585	18698.098000	1929.194336	-204.352798
-28879.670585	18698.098000	1928.217773	-56.902771
-28879.670585	18698.098000	1927.240234	-88.008537
-28879.670585	18698.098000	1926.262695	88.696350
-28879.670585	18698.098000	1925.284180	69.788841
-28879.670585	18698.098000	1924.306641	-10.215893
-28879.670585	18698.098000	1923.328125	105.274521
-28879.670585	18698.098000	1922.350586	335.531189
-28879.670585	18698.098000	1921.372070	-18.056662
-28879.670585	18698.098000	1920.392578	295.150757
-28879.670585	18698.098000	1919.414063	-50.993317
-28879.670585	18698.098000	1918.434570	81.439423
-28879.670585	18698.098000	1917.456055	138.149948
-28879.670585	18698.098000	1916.476563	-193.163910
-28879.670585	18698.098000	1915.497070	48.970081
-28879.670585	18698.098000	1914.516602	156.843796
-28879.670585	18698.098000	1913.537109	120.767723
-28879.670585	18698.098000	1912.556641	-39.667717
-28879.670585	18698.098000	1911.576172	107.121101
-28879.670585	18698.098000	1910.595703	195.338608
-28879.670585	18698.098000	1909.615234	293.251709
-28879.670585	18698.098000	1908.633789	54.867138
-28879.670585	18698.098000	1907.653320	16.312113
-28879.670585	18698.098000	1906.671875	75.178864
-28879.670585	18698.098000	1905.690430	26.855919
-28879.670585	18698.098000	1904.708984	34.528244
-28879.670585	18698.098000	1903.727539	151.718719
-28879.670585	18698.098000	1902.745117	83.875458
-28879.670585	18698.098000	1901.762695	62.267967
-28879.670585	18698.098000	1900.780273	-175.883560
-28879.670585	18698.098000	1899.797852	-134.237839
-28879.670585	18698.098000	1898.815430	45.993710
-28879.670585	18698.098000	1897.832031	-104.555313
-28879.670585	18698.098000	1896.849609	236.004639
-28879.670585	18698.098000	1895.866211	-179.513824
-28879.670585	18698.098000	1894.882813	107.418831
-28879.670585	18698.098000	1893.898438	139.098282
-28879.670585	18698.098000	1892.915039	5.545166
-28879.670585	18698.098000	1891.930664	95.470390
-28879.670585	18698.098000	1890.947266	343.175995
-28879.670585	18698.098000	1889.962891	-127.902634
-28879.670585	18698.098000	1888.977539	-154.605759
-28879.670585	18698.098000	1887.993164	100.204781
-28879.670585	18698.098000	1887.007813	114.661530
-28879.670585	18698.098000	1886.023438	-60.151886
-28879.670585	18698.098000	1885.038086	65.850121
-28879.670585	18698.098000	1884.051758	51.114403
-28879.670585	18698.098000	1883.066406	87.271660
-28879.670585	18698.098000	1882.081055	353.691650
-28879.670585	18698.098000	1881.094727	-17.484455
-28879.670585	18698.098000	1880.108398	-247.998062
-28879.670585	18698.098000	1879.122070	37.625195
-28879.670585	18698.098000	1878.135742	332.797150
-28879.670585	18698.098000	1877.148438	51.389355
-28879.670585	18698.098000	1876.162109	-48.328358
-28879.670585	18698.098000	1875.174805	23.856062
-28879.670585	18698.098000	1874.187500	69.353821
-28879.670585	18698.098000	1873.199219	-182.883575
-28879.670585	18698.098000	1872.211914	17.431620
-28879.670585	18698.098000	1871.223633	43.450653
-28879.670585	18698.098000	1870.236328	-53.935078
-28879.670585	18698.098000	1869.248047	131.630661
-28879.670585	18698.098000	1868.258789	232.467896
-28879.670585	18698.098000	1867.270508	229.278809
-28879.670585	18698.098000	1866.282227	158.380066
-28879.670585	18698.098000	1865.292969	19.808903
-28879.670585	18698.098000	1864.303711	-123.577728
-28879.670585	18698.098000	1863.314453	163.042297
-28879.670585	18698.098000	1862.324219	-69.750870
-28879.670585	18698.098000	1861.334961	-102.067139
-28879.670585	18698.098000	1860.344727	196.353500
-28879.670585	18698.098000	1859.354492	159.100586
-28879.670585	18698.098000	1858.364258	158.025620
-28879.670585	18698.098000	1857.374023	255.845276
-28879.670585	18698.098000	1856.383789	271.569244
-28879.670585	18698.098000	1855.392578	142.527512
-28879.670585	18698.098000	1854.401367	20.731676
-28879.670585	18698.098000	1853.410156	270.261780
-28879.670585	18698.098000	1852.418945	160.469299
-28879.670585	18698.098000	1851.426758	255.549332
-28879.670585	18698.098000	1850.435547	377.064697
-28879.670585	18698.098000	1849.443359	317.800079
-28879.670585	18698.098000	1848.451172	287.425568
-28879.670585	18698.098000	1847.458984	30.636427
-28879.670585	18698.098000	1846.466797	212.153381
-28879.670585	18698.098000	1845.473633	287.636139
-28879.670585	18698.098000	1844.480469	259.549896
-28879.670585	18698.098000	1843.487305	496.162231
-28879.670585	18698.098000	1842.494141	58.928219
-28879.670585	18698.098000	1841.500977	25.978722
-28879.670585	18698.098000	1840.506836	149.342468
-28879.670585	18698.098000	1839.513672	92.266724
-28879.670585	18698.098000	1838.519531	326.097961
-28879.670585	18698.098000	1837.525391	420.379761
-28879.670585	18698.098000	1836.530273	271.839935
-28879.670585	18698.098000	1835.536133	197.813934
-28879.670585	18698.098000	1834.541016	361.626526
-28879.670585	18698.098000	1833.545898	16.100697
-28879.670585	18698.098000	1832.550781	134.181854
-28879.670585	18698.098000	1831.555664	168.141525
-28879.670585	18698.098000	1830.560547	197.247360
-28879.670585	18698.098000	1829.564453	245.508240
-28879.670585	18698.098000	1828.568359	27.335260
-28879.670585	18698.098000	1827.572266	214.699234
-28879.670585	18698.098000	1826.576172	207.643204
-28879.670585	18698.098000	1825.580078	318.077393
-28879.670585	18698.098000	1824.583008	25.569164
-28879.670585	18698.098000	1823.585938	-197.337387
-28879.670585	18698.098000	1822.588867	80.797295
-28879.670585	18698.098000	1821.591797	231.770203
-28879.670585	18698.098000	1820.594727	363.477936
-28879.670585	18698.098000	1819.596680	32.722015
-28879.670585	18698.098000	1818.599609	-10.510470
-28879.670585	18698.098000	1817.601563	245.590439
-28879.670585	18698.098000	1816.603516	221.416809
-28879.670585	18698.098000	1815.604492	139.758347
-28879.670585	18698.098000	1814.606445	113.149277
-28879.670585	18698.098000	1813.607422	86.512604
-28879.670585	18698.098000	1812.608398	325.424133
-28879.670585	18698.098000	1811.609375	28.376186
-28879.670585	18698.098000	1810.610352	59.064236
-28879.670585	18698.098000	1809.610352	228.394989
-28879.670585	18698.098000	1808.611328	-90.091042
-28879.670585	18698.098000	1807.611328	169.966278
-28879.670585	18698.098000	1806.611328	95.308968
-28879.670585	18698.098000	1805.610352	264.363190
-28879.670585	18698.098000	1804.610352	98.864998
-28879.670585	18698.098000	1803.609375	382.434082
-28879.670585	18698.098000	1802.608398	164.369232
-28879.670585	18698.098000	1801.607422	137.362061
-28879.670585	18698.098000	1800.606445	-56.770859
-28879.670585	18698.098000	1799.605469	6.902305
-28879.670585	18698.098000	1798.603516	65.741074
-28879.670585	18698.098000	1797.601563	95.896011
-28879.670585	18698.098000	1796.599609	68.755989
-28879.670585	18698.098000	1795.597656	261.004791
-28879.670585	18698.098000	1794.595703	47.793007
-28879.670585	18698.098000	1793.592773	225.601135
-28879.670585	18698.098000	1792.589844	431.911926
-28879.670585	18698.098000	1791.587891	168.645752
-28879.670585	18698.098000	1790.583984	26.956396
-28879.670585	18698.098000	1789.581055	180.684662
-28879.670585	18698.098000	1788.577148	196.177826
-28879.670585	18698.098000	1787.574219	68.759033
-28879.670585	18698.098000	1786.570313	103.252029
-28879.670585	18698.098000	1785.566406	232.917145
-28879.670585	18698.098000	1784.561523	188.763916
-28879.670585	18698.098000	1783.557617	296.885254
-28879.670585	18698.098000	1782.552734	283.602722
-28879.670585	18698.098000	1781.547852	94.280312
-28879.670585	18698.098000	1780.542969	168.970993
-28879.670585	18698.098000	1779.538086	250.735550
-28879.670585	18698.098000	1778.532227	151.768936
-28879.670585	18698.098000	1777.527344	280.984711
-28879.670585	18698.098000	1776.521484	227.141647
-28879.670585	18698.098000	1775.515625	-111.816032
-28879.670585	18698.098000	1774.508789	240.574097
-28879.670585	18698.098000	1773.502930	-17.565182
-28879.670585	18698.098000	1772.496094	213.514923
-28879.670585	18698.098000	1771.489258	256.928680
-28879.670585	18698.098000	1770.482422	274.186096
-28879.670585	18698.098000	1769.475586	58.840237
-28879.670585	18698.098000	1768.467773	220.808441
-28879.670585	18698.098000	1767.460938	-245.960052
-28879.670585	18698.098000	1766.453125	257.492310
-28879.670585	18698.098000	1765.445313	177.369736
-28879.670585	18698.098000	1764.437500	16.643270
-28879.670585	18698.098000	1763.428711	10.027038
-28879.670585	18698.098000	1762.420898	204.841629
-28879.670585	18698.098000	1761.412109	480.118561
-28879.670585	18698.098000	1760.403320	260.122742
-28879.670585	18698.098000	1759.393555	253.361282
-28879.670585	18698.098000	1758.384766	5.024034
-28879.670585	18698.098000	1757.375000	206.628693
-28879.670585	18698.098000	1756.366211	273.197296
-28879.670585	18698.098000	1755.356445	86.462296
-28879.670585	18698.098000	1754.345703	98.548904
-28879.670585	18698.098000	1753.335938	51.461735
-28879.670585	18698.098000	1752.325195	139.200684
-28879.670585	18698.098000	1751.315430	-146.792099
-28879.670585	18698.098000	1750.304688	-61.458160
-28879.670585	18698.098000	1749.292969	309.880463
-28879.670585	18698.098000	1748.282227	135.045013
-28879.670585	18698.098000	1747.270508	-49.203110
-28879.670585	18698.098000	1746.259766	-75.089493
-28879.670585	18698.098000	1745.248047	206.114044
-28879.670585	18698.098000	1744.235352	232.103073
-28879.670585	18698.098000	1743.223633	151.798599
-28879.670585	18698.098000	1742.211914	3.037498
-28879.670585	18698.098000	1741.199219	-86.677383
-28879.670585	18698.098000	1740.186523	-86.691994
-28879.670585	18698.098000	1739.173828	-48.970833
-28879.670585	18698.098000	1738.160156	-49.034554
-28879.670585	18698.098000	1737.147461	-27.881872
-28879.670585	18698.098000	1736.133789	-204.857162
-28879.670585	18698.098000	1735.120117	118.080452
-28879.670585	18698.098000	1734.106445	-124.896820
-28879.670585	18698.098000	1733.091797	68.235245
-28879.670585	18698.098000	1732.078125	-122.830513
-28879.670585	18698.098000	1731.063477	371.768433
-28879.670585	18698.098000	1730.048828	171.260544
-28879.670585	18698.098000	1729.034180	142.739899
-28879.670585	18698.098000	1728.019531	-52.968918
-28879.670585	18698.098000	1727.003906	-10.841732
-28879.670585	18698.098000	1725.988281	179.545258
-28879.670585	18698.098000	1724.972656	99.208046
-28879.670585	18698.098000	1723.957031	-82.284645
-28879.670585	18698.098000	1722.941406	178.538254
-28879.670585	18698.098000	1721.924805	-9.986627
-28879.670585	18698.098000	1720.909180	-106.738457
-28879.670585	18698.098000	1719.892578	-71.806099
-28879.670585	18698.098000	1718.875977	-69.808632
-28879.670585	18698.098000	1717.858398	-18.473907
-28879.670585	18698.098000	1716.841797	-96.401718
-28879.670585	18698.098000	1715.824219	62.965504
-28879.670585	18698.098000	1714.806641	-66.647537
-28879.670585	18698.098000	1713.789063	336.865021
-28879.670585	18698.098000	1712.770508	-67.482521
-28879.670585	18698.098000	1711.752930	-60.869949
-28879.670585	18698.098000	1710.734375	77.162575
-28879.670585	18698.098000	1709.715820	142.388641
-28879.670585	18698.098000	1708.697266	404.660217
-28879.670585	18698.098000	1707.678711	-4.047726
-28879.670585	18698.098000	1706.659180	79.892395
-28879.670585	18698.098000	1705.640625	112.211021
-28879.670585	18698.098000	1704.621094	99.965591
-28879.670585	18698.098000	1703.600586	-90.423576
-28879.670585	18698.098000	1702.581055	-189.345154
-28879.670585	18698.098000	1701.561523	222.539352
-28879.670585	18698.098000	1700.541016	275.847717
-28879.670585	18698.098000	1699.520508	212.025482
-28879.670585	18698.098000	1698.500000	84.998817
-28879.670585	18698.098000	1697.478516	-18.573490
-28879.670585	18698.098000	1696.458008	388.177734
-28879.670585	18698.098000	1695.436523	413.296295
-28879.670585	18698.098000	1694.415039	71.045998
-28879.670585	18698.098000	1693.393555	-65.205490
-28879.670585	18698.098000	1692.372070	102.655495
-28879.670585	18698.098000	1691.349609	15.551443
-28879.670585	18698.098000	1690.327148	99.156403
-28879.670585	18698.098000	1689.304688	93.900482
-28879.670585	18698.098000	1688.282227	268.608307
-28879.670585	18698.098000	1687.259766	64.702202
-28879.670585	18698.098000	1686.236328	145.895630
-28879.670585	18698.098000	1685.213867	185.016769
-28879.670585	18698.098000	1684.190430	112.025429
-28879.670585	18698.098000	1683.166016	39.060703
-28879.670585	18698.098000	1682.142578	192.571808
-28879.670585	18698.098000	1681.119141	252.666809
-28879.670585	18698.098000	1680.094727	228.729172
-28879.670585	18698.098000	1679.070313	169.809875
-28879.670585	18698.098000	1678.045898	227.548019
-28879.670585	18698.098000	1677.020508	289.930634
-28879.670585	18698.098000	1675.996094	44.506424
-28879.670585	18698.098000	1674.970703	288.752930
-28879.670585	18698.098000	1673.945313	297.494537
-28879.670585	18698.098000	1672.919922	119.805923
-28879.670585	18698.098000	1671.893555	44.709255
-28879.670585	18698.098000	1670.868164	93.114555
-28879.670585	18698.098000	1669.841797	434.968170
-28879.670585	18698.098000	1668.815430	-45.304001
-28879.670585	18698.098000	1667.789063	-3.871426
-28879.670585	18698.098000	1666.761719	309.891663
-28879.670585	18698.098000	1665.735352	230.238937
-28879.670585	18698.098000	1664.708008	204.140274
-28879.670585	18698.098000	1663.680664	580.525452
-28879.670585	18698.098000	1662.653320	331.101898
-28879.670585	18698.098000	1661.625000	393.395935
-28879.670585	18698.098000	1660.597656	246.428589
-28879.670585	18698.098000	1659.569336	343.607422
-28879.670585	18698.098000	1658.541016	364.065247
-28879.670585	18698.098000	1657.512695	142.865036
-28879.670585	18698.098000	1656.483398	247.011597
-28879.670585	18698.098000	1655.455078	174.605957
-28879.670585	18698.098000	1654.425781	185.842911
-28879.670585	18698.098000	1653.396484	315.505615
-28879.670585	18698.098000	1652.366211	291.915375
-28879.670585	18698.098000	1651.336914	361.192627
-28879.670585	18698.098000	1650.306641	312.108459
-28879.670585	18698.098000	1649.276367	360.504547
-28879.670585	18698.098000	1648.246094	355.545410
-28879.670585	18698.098000	1647.215820	292.627960
-28879.670585	18698.098000	1646.185547	348.006531
-28879.670585	18698.098000	1645.154297	714.029907
-28879.670585	18698.098000	1644.123047	706.758423
-28879.670585	18698.098000	1643.091797	407.518646
-28879.670585	18698.098000	1642.060547	601.922424
-28879.670585	18698.098000	1641.028320	247.259964
-28879.670585	18698.098000	1639.997070	191.528229
-28879.670585	18698.098000	1638.964844	290.981201
-28879.670585	18698.098000	1637.931641	355.685760
-28879.670585	18698.098000	1636.899414	420.390717
-28879.670585	18698.098000	1635.867188	415.665619
-28879.670585	18698.098000	1634.833984	348.488434
-28879.670585	18698.098000	1633.800781	156.442703
-28879.670585	18698.098000	1632.767578	415.507355
-28879.670585	18698.098000	1631.734375	461.751190
-28879.670585	18698.098000	1630.700195	489.503754
-28879.670585	18698.098000	1629.666016	339.282135
-28879.670585	18698.098000	1628.631836	404.075012
-28879.670585	18698.098000	1627.597656	545.121094
-28879.670585	18698.098000	1626.563477	311.885681
-28879.670585	18698.098000	1625.528320	579.981628
-28879.670585	18698.098000	1624.493164	554.718872
-28879.670585	18698.098000	1623.458008	621.849731
-28879.670585	18698.098000	1622.422852	492.765350
-28879.670585	18698.098000	1621.387695	696.108643
-28879.670585	18698.098000	1620.351563	546.348083
-28879.670585	18698.098000	1619.315430	509.723206
-28879.670585	18698.098000	1618.279297	551.566406
-28879.670585	18698.098000	1617.243164	641.852722
-28879.670585	18698.098000	1616.207031	600.709534
-28879.670585	18698.098000	1615.169922	432.822266
-28879.670585	18698.098000	1614.132813	705.250488
-28879.670585	18698.098000	1613.095703	535.168518
-28879.670585	18698.098000	1612.058594	768.369690
-28879.670585	18698.098000	1611.020508	480.926300
-28879.670585	18698.098000	1609.983398	575.933289
-28879.670585	18698.098000	1608.945313	530.478271
-28879.670585	18698.098000	1607.907227	600.181152
-28879.670585	18698.098000	1606.868164	419.006927
-28879.670585	18698.098000	1605.830078	578.522949
-28879.670585	18698.098000	1604.791016	627.570923
-28879.670585	18698.098000	1603.751953	483.409393
-28879.670585	18698.098000	1602.712891	665.925415
-28879.670585	18698.098000	1601.673828	482.795135
-28879.670585	18698.098000	1600.633789	626.228027
-28879.670585	18698.098000	1599.594727	771.945129
-28879.670585	18698.098000	1598.554688	563.734070
-28879.670585	18698.098000	1597.513672	656.632385
-28879.670585	18698.098000	1596.473633	535.896179
-28879.670585	18698.098000	1595.433594	702.340393
-28879.670585	18698.098000	1594.392578	850.387451
-28879.670585	18698.098000	1593.351563	778.016174
-28879.670585	18698.098000	1592.310547	717.189758
-28879.670585	18698.098000	1591.268555	954.770325
-28879.670585	18698.098000	1590.227539	939.906006
-28879.670585	18698.098000	1589.185547	755.330322
-28879.670585	18698.098000	1588.143555	566.279663
-28879.670585	18698.098000	1587.100586	741.956055
-28879.670585	18698.098000	1586.058594	702.095276
-28879.670585	18698.098000	1585.015625	506.417419
-28879.670585	18698.098000	1583.972656	934.232971
-28879.670585	18698.098000	1582.929688	759.298096
-28879.670585	18698.098000	1581.886719	822.730347
-28879.670585	18698.098000	1580.843750	595.295715
-28879.670585	18698.098000	1579.799805	512.262939
-28879.670585	18698.098000	1578.755859	491.129761
-28879.670585	18698.098000	1577.711914	785.947266
-28879.670585	18698.098000	1576.666992	625.251831
-28879.670585	18698.098000	1575.623047	377.713959
-28879.670585	18698.098000	1574.578125	674.808533
-28879.670585	18698.098000	1573.533203	603.577881
-28879.670585	18698.098000	1572.488281	651.338806
-28879.670585	18698.098000	1571.443359	625.964661
-28879.670585	18698.098000	1570.397461	646.369141
-28879.670585	18698.098000	1569.351563	495.401001
-28879.670585	18698.098000	1568.305664	243.996185
-28879.670585	18698.098000	1567.259766	454.237000
-28879.670585	18698.098000	1566.213867	362.934296
-28879.670585	18698.098000	1565.166992	280.851654
-28879.670585	18698.098000	1564.120117	281.050476
-28879.670585	18698.098000	1563.073242	388.595520
-28879.670585	18698.098000	1562.026367	322.686310
-28879.670585	18698.098000	1560.978516	562.637329
-28879.670585	18698.098000	1559.930664	289.211029
-28879.670585	18698.098000	1558.883789	442.499634
-28879.670585	18698.098000	1557.834961	805.596680
-28879.670585	18698.098000	1556.787109	279.346741
-28879.670585	18698.098000	1555.739258	387.113190
-28879.670585	18698.098000	1554.690430	346.742096
-28879.670585	18698.098000	1553.641602	522.927124
-28879.670585	18698.098000	1552.592773	601.127563
-28879.670585	18698.098000	1551.542969	380.947449
-28879.670585	18698.098000	1550.494141	231.511642
-28879.670585	18698.098000	1549.444336	385.031830
-28879.670585	18698.098000	1548.394531	181.127228
-28879.670585	18698.098000	1547.344727	284.635986
-28879.670585	18698.098000	1546.293945	231.140869
-28879.670585	18698.098000	1545.244141	343.813141
-28879.670585	18698.098000	1544.193359	131.208694
-28879.670585	18698.098000	1543.142578	455.483612
-28879.670585	18698.098000	1542.090820	145.279404
-28879.670585	18698.098000	1541.040039	314.948547
-28879.670585	18698.098000	1539.988281	150.482956
-28879.670585	18698.098000	1538.936523	208.848938
-28879.670585	18698.098000	1537.884766	155.917831
-28879.670585	18698.098000	1536.833008	291.613708
-28879.670585	18698.098000	1535.780273	509.078430
-28879.670585	18698.098000	1534.727539	276.912872
-28879.670585	18698.098000	1533.674805	169.763748
-28879.670585	18698.098000	1532.622070	271.543365
-28879.670585	18698.098000	1531.569336	255.335922
-28879.670585	18698.098000	1530.515625	128.017944
-28879.670585	18698.098000	1529.461914	400.068878
-28879.670585	18698.098000	1528.408203	445.266327
-28879.670585	18698.098000	1527.354492	281.889709
-28879.670585	18698.098000	1526.299805	368.028687
-28879.670585	18698.098000	1525.246094	7.653075
-28879.670585	18698.098000	1524.191406	48.611893
-28879.670585	18698.098000	1523.136719	137.198700
-28879.670585	18698.098000	1522.081055	-48.293537
-28879.670585	18698.098000	1521.026367	171.768585
-28879.670585	18698.098000	1519.970703	217.445465
-28879.670585	18698.098000	1518.915039	-110.397308
-28879.670585	18698.098000	1517.859375	265.925964
-28879.670585	18698.098000	1516.802734	-59.400856
-28879.670585	18698.098000	1515.747070	15.956200
-28879.670585	18698.098000	1514.690430	136.593262
-28879.670585	18698.098000	1513.633789	-167.966217
-28879.670585	18698.098000	1512.577148	25.152927
-28879.670585	18698.098000	1511.519531	-96.001907
-28879.670585	18698.098000	1510.461914	-124.362526
-28879.670585	18698.098000	1509.405273	297.086304
-28879.670585	18698.098000	1508.346680	108.363846
-28879.670585	18698.098000	1507.289063	-193.175903
-28879.670585	18698.098000	1506.231445	-85.715874
-28879.670585	18698.098000	1505.172852	175.328781
-28879.670585	18698.098000	1504.114258	-130.358902
-28879.670585	18698.098000	1503.055664	-43.089378
-28879.670585	18698.098000	1501.996094	44.214596
-28879.670585	18698.098000	1500.937500	63.855915
-28879.670585	18698.098000	1499.877930	297.875732
-28879.670585	18698.098000	1498.818359	-74.863602
-28879.670585	18698.098000	1497.757813	19.412683
-28879.670585	18698.098000	1496.698242	156.553833
-28879.670585	18698.098000	1495.637695	41.244038
-28879.670585	18698.098000	1494.577148	9.435273
-28879.670585	18698.098000	1493.516602	108.397125
-28879.670585	18698.098000	1492.456055	-94.491455
-28879.670585	18698.098000	1491.394531	85.675461
-28879.670585	18698.098000	1490.333008	78.927704
-28879.670585	18698.098000	1489.271484	182.573898
-28879.670585	18698.098000	1488.209961	-85.173019
-28879.670585	18698.098000	1487.148438	95.118599
-28879.670585	18698.098000	1486.085938	113.401848
-28879.670585	18698.098000	1485.023438	91.253098
-28879.670585	18698.098000	1483.960938	-234.468262
-28879.670585	18698.098000	1482.898438	74.169403
-28879.670585	18698.098000	1481.834961	317.554993
-28879.670585	18698.098000	1480.772461	95.596329
-28879.670585	18698.098000	1479.708984	89.563431
-28879.670585	18698.098000	1478.644531	191.431076
-28879.670585	18698.098000	1477.581055	232.675095
-28879.670585	18698.098000	1476.517578	224.590698
-28879.670585	18698.098000	1475.453125	295.137451
-28879.670585	18698.098000	1474.388672	114.408569
-28879.670585	18698.098000	1473.323242	-55.105007
-28879.670585	18698.098000	1472.258789	367.976196
-28879.670585	18698.098000	1471.193359	283.886017
-28879.670585	18698.098000	1470.127930	466.908844
-28879.670585	18698.098000	1469.062500	468.011414
-28879.670585	18698.098000	1467.997070	335.004242
-28879.670585	18698.098000	1466.930664	334.235962
-28879.670585	18698.098000	1465.865234	311.069672
-28879.670585	18698.098000	1464.798828	37.618805
-28879.670585	18698.098000	1463.731445	213.862015
-28879.670585	18698.098000	1462.665039	307.146362
-28879.670585	18698.098000	1461.597656	270.862976
-28879.670585	18698.098000	1460.530273	418.270294
-28879.670585	18698.098000	1459.462891	348.288147
-28879.670585	18698.098000	1458.395508	406.670319
-28879.670585	18698.098000	1457.327148	286.160522
-28879.670585	18698.098000	1456.259766	479.950745
-28879.670585	18698.098000	1455.191406	358.559814
-28879.670585	18698.098000	1454.123047	243.089523
-28879.670585	18698.098000	1453.053711	364.022034
-28879.670585	18698.098000	1451.985352	310.984406
-28879.670585	18698.098000	1450.916016	158.255707
-28879.670585	18698.098000	1449.846680	588.615173
-28879.670585	18698.098000	1448.776367	187.060806
-28879.670585	18698.098000	1447.707031	388.828583
-28879.670585	18698.098000	1446.636719	421.278076
-28879.670585	18698.098000	1445.566406	451.030060
-28879.670585	18698.098000	1444.496094	173.912476
-28879.670585	18698.098000	1443.425781	177.159546
-28879.670585	18698.098000	1442.354492	326.730560
-28879.670585	18698.098000	1441.283203	99.228500
-28879.670585	18698.098000	1440.211914	311.354309
-28879.670585	18698.098000	1439.140625	138.199600
-28879.670585	18698.098000	1438.069336	276.516113
-28879.670585	18698.098000	1436.997070	218.876755
-28879.670585	18698.098000	1435.924805	250.661469
-28879.670585	18698.098000	1434.852539	288.702057
-28879.670585	18698.098000	1433.780273	-10.398168
-28879.670585	18698.098000	1432.707031	32.158493
-28879.670585	18698.098000	1431.633789	116.560326
-28879.670585	18698.098000	1430.560547	-81.274925
-28879.670585	18698.098000	1429.487305	-22.951019
-28879.670585	18698.098000	1428.413086	-32.736443
-28879.670585	18698.098000	1427.339844	8.418777
-28879.670585	18698.098000	1426.265625	31.809986
-28879.670585	18698.098000	1425.191406	-2.312403
-28879.670585	18698.098000	1424.116211	199.343872
-28879.670585	18698.098000	1423.041992	183.617386
-28879.670585	18698.098000	1421.966797	-183.385544
-28879.670585	18698.098000	1420.891602	170.889938
-28879.670585	18698.098000	1419.816406	2.306826
-28879.670585	18698.098000	1418.740234	-145.348206
-28879.670585	18698.098000	1417.665039	192.329224
-28879.670585	18698.098000	1416.588867	198.115906
-28879.670585	18698.098000	1415.512695	68.289040
-28879.670585	18698.098000	1414.435547	119.162842
-28879.670585	18698.098000	1413.359375	303.949829
-28879.670585	18698.098000	1412.282227	198.571732
-28879.670585	18698.098000	1411.205078	48.110203
-28879.670585	18698.098000	1410.127930	20.330564
-28879.670585	18698.098000	1409.049805	-161.962509
-28879.670585	18698.098000	1407.972656	1.983977
-28879.670585	18698.098000	1406.894531	117.045380
-28879.670585	18698.098000	1405.816406	-111.497711
-28879.670585	18698.098000	1404.737305	183.440842
-28879.670585	18698.098000	1403.659180	129.783493
-28879.670585	18698.098000	1402.580078	93.070084
-28879.670585	18698.098000	1401.500977	254.280182
-28879.670585	18698.098000	1400.421875	57.932983
-28879.670585	18698.098000	1399.341797	-36.308998
-28879.670585	18698.098000	1398.262695	237.427353
-28879.670585	18698.098000	1397.182617	153.256577
-28879.670585	18698.098000	1396.102539	283.161865
-28879.670585	18698.098000	1395.021484	90.643845
-28879.670585	18698.098000	1393.941406	140.834976
-28879.670585	18698.098000	1392.860352	29.481028
-28879.670585	18698.098000	1391.779297	-104.581490
-28879.670585	18698.098000	1390.698242	137.662659
-28879.670585	18698.098000	1389.616211	74.104919
-28879.670585	18698.098000	1388.535156	3.365536
-28879.670585	18698.098000	1387.453125	196.116516
-28879.670585	18698.098000	1386.371094	297.367950
-28879.670585	18698.098000	1385.288086	67.718506
-28879.670585	18698.098000	1384.206055	38.325123
-28879.670585	18698.098000	1383.123047	142.578918
-28879.670585	18698.098000	1382.040039	122.872597
-28879.670585	18698.098000	1380.957031	-47.235676
-28879.670585	18698.098000	1379.873047	205.632248
-28879.670585	18698.098000	1378.789063	178.306427
-28879.670585	18698.098000	1377.705078	194.964142
-28879.670585	18698.098000	1376.621094	203.940903
-28879.670585	18698.098000	1375.537109	205.675720
-28879.670585	18698.098000	1374.452148	469.513733
-28879.670585	18698.098000	1373.367188	446.466370
-28879.670585	18698.098000	1372.282227	318.748077
-28879.670585	18698.098000	1371.197266	316.391541
-28879.670585	18698.098000	1370.112305	419.124847
-28879.670585	18698.098000	1369.026367	377.213257
-28879.670585	18698.098000	1367.940430	45.076176
-28879.670585	18698.098000	1366.854492	375.986603
-28879.670585	18698.098000	1365.767578	335.340729
-28879.670585	18698.098000	1364.681641	179.848648
-28879.670585	18698.098000	1363.594727	213.006439
-28879.670585	18698.098000	1362.507813	364.571198
-28879.670585	18698.098000	1361.419922	202.388535
-28879.670585	18698.098000	1360.333008	314.170135
-28879.670585	18698.098000	1359.245117	226.219009
-28879.670585	18698.098000	1358.157227	283.499146
-28879.670585	18698.098000	1357.069336	446.043243
-28879.670585	18698.098000	1355.981445	193.305878
-28879.670585	18698.098000	1354.892578	355.882843
-28879.670585	18698.098000	1353.803711	235.626602
-28879.670585	18698.098000	1352.714844	260.360931
-28879.670585	18698.098000	1351.625000	135.570297
-28879.670585	18698.098000	1350.536133	370.729492
-28879.670585	18698.098000	1349.446289	461.690887
-28879.670585	18698.098000	1348.356445	426.390839
-28879.670585	18698.098000	1347.266602	280.977264
-28879.670585	18698.098000	1346.175781	372.987518
-28879.670585	18698.098000	1345.085938	606.538696
-28879.670585	18698.098000	1343.995117	462.606445
-28879.670585	18698.098000	1342.903320	454.852509
-28879.670585	18698.098000	1341.812500	203.880020
-28879.670585	18698.098000	1340.720703	367.700043
-28879.670585	18698.098000	1339.629883	394.054291
-28879.670585	18698.098000	1338.538086	501.920776
-28879.670585	18698.098000	1337.445313	379.498199
-28879.670585	18698.098000	1336.353516	381.311340
-28879.670585	18698.098000	1335.260742	390.109802
-28879.670585	18698.098000	1334.167969	17.376396
-28879.670585	18698.098000	1333.075195	232.053909
-28879.670585	18698.098000	1331.981445	119.408615
-28879.670585	18698.098000	1330.888672	166.996201
-28879.670585	18698.098000	1329.794922	142.099777
-28879.670585	18698.098000	1328.701172	395.526184
-28879.670585	18698.098000	1327.606445	387.315247
-28879.670585	18698.098000	1326.512695	363.659119
-28879.670585	18698.098000	1325.417969	322.757172
-28879.670585	18698.098000	1324.323242	405.302826
-28879.670585	18698.098000	1323.227539	285.375031
-28879.670585	18698.098000	1322.132813	263.462677
-28879.670585	18698.098000	1321.037109	157.874664
-28879.670585	18698.098000	1319.941406	310.401978
-28879.670585	18698.098000	1318.845703	403.713989
-28879.670585	18698.098000	1317.750000	282.509369
-28879.670585	18698.098000	1316.653320	356.240173
-28879.670585	18698.098000	1315.556641	137.586060
-28879.670585	18698.098000	1314.459961	325.603119
-28879.670585	18698.098000	1313.363281	155.466522
-28879.670585	18698.098000	1312.265625	301.790558
-28879.670585	18698.098000	1311.167969	301.071198
-28879.670585	18698.098000	1310.070313	215.440674
-28879.670585	18698.098000	1308.972656	378.083984
-28879.670585	18698.098000	1307.874023	442.767731
-28879.670585	18698.098000	1306.776367	152.824173
-28879.670585	18698.098000	1305.677734	206.935608
-28879.670585	18698.098000	1304.579102	141.109619
-28879.670585	18698.098000	1303.479492	-17.963257
-28879.670585	18698.098000	1302.380859	97.361580
-28879.670585	18698.098000	1301.281250	136.237244
-28879.670585	18698.098000	1300.181641	300.546295
-28879.670585	18698.098000	1299.081055	60.696106
-28879.670585	18698.098000	1297.981445	34.352646
-28879.670585	18698.098000	1296.880859	294.579285
-28879.670585	18698.098000	1295.780273	76.819084
-28879.670585	18698.098000	1294.679688	161.706238
-28879.670585	18698.098000	1293.578125	181.107132
-28879.670585	18698.098000	1292.476563	-44.105499
-28879.670585	18698.098000	1291.375000	182.854874
-28879.670585	18698.098000	1290.273438	74.157623
-28879.670585	18698.098000	1289.171875	-53.545486
-28879.670585	18698.098000	1288.069336	48.213535
-28879.670585	18698.098000	1286.966797	10.561284
-28879.670585	18698.098000	1285.864258	-49.534054
-28879.670585	18698.098000	1284.761719	37.512901
-28879.670585	18698.098000	1283.658203	8.129133
-28879.670585	18698.098000	1282.554688	-40.039242
-28879.670585	18698.098000	1281.451172	75.300186
-28879.670585	18698.098000	1280.347656	-3.993774
-28879.670585	18698.098000	1279.244141	-59.993935
-28879.670585	18698.098000	1278.139648	-34.165882
-28879.670585	18698.098000	1277.035156	66.837669
-28879.670585	18698.098000	1275.930664	-211.130325
-28879.670585	18698.098000	1274.825195	-122.334259
-28879.670585	18698.098000	1273.720703	30.760832
-28879.670585	18698.098000	1272.615234	56.794651
-28879.670585	18698.098000	1271.508789	92.954147
-28879.670585	18698.098000	1270.403320	-113.766716
-28879.670585	18698.098000	1269.297852	-130.728027
-28879.670585	18698.098000	1268.191406	9.383908
-28879.670585	18698.098000	1267.084961	21.693748
-28879.670585	18698.098000	1265.977539	-46.637150
-28879.670585	18698.098000	1264.871094	-53.181171
-28879.670585	18698.098000	1263.763672	-102.275215
-28879.670585	18698.098000	1262.656250	60.443676
-28879.670585	18698.098000	1261.548828	-16.843388
-28879.670585	18698.098000	1260.440430	-125.621559
-28879.670585	18698.098000	1259.333008	-83.144775
-28879.670585	18698.098000	1258.224609	-81.353531
-28879.670585	18698.098000	1257.115234	-104.361649
-28879.670585	18698.098000	1256.006836	-178.061676
-28879.670585	18698.098000	1254.897461	-38.708622
-28879.670585	18698.098000	1253.788086	86.039093
-28879.670585	18698.098000	1252.678711	-150.738983
-28879.670585	18698.098000	1251.569336	-90.744514
-28879.670585	18698.098000	1250.458984	-6.695152
-28879.670585	18698.098000	1249.349609	121.700279
-28879.670585	18698.098000	1248.239258	91.719887
-28879.670585	18698.098000	1247.127930	29.757662
-28879.670585	18698.098000	1246.017578	88.136116
-28879.670585	18698.098000	1244.906250	-74.933113
-28879.670585	18698.098000	1243.794922	-29.799763
-28879.670585	18698.098000	1242.683594	-23.175249
-28879.670585	18698.098000	1241.571289	-50.324177
-28879.670585	18698.098000	1240.459961	-104.488342
-28879.670585	18698.098000	1239.347656	-66.048027
-28879.670585	18698.098000	1238.234375	82.371239
-28879.670585	18698.098000	1237.122070	188.068787
-28879.670585	18698.098000	1236.008789	-43.507656
-28879.670585	18698.098000	1234.896484	-24.252020
-28879.670585	18698.098000	1233.782227	28.398033
-28879.670585	18698.098000	1232.668945	207.693680
-28879.670585	18698.098000	1231.555664	-134.975433
-28879.670585	18698.098000	1230.441406	-36.838917
-28879.670585	18698.098000	1229.327148	-63.929832
-28879.670585	18698.098000	1228.211914	70.242905
-28879.670585	18698.098000	1227.097656	30.486799
-28879.670585	18698.098000	1225.982422	27.600847
-28879.670585	18698.098000	1224.867188	78.138016
-28879.670585	18698.098000	1223.751953	-22.302519
-28879.670585	18698.098000	1222.635742	157.352280
-28879.670585	18698.098000	1221.520508	58.667938
-28879.670585	18698.098000	1220.404297	-86.558678
-28879.670585	18698.098000	1219.287109	11.494220
-28879.670585	18698.098000	1218.170898	-12.658463
-28879.670585	18698.098000	1217.053711	7.696016
-28879.670585	18698.098000	1215.936523	-71.432137
-28879.670585	18698.098000	1214.819336	40.302376
-28879.670585	18698.098000	1213.702148	-12.891849
-28879.670585	18698.098000	1212.583984	-17.963446
-28879.670585	18698.098000	1211.465820	-23.388430
-28879.670585	18698.098000	1210.347656	37.535946
-28879.670585	18698.098000	1209.229492	-159.393829
-28879.670585	18698.098000	1208.110352	90.621590
-28879.670585	18698.098000	1206.992188	25.919909
-28879.670585	18698.098000	1205.873047	84.496613
-28879.670585	18698.098000	1204.752930	214.359070
-28879.670585	18698.098000	1203.633789	5.692846
-28879.670585	18698.098000	1202.513672	92.290138
-28879.670585	18698.098000	1201.393555	10.591230
-28879.670585	18698.098000	1200.273438	48.279377
-28879.670585	18698.098000	1199.152344	-23.725193
-28879.670585	18698.098000	1198.032227	123.091507
-28879.670585	18698.098000	1196.911133	68.486259
-28879.670585	18698.098000	1195.790039	50.016708
-28879.670585	18698.098000	1194.667969	82.251411
-28879.670585	18698.098000	1193.545898	-13.687473
-28879.670585	18698.098000	1192.424805	21.894606
-28879.670585	18698.098000	1191.301758	76.145210
-28879.670585	18698.098000	1190.179688	54.494301
-28879.670585	18698.098000	1189.056641	49.674847
-28879.670585	18698.098000	1187.933594	-45.233791
-28879.670585	18698.098000	1186.810547	38.180214
-28879.670585	18698.098000	1185.687500	62.336517
-28879.670585	18698.098000	1184.563477	10.781953
-28879.670585	18698.098000	1183.440430	23.365366
-28879.670585	18698.098000	1182.316406	-67.816383
-28879.670585	18698.098000	1181.191406	31.260769
-28879.670585	18698.098000	1180.067383	-28.499439
-28879.670585	18698.098000	1178.942383	3.621741
-28879.670585	18698.098000	1177.817383	13.128818
-28879.670585	18698.098000	1176.692383	-58.492111
-28879.670585	18698.098000	1175.566406	63.146385
-28879.670585	18698.098000	1174.440430	9.598744
-28879.670585	18698.098000	1173.314453	-68.550293
-28879.670585	18698.098000	1172.188477	247.281097
-28879.670585	18698.098000	1171.062500	188.198166
-28879.670585	18698.098000	1169.935547	55.571609
-28879.670585	18698.098000	1168.808594	41.425789
-28879.670585	18698.098000	1167.681641	117.775154
-28879.670585	18698.098000	1166.553711	129.844803
-28879.670585	18698.098000	1165.426758	-9.701769
-28879.670585	18698.098000	1164.298828	117.743004
-28879.670585	18698.098000	1163.170898	-36.765079
-28879.670585	18698.098000	1162.041992	-51.420959
-28879.670585	18698.098000	1160.914063	-104.473915
-28879.670585	18698.098000	1159.785156	-74.742439
-28879.670585	18698.098000	1158.656250	46.053082
-28879.670585	18698.098000	1157.526367	-71.490433
-28879.670585	18698.098000	1156.397461	-26.752815
-28879.670585	18698.098000	1155.267578	-20.555742
-28879.670585	18698.098000	1154.137695	154.153015
-28879.670585	18698.098000	1153.006836	-39.939892
-28879.670585	18698.098000	1151.876953	-28.001091
-28879.670585	18698.098000	1150.746094	93.856445
-28879.670585	18698.098000	1149.615234	-160.366638
-28879.670585	18698.098000	1148.484375	9.554187
-28879.670585	18698.098000	1147.352539	111.185272
-28879.670585	18698.098000	1146.220703	-13.627884
-28879.670585	18698.098000	1145.088867	-109.745697
-28879.670585	18698.098000	1143.957031	-86.398720
-28879.670585	18698.098000	1142.825195	-178.615326
-28879.670585	18698.098000	1141.692383	-43.074448
-28879.670585	18698.098000	1140.559570	70.313782
-28879.670585	18698.098000	1139.426758	-115.357903
-28879.670585	18698.098000	1138.292969	-26.143541
-28879.670585	18698.098000	1137.159180	44.999023
-28879.670585	18698.098000	1136.025391	104.167412
-28879.670585	18698.098000	1134.891602	150.955353
-28879.670585	18698.098000	1133.757813	118.852081
-28879.670585	18698.098000	1132.623047	167.056335
-28879.670585	18698.098000	1131.488281	168.797012
-28879.670585	18698.098000	1130.353516	220.526245
-28879.670585	18698.098000	1129.217773	196.853836
-28879.670585	18698.098000	1128.083008	185.667587
-28879.670585	18698.098000	1126.947266	71.331581
-28879.670585	18698.098000	1125.811523	197.273163
-28879.670585	18698.098000	1124.674805	298.932068
-28879.670585	18698.098000	1123.539063	200.679840
-28879.670585	18698.098000	1122.402344	260.591217
-28879.670585	18698.098000	1121.265625	25.809509
-28879.670585	18698.098000	1120.127930	127.092697
-28879.670585	18698.098000	1118.990234	85.304916
-28879.670585	18698.098000	1117.853516	179.457916
-28879.670585	18698.098000	1116.714844	324.297913
-28879.670585	18698.098000	1115.577148	178.113968
-28879.670585	18698.098000	1114.439453	310.704041
-28879.670585	18698.098000	1113.300781	102.819054
-28879.670585	18698.098000	1112.162109	67.441551
-28879.670585	18698.098000	1111.022461	306.414185
-28879.670585	18698.098000	1109.883789	242.979660
-28879.670585	18698.098000	1108.744141	230.621933
-28879.670585	18698.098000	1107.604492	212.580612
-28879.670585	18698.098000	1106.463867	169.150360
-28879.670585	18698.098000	1105.324219	264.632751
-28879.670585	18698.098000	1104.183594	198.908981
-28879.670585	18698.098000	1103.042969	159.930710
-28879.670585	18698.098000	1101.902344	200.959808
-28879.670585	18698.098000	1100.760742	359.468475
-28879.670585	18698.098000	1099.619141	160.516937
-28879.670585	18698.098000	1098.477539	172.091629
-28879.670585	18698.098000	1097.335938	320.777679
-28879.670585	18698.098000	1096.193359	304.577515
-28879.670585	18698.098000	1095.051758	269.787476
-28879.670585	18698.098000	1093.909180	340.352692
-28879.670585	18698.098000	1092.765625	278.632538
-28879.670585	18698.098000	1091.623047	257.075043
-28879.670585	18698.098000	1090.479492	205.133835
-28879.670585	18698.098000	1089.335938	125.605820
-28879.670585	18698.098000	1088.192383	290.693298
-28879.670585	18698.098000	1087.047852	165.933594
-28879.670585	18698.098000	1085.903320	353.623688
-28879.670585	18698.098000	1084.758789	389.519684
-28879.670585	18698.098000	1083.614258	253.925430
-28879.670585	18698.098000	1082.469727	209.225952
-28879.670585	18698.098000	1081.324219	152.835327
-28879.670585	18698.098000	1080.178711	-23.344742
-28879.670585	18698.098000	1079.033203	275.748474
-28879.670585	18698.098000	1077.886719	377.833649
-28879.670585	18698.098000	1076.740234	252.272552
-28879.670585	18698.098000	1075.593750	267.677765
-28879.670585	18698.098000	1074.447266	278.080719
-28879.670585	18698.098000	1073.300781	90.717049
-28879.670585	18698.098000	1072.153320	241.398056
-28879.670585	18698.098000	1071.005859	114.757202
-28879.670585	18698.098000	1069.858398	253.430466
-28879.670585	18698.098000	1068.709961	244.666595
-28879.670585	18698.098000	1067.561523	181.477066
-28879.670585	18698.098000	1066.413086	256.241058
-28879.670585	18698.098000	1065.264648	250.176605
-28879.670585	18698.098000	1064.116211	400.196075
-28879.670585	18698.098000	1062.966797	306.712158
-28879.670585	18698.098000	1061.817383	330.367371
-28879.670585	18698.098000	1060.667969	249.714691
-28879.670585	18698.098000	1059.517578	484.322968
-28879.670585	18698.098000	1058.368164	476.746826
-28879.670585	18698.098000	1057.217773	357.240723
-28879.670585	18698.098000	1056.067383	221.707153
-28879.670585	18698.098000	1054.916016	294.456024
-28879.670585	18698.098000	1053.764648	304.279572
-28879.670585	18698.098000	1052.613281	422.292267
-28879.670585	18698.098000	1051.461914	223.085312
-28879.670585	18698.098000	1050.310547	194.031036
-28879.670585	18698.098000	1049.158203	132.510559
-28879.670585	18698.098000	1048.005859	142.364044
-28879.670585	18698.098000	1046.853516	187.140640
-28879.670585	18698.098000	1045.700195	146.343430
-28879.670585	18698.098000	1044.547852	325.323639
-28879.670585	18698.098000	1043.394531	212.717941
-28879.670585	18698.098000	1042.240234	194.253128
-28879.670585	18698.098000	1041.086914	26.508142
-28879.670585	18698.098000	1039.932617	133.365601
-28879.670585	18698.098000	1038.778320	270.843658
-28879.670585	18698.098000	1037.624023	-5.726303
-28879.670585	18698.098000	1036.469727	-4.508973
-28879.670585	18698.098000	1035.314453	330.960419
-28879.670585	18698.098000	1034.159180	189.561478
-28879.670585	18698.098000	1033.003906	122.146095
-28879.670585	18698.098000	1031.847656	212.961212
-28879.670585	18698.098000	1030.692383	273.629211
-28879.670585	18698.098000	1029.536133	165.546890
-28879.670585	18698.098000	1028.378906	160.059280
-28879.670585	18698.098000	1027.222656	34.157040
-28879.670585	18698.098000	1026.065430	172.416565
-28879.670585	18698.098000	1024.908203	27.976433
-28879.670585	18698.098000	1023.750977	220.544037
-28879.670585	18698.098000	1022.593750	159.356049
-28879.670585	18698.098000	1021.435547	56.233440
-28879.670585	18698.098000	1020.277344	-51.606987
-28879.670585	18698.098000	1019.119141	109.076340
-28879.670585	18698.098000	1017.959961	-145.011902
-28879.670585	18698.098000	1016.800781	156.985809
-28879.670585	18698.098000	1015.641602	127.665512
-28879.670585	18698.098000	1014.482422	280.093964
-28879.670585	18698.098000	1013.323242	172.256912
-28879.670585	18698.098000	1012.163086	-57.351040
-28879.670585	18698.098000	1011.002930	-8.082253
-28879.670585	18698.098000	1009.842773	-59.328941
-28879.670585	18698.098000	1008.681641	-113.329926
-28879.670585	18698.098000	1007.520508	190.007797
-28879.670585	18698.098000	1006.359375	-114.020470
-28879.670585	18698.098000	1005.198242	249.922516
-28879.670585	18698.098000	1004.037109	99.001190
-28879.670585	18698.098000	1002.875000	19.770576
-28879.670585	18698.098000	1001.712891	17.227098
-28879.670585	18698.098000	1000.550781	35.925800
-28879.670585	18698.098000	999.387695	-10.640840
-28879.670585	18698.098000	998.224609	136.118378
-28879.670585	18698.098000	997.061523	79.935249
-28879.670585	18698.098000	995.898438	51.008373
-28879.670585	18698.098000	994.734375	-127.100510
-28879.670585	18698.098000	993.571289	-58.068558
-28879.670585	18698.098000	992.407227	-13.754075
-28879.670585	18698.098000	991.242188	100.645973
-28879.670585	18698.098000	990.078125	12.073646
-28879.670585	18698.098000	988.913086	63.523087
-28879.670585	18698.098000	987.748047	74.710625
-28879.670585	18698.098000	986.583008	157.847519
-28879.670585	18698.098000	985.416992	-17.156919
-28879.670585	18698.098000	984.250977	-77.461349
-28879.670585	18698.098000	983.084961	153.097656
-28879.670585	18698.098000	981.918945	35.366119
-28879.670585	18698.098000	980.751953	-150.253555
-28879.670585	18698.098000	979.584961	33.206009
-28879.670585	18698.098000	978.417969	36.200211
-28879.670585	18698.098000	977.250977	-5.684690
-28879.670585	18698.098000	976.083008	282.046417
-28879.670585	18698.098000	974.915039	-96.712288
-28879.670585	18698.098000	973.747070	-48.084518
-28879.670585	18698.098000	972.579102	-54.440090
-28879.670585	18698.098000	971.410156	-39.449944
-28879.670585	18698.098000	970.242188	94.990448
-28879.670585	18698.098000	969.072266	35.577541
-28879.670585	18698.098000	967.903320	37.006107
-28879.670585	18698.098000	966.733398	210.449509
-28879.670585	18698.098000	965.563477	76.367386
-28879.670585	18698.098000	964.393555	-141.211639
-28879.670585	18698.098000	963.223633	67.941223
-28879.670585	18698.098000	962.052734	168.359039
-28879.670585	18698.098000	960.881836	14.213403
-28879.670585	18698.098000	959.710938	-93.719055
-28879.670585	18698.098000	958.540039	7.238697
-28879.670585	18698.098000	957.368164	218.760300
-28879.670585	18698.098000	956.196289	-5.847875
-28879.670585	18698.098000	955.024414	-131.000610
-28879.670585	18698.098000	953.851563	-1.822151
-28879.670585	18698.098000	952.679688	264.361542
-28879.670585	18698.098000	951.506836	42.853493
-28879.670585	18698.098000	950.333984	118.740341
-28879.670585	18698.098000	949.160156	92.211281
-28879.670585	18698.098000	947.986328	-20.401913
-28879.670585	18698.098000	946.812500	25.020132
-28879.670585	18698.098000	945.638672	37.421974
-28879.670585	18698.098000	944.464844	88.930786
-28879.670585	18698.098000	943.290039	99.306030
-28879.670585	18698.098000	942.115234	-78.962318
-28879.670585	18698.098000	940.940430	-43.754906
-28879.670585	18698.098000	939.764648	5.701369
-28879.670585	18698.098000	938.588867	-45.365234
-28879.670585	18698.098000	937.413086	-122.984802
-28879.670585	18698.098000	936.237305	57.405354
-28879.670585	18698.098000	935.060547	-143.289856
-28879.670585	18698.098000	933.883789	-190.065811
-28879.670585	18698.098000	932.707031	164.384277
-28879.670585	18698.098000	931.530273	209.505920
-28879.670585	18698.098000	930.352539	2.925651
-28879.670585	18698.098000	929.175781	84.946487
-28879.670585	18698.098000	927.998047	78.962013
-28879.670585	18698.098000	926.819336	38.234070
-28879.670585	18698.098000	925.641602	81.361565
-28879.670585	18698.098000	924.462891	48.786877
-28879.670585	18698.098000	923.284180	104.172791
-28879.670585	18698.098000	922.104492	-57.222347
-28879.670585	18698.098000	920.924805	-34.547276
-28879.670585	18698.098000	919.746094	-29.339409
-28879.670585	18698.098000	919.551758	-76.435875
-28879.670585	18698.098000	918.386719	128.057129
-28879.670585	18698.098000	917.220703	-70.048828
-28879.670585	18698.098000	916.054688	126.191269
-28879.670585	18698.098000	914.887695	-116.763138
-28879.670585	18698.098000	913.721680	116.161453
-28879.670585	18698.098000	912.554688	-14.407137
-28879.670585	18698.098000	911.387695	-24.493668
-28879.670585	18698.098000	910.220703	226.640198
-28879.670585	18698.098000	909.052734	39.002724
-28879.670585	18698.098000	907.885742	185.984756
-28879.670585	18698.098000	906.717773	43.300987
-28879.670585	18698.098000	905.548828	29.142862
-28879.670585	18698.098000	904.380859	216.813324
-28879.670585	18698.098000	903.211914	212.816101
-28879.670585	18698.098000	902.042969	241.426224
-28879.670585	18698.098000	900.874023	-74.301643
-28879.670585	18698.098000	899.704102	249.725677
-28879.670585	18698.098000	898.535156	-74.021889
-28879.670585	18698.098000	897.365234	93.087280
-28879.670585	18698.098000	896.194336	78.949638
-28879.670585	18698.098000	895.024414	211.357361
-28879.670585	18698.098000	893.853516	309.121735
-28879.670585	18698.098000	892.682617	-52.955910
-28879.670585	18698.098000	891.511719	83.470100
-28879.670585	18698.098000	890.340820	55.110638
-28879.670585	18698.098000	889.168945	-1.699007
-28879.670585	18698.098000	887.997070	-162.161423
-28879.670585	18698.098000	886.825195	187.584641
-28879.670585	18698.098000	885.653320	-23.653269
-28879.670585	18698.098000	884.480469	-161.662949
-28879.670585	18698.098000	883.307617	5.062962
-28879.670585	18698.098000	882.134766	-49.634827
-28879.670585	18698.098000	880.961914	-43.400944
-28879.670585	18698.098000	879.788086	-31.076918
-28879.670585	18698.098000	878.614258	-337.396637
-28879.670585	18698.098000	877.440430	-71.378777
-28879.670585	18698.098000	876.266602	251.332977
-28879.670585	18698.098000	875.091797	194.623642
-28879.670585	18698.098000	873.916992	107.517105
-28879.670585	18698.098000	872.742188	196.834518
-28879.670585	18698.098000	871.567383	150.301315
-28879.670585	18698.098000	870.391602	-3.623320
-28879.670585	18698.098000	869.215820	-54.149872
-28879.670585	18698.098000	868.040039	211.367981
-28879.670585	18698.098000	866.864258	203.347046
-28879.670585	18698.098000	865.687500	120.405647
-28879.670585	18698.098000	864.510742	1.053018
-28879.670585	18698.098000	863.333984	-89.915131
-28879.670585	18698.098000	862.157227	17.475609
-28879.670585	18698.098000	860.979492	179.452896
-28879.670585	18698.098000	859.802734	102.653557
-28879.670585	18698.098000	858.625000	110.829979
-28879.670585	18698.098000	857.446289	-81.183113
-28879.670585	18698.098000	856.268555	163.552872
-28879.670585	18698.098000	855.089844	-38.506592
-28879.670585	18698.098000	853.911133	18.177000
-28879.670585	18698.098000	852.731445	133.428894
-28879.670585	18698.098000	851.552734	135.503128
-28879.670585	18698.098000	850.373047	236.534790
-28879.670585	18698.098000	849.193359	220.407120
-28879.670585	18698.098000	848.013672	-153.039322
-28879.670585	18698.098000	846.833008	89.257950
-28879.670585	18698.098000	845.652344	22.707558
-28879.670585	18698.098000	844.471680	18.718405
-28879.670585	18698.098000	843.291016	-67.976395
-28879.670585	18698.098000	842.110352	-23.558779
-28879.670585	18698.098000	840.928711	24.868652
-28879.670585	18698.098000	839.747070	-23.492502
-28879.670585	18698.098000	838.564453	204.275635
-28879.670585	18698.098000	837.382813	292.900848
-28879.670585	18698.098000	836.200195	36.986729
-28879.670585	18698.098000	835.017578	-112.080513
-28879.670585	18698.098000	833.834961	40.971249
-28879.670585	18698.098000	832.651367	113.419205
-28879.670585	18698.098000	831.467773	67.062645
-28879.670585	18698.098000	830.284180	133.415878
-28879.670585	18698.098000	829.100586	-19.589806
-28879.670585	18698.098000	827.916992	191.573593
-28879.670585	18698.098000	826.732422	203.523987
-28879.670585	18698.098000	825.547852	96.815598
-28879.670585	18698.098000	824.363281	-100.332214
-28879.670585	18698.098000	823.177734	22.189653
-28879.670585	18698.098000	821.992188	110.484253
-28879.670585	18698.098000	820.806641	46.026806
-28879.670585	18698.098000	819.621094	-52.566841
-28879.670585	18698.098000	818.434570	-12.551909
-28879.670585	18698.098000	817.249023	55.538929
-28879.670585	18698.098000	816.062500	-39.022182
-28879.670585	18698.098000	814.875000	131.386398
-28879.670585	18698.098000	813.688477	84.979156
-28879.670585	18698.098000	812.500977	183.032028
-28879.670585	18698.098000	811.313477	80.437241
-28879.670585	18698.098000	810.125977	214.514709
-28879.670585	18698.098000	808.937500	-64.521187
-28879.670585	18698.098000	807.749023	61.480579
-28879.670585	18698.098000	806.560547	51.123142
-28879.670585	18698.098000	805.372070	62.792831
-28879.670585	18698.098000	804.182617	60.418793
-28879.670585	18698.098000	802.994141	144.150330
-28879.670585	18698.098000	801.803711	33.584221
-28879.670585	18698.098000	800.614258	-108.995262
-28879.670585	18698.098000	799.424805	34.714058
-28879.670585	18698.098000	798.234375	-67.818710
-28879.670585	18698.098000	797.043945	101.795876
-28879.670585	18698.098000	795.852539	-6.750453
-28879.670585	18698.098000	794.662109	-5.272020
-28879.670585	18698.098000	793.470703	-77.802010
-28879.670585	18698.098000	792.279297	-100.344444
-28879.670585	18698.098000	791.087891	33.010445
-28879.670585	18698.098000	789.895508	-75.523262
-28879.670585	18698.098000	788.703125	211.573914
-28879.670585	18698.098000	787.510742	47.065254
-28879.670585	18698.098000	786.318359	106.286316
-28879.670585	18698.098000	785.125000	-20.240297
-28879.670585	18698.098000	783.931641	-4.998932
-28879.670585	18698.098000	782.738281	-161.443085
-28879.670585	18698.098000	781.544922	-36.478413
-28879.670585	18698.098000	780.350586	-174.945679
-28879.670585	18698.098000	779.156250	59.627926
-28879.670585	18698.098000	777.961914	-11.051928
-28879.670585	18698.098000	776.767578	149.560303
-28879.670585	18698.098000	775.572266	200.438217
-28879.670585	18698.098000	774.376953	95.806679
-28879.670585	18698.098000	773.181641	70.895790
-28879.670585	18698.098000	771.986328	39.987450
-28879.670585	18698.098000	770.790039	311.820801
-28879.670585	18698.098000	769.593750	49.815125
-28879.670585	18698.098000	768.397461	38.750389
-28879.670585	18698.098000	767.201172	99.320595
-28879.670585	18698.098000	766.003906	60.328285
-28879.670585	18698.098000	764.806641	104.889168
-28879.670585	18698.098000	763.609375	43.963879
-28879.670585	18698.098000	762.412109	-34.868790
-28879.670585	18698.098000	761.213867	47.369404
-28879.670585	18698.098000	760.015625	24.171259
-28879.670585	18698.098000	758.817383	-46.754528
-28879.670585	18698.098000	757.618164	-4.409270
-28879.670585	18698.098000	756.419922	29.934404
-28879.670585	18698.098000	755.220703	223.146194
-28879.670585	18698.098000	754.021484	193.807938
-28879.670585	18698.098000	752.821289	9.571546
-28879.670585	18698.098000	751.621094	95.363678
-28879.670585	18698.098000	750.420898	127.494644
-28879.670585	18698.098000	749.220703	-17.032848
-28879.670585	18698.098000	748.020508	227.319077
-28879.670585	18698.098000	746.819336	191.855576
-28879.670585	18698.098000	745.618164	23.500517
-28879.670585	18698.098000	744.416992	7.847493
-28879.670585	18698.098000	743.214844	4.059968
-28879.670585	18698.098000	742.012695	-31.473185
-28879.670585	18698.098000	740.810547	55.822102
-28879.670585	18698.098000	739.608398	34.084358
-28879.670585	18698.098000	738.406250	97.486313
-28879.670585	18698.098000	737.203125	-39.177811
-28879.670585	18698.098000	736.000000	87.492790
-28879.670585	18698.098000	734.795898	-3.659838
-28879.670585	18698.098000	733.592773	-51.277115
-28879.670585	18698.098000	732.388672	33.653255
-28879.670585	18698.098000	731.184570	162.030289
-28879.670585	18698.098000	729.979492	47.052418
-28879.670585	18698.098000	728.775391	64.563866
-28879.670585	18698.098000	727.570313	-64.261162
-28879.670585	18698.098000	726.365234	-70.527367
-28879.670585	18698.098000	725.160156	83.234009
-28879.670585	18698.098000	723.954102	100.571884
-28879.670585	18698.098000	722.748047	106.012543
-28879.670585	18698.098000	721.541992	28.468145
-28879.670585	18698.098000	720.334961	59.512951
-28879.670585	18698.098000	719.128906	-0.301151
-28879.670585	18698.098000	717.921875	-48.284718
-28879.670585	18698.098000	716.714844	-137.724701
-28879.670585	18698.098000	715.506836	-138.387726
-28879.670585	18698.098000	714.298828	-115.421013
-28879.670585	18698.098000	713.090820	-108.277512
-28879.670585	18698.098000	711.882813	-166.236343
-28879.670585	18698.098000	710.674805	26.125561
-28879.670585	18698.098000	709.465820	-169.861832
-28879.670585	18698.098000	708.256836	-125.426552
-28879.670585	18698.098000	707.047852	-92.866188
-28879.670585	18698.098000	705.837891	-20.965052
-28879.670585	18698.098000	704.627930	15.424949
-28879.670585	18698.098000	703.417969	71.449631
-28879.670585	18698.098000	702.208008	60.495064
-28879.670585	18698.098000	700.998047	45.573311
-28879.670585	18698.098000	699.787109	91.613876
-28879.670585	18698.098000	698.576172	-55.167515
-28879.670585	18698.098000	697.364258	-70.158760
-28879.670585	18698.098000	696.153320	42.623184
-28879.670585	18698.098000	694.941406	176.947067
-28879.670585	18698.098000	693.729492	-109.403824
-28879.670585	18698.098000	692.516602	83.779274
-28879.670585	18698.098000	691.304688	92.180878
-28879.670585	18698.098000	690.091797	47.517838
-28879.670585	18698.098000	688.878906	389.690826
-28879.670585	18698.098000	687.665039	272.279694
-28879.670585	18698.098000	686.451172	239.291626
-28879.670585	18698.098000	685.237305	159.189163
-28879.670585	18698.098000	684.023438	196.812790
-28879.670585	18698.098000	682.809570	232.430725
-28879.670585	18698.098000	681.594727	269.968506
-28879.670585	18698.098000	680.379883	130.989258
-28879.670585	18698.098000	679.165039	193.963394
-28879.670585	18698.098000	677.949219	396.044983
-28879.670585	18698.098000	676.733398	72.849998
-28879.670585	18698.098000	675.517578	-22.970375
-28879.670585	18698.098000	674.301758	143.698929
-28879.670585	18698.098000	673.084961	194.733658
-28879.670585	18698.098000	671.869141	185.028381
-28879.670585	18698.098000	670.651367	-38.060856
-28879.670585	18698.098000	669.434570	57.930046
-28879.670585	18698.098000	668.216797	36.460751
-28879.670585	18698.098000	667.000000	7.156515
-28879.670585	18698.098000	665.781250	-108.209709
-28879.670585	18698.098000	664.563477	194.922150
-28879.670585	18698.098000	663.344727	40.432648
-28879.670585	18698.098000	662.125977	204.597412
-28879.670585	18698.098000	660.907227	57.960484
-28879.670585	18698.098000	659.688477	20.786631
-28879.670585	18698.098000	658.468750	294.204651
-28879.670585	18698.098000	657.249023	221.822388
-28879.670585	18698.098000	656.029297	-180.521149
-28879.670585	18698.098000	654.808594	-73.191216
-28879.670585	18698.098000	653.587891	-104.486153
-28879.670585	18698.098000	652.367188	-47.964306
-28879.670585	18698.098000	651.146484	121.683205
-28879.670585	18698.098000	649.924805	-26.673460
-28879.670585	18698.098000	648.704102	-149.619385
-28879.670585	18698.098000	647.482422	21.888233
-28879.670585	18698.098000	646.259766	-28.890471
-28879.670585	18698.098000	645.037109	-19.230217
-28879.670585	18698.098000	643.815430	-3.726034
-28879.670585	18698.098000	642.591797	-25.233700
-28879.670585	18698.098000	641.369141	-31.144567
-28879.670585	18698.098000	640.145508	-31.202776
-28879.670585	18698.098000	638.921875	64.142242
-28879.670585	18698.098000	637.698242	75.763100
-28879.670585	18698.098000	636.474609	130.204285
-28879.670585	18698.098000	635.250000	258.568756
-28879.670585	18698.098000	634.025391	48.440285
-28879.670585	18698.098000	632.800781	182.634964
-28879.670585	18698.098000	631.575195	116.529251
-28879.670585	18698.098000	630.349609	-95.320335
-28879.670585	18698.098000	629.124023	-60.234417
-28879.670585	18698.098000	627.898438	64.243774
-28879.670585	18698.098000	626.671875	58.536774
-28879.670585	18698.098000	625.445313	200.471603
-28879.670585	18698.098000	624.218750	155.959167
-28879.670585	18698.098000	622.992188	218.275650
-28879.670585	18698.098000	621.764648	140.846695
-28879.670585	18698.098000	620.537109	110.059845
-28879.670585	18698.098000	619.309570	30.818279
-28879.670585	18698.098000	618.081055	-34.770576
-28879.670585	18698.098000	616.852539	54.858528
-28879.670585	18698.098000	615.624023	103.773857
-28879.670585	18698.098000	614.395508	42.215576
-28879.670585	18698.098000	613.166992	-65.786118
-28879.670585	18698.098000	611.937500	-55.489754
-28879.670585	18698.098000	610.708008	73.027252
-28879.670585	18698.098000	609.477539	-197.457397
-28879.670585	18698.098000	608.248047	151.902237
-28879.670585	18698.098000	607.017578	-79.652802
-28879.670585	18698.098000	605.787109	-12.957847
-28879.670585	18698.098000	604.555664	-0.416595
-28879.670585	18698.098000	603.325195	-196.783066
-28879.670585	18698.098000	602.093750	94.477188
-28879.670585	18698.098000	600.861328	-167.449097
-28879.670585	18698.098000	599.629883	-61.811352
-28879.670585	18698.098000	598.397461	-23.807201
-28879.670585	18698.098000	597.165039	91.563652
-28879.670585	18698.098000	595.932617	114.207527
-28879.670585	18698.098000	594.699219	80.892120
-28879.670585	18698.098000	593.465820	132.659561
-28879.670585	18698.098000	592.232422	157.449387
-28879.670585	18698.098000	590.999023	-6.900468
-28879.670585	18698.098000	589.764648	-55.273384
-28879.670585	18698.098000	588.530273	43.134224
-28879.670585	18698.098000	587.295898	104.929848
-28879.670585	18698.098000	586.061523	6.675070
-28879.670585	18698.098000	584.826172	153.501404
-28879.670585	18698.098000	583.590820	57.398670
-28879.670585	18698.098000	582.355469	67.466522
-28879.670585	18698.098000	581.119141	-128.603760
-28879.670585	18698.098000	579.882813	215.080750
-28879.670585	18698.098000	578.646484	92.479004
-28879.670585	18698.098000	577.410156	156.879089
-28879.670585	18698.098000	576.172852	244.472595
-28879.670585	18698.098000	574.935547	420.705719
-28879.670585	18698.098000	573.698242	196.579407
-28879.670585	18698.098000	572.460938	349.878723
-28879.670585	18698.098000	571.222656	326.209564
-28879.670585	18698.098000	569.984375	200.709167
-28879.670585	18698.098000	568.746094	244.636139
-28879.670585	18698.098000	567.506836	267.516541
-28879.670585	18698.098000	566.267578	382.791901
-28879.670585	18698.098000	565.028320	269.413147
-28879.670585	18698.098000	563.789063	448.306793
-28879.670585	18698.098000	562.548828	266.054810
-28879.670585	18698.098000	561.309570	416.319519
-28879.670585	18698.098000	560.068359	326.601624
-28879.670585	18698.098000	558.828125	304.254120
-28879.670585	18698.098000	557.586914	558.483643
-28879.670585	18698.098000	556.345703	373.238464
-28879.670585	18698.098000	555.104492	295.664459
-28879.670585	18698.098000	553.863281	245.120422
-28879.670585	18698.098000	552.621094	338.595093
-28879.670585	18698.098000	551.378906	455.183563
-28879.670585	18698.098000	550.136719	330.302032
-28879.670585	18698.098000	548.893555	443.303711
-28879.670585	18698.098000	547.650391	464.417877
-28879.670585	18698.098000	546.407227	378.377991
-28879.670585	18698.098000	545.164063	453.428162
-28879.670585	18698.098000	543.919922	519.026245
-28879.670585	18698.098000	542.675781	552.196655
-28879.670585	18698.098000	541.431641	484.045746
-28879.670585	18698.098000	540.186523	676.373169
-28879.670585	18698.098000	538.941406	591.315186
-28879.670585	18698.098000	537.696289	621.231689
-28879.670585	18698.098000	536.451172	496.363220
-28879.670585	18698.098000	535.205078	541.900391
-28879.670585	18698.098000	533.959961	650.656372
-28879.670585	18698.098000	532.712891	602.797119
-28879.670585	18698.098000	531.466797	793.985840
-28879.670585	18698.098000	530.219727	637.520630
-28879.670585	18698.098000	528.972656	748.708740
-28879.670585	18698.098000	527.725586	808.438599
-28879.670585	18698.098000	526.478516	1000.044739
-28879.670585	18698.098000	525.230469	699.213928
-28879.670585	18698.098000	523.982422	728.849182
-28879.670585	18698.098000	522.734375	733.817932
-28879.670585	18698.098000	521.485352	952.613525
-28879.670585	18698.098000	520.236328	883.457642
-28879.670585	18698.098000	518.987305	883.131287
-28879.670585	18698.098000	517.737305	1025.951050
-28879.670585	18698.098000	516.488281	1132.633423
-28879.670585	18698.098000	515.238281	1130.799805
-28879.670585	18698.098000	513.988281	1089.099243
-28879.670585	18698.098000	512.737305	744.690979
-28879.670585	18698.098000	511.486328	931.921814
-28879.670585	18698.098000	510.235352	875.488586
-28879.670585	18698.098000	508.984375	1034.330322
-28879.670585	18698.098000	507.732422	1355.021973
-28879.670585	18698.098000	506.480469	1395.990112
-28879.670585	18698.098000	505.228516	1296.288452
-28879.670585	18698.098000	503.976563	1402.172607
-28879.670585	18698.098000	502.723633	1428.275635
-28879.670585	18698.098000	501.470703	1319.499756
-28879.670585	18698.098000	500.217773	1427.575317
-28879.670585	18698.098000	498.963867	1524.322632
-28879.670585	18698.098000	497.709961	1742.733887
-28879.670585	18698.098000	496.456055	1558.444946
-28879.670585	18698.098000	495.202148	1577.542114
-28879.670585	18698.098000	493.947266	1623.316650
-28879.670585	18698.098000	492.692383	1688.142090
-28879.670585	18698.098000	491.437500	1777.695679
-28879.670585	18698.098000	490.181641	1922.324707
-28879.670585	18698.098000	488.926758	1881.035034
-28879.670585	18698.098000	487.670898	2023.819580
-28879.670585	18698.098000	486.414063	2210.224609
-28879.670585	18698.098000	485.158203	2172.875977
-28879.670585	18698.098000	483.901367	2309.981934
-28879.670585	18698.098000	482.644531	2361.788086
-28879.670585	18698.098000	481.386719	2335.930420
-28879.670585	18698.098000	480.128906	2488.165771
-28879.670585	18698.098000	478.871094	2426.343506
-28879.670585	18698.098000	477.613281	2290.708496
-28879.670585	18698.098000	476.355469	2514.803955
-28879.670585	18698.098000	475.096680	2710.410156
-28879.670585	18698.098000	473.837891	2527.466064
-28879.670585	18698.098000	472.578125	2492.139160
-28879.670585	18698.098000	471.319336	2541.886719
-28879.670585	18698.098000	470.059570	2773.104004
-28879.670585	18698.098000	468.799805	2835.894287
-28879.670585	18698.098000	467.539063	2826.763428
-28879.670585	18698.098000	466.278320	2698.493652
-28879.670585	18698.098000	465.017578	2895.146240
-28879.670585	18698.098000	463.756836	2745.923828
-28879.670585	18698.098000	462.495117	2851.600342
-28879.670585	18698.098000	461.233398	3053.386719
-28879.670585	18698.098000	459.971680	2811.314453
-28879.670585	18698.098000	458.709961	2852.275146
-28879.670585	18698.098000	457.447266	3023.241211
-28879.670585	18698.098000	456.184570	3009.054932
-28879.670585	18698.098000	454.921875	3139.889404
-28879.670585	18698.098000	453.658203	3161.073486
-28879.670585	18698.098000	452.394531	3059.455811
-28879.670585	18698.098000	451.130859	3325.166016
-28879.670585	18698.098000	449.867188	3125.012695
-28879.670585	18698.098000	448.602539	3310.882813
-28879.670585	18698.098000	447.337891	3262.776611
-28879.670585	18698.098000	446.073242	3359.360107
-28879.670585	18698.098000	444.807617	3229.604736
-28879.670585	18698.098000	443.542969	3315.995117
-28879.670585	18698.098000	442.276367	3386.900391
-28879.670585	18698.098000	441.010742	3319.982666
-28879.670585	18698.098000	439.744141	3333.542725
-28879.670585	18698.098000	438.478516	3386.114990
-28879.670585	18698.098000	437.210938	3447.579834
-28879.670585	18698.098000	435.944336	3600.609619
-28879.670585	18698.098000	434.676758	3709.801514
-28879.670585	18698.098000	433.409180	3568.442139
-28879.670585	18698.098000	432.141602	3477.270996
-28879.670585	18698.098000	430.873047	3706.714111
-28879.670585	18698.098000	429.604492	3773.899414
-28879.670585	18698.098000	428.335938	3733.349854
-28879.670585	18698.098000	427.067383	3716.505615
-28879.670585	18698.098000	425.797852	3751.474609
-28879.670585	18698.098000	424.528320	3817.550293
-28879.670585	18698.098000	423.258789	3805.875732
-28879.670585	18698.098000	421.988281	3922.776855
-28879.670585	18698.098000	420.717773	3751.859619
-28879.670585	18698.098000	419.447266	3741.332031
-28879.670585	18698.098000	418.175781	4052.238281
-28879.670585	18698.098000	416.905273	4015.363525
-28879.670585	18698.098000	415.633789	3981.232178
-28879.670585	18698.098000	414.362305	3848.657959
-28879.670585	18698.098000	413.089844	3786.201660
-28879.670585	18698.098000	411.817383	4025.942627
-28879.670585	18698.098000	410.544922	3843.237305
-28879.670585	18698.098000	409.272461	4106.669922
-28879.670585	18698.098000	407.999023	3981.410400
-28879.670585	18698.098000	406.725586	4279.536133
-28879.670585	18698.098000	405.452148	4189.044434
-28879.670585	18698.098000	404.177734	3910.200928
-28879.670585	18698.098000	402.903320	4170.295410
-28879.670585	18698.098000	401.628906	3959.665527
-28879.670585	18698.098000	400.354492	4156.810547
-28879.670585	18698.098000	399.079102	4150.498535
-28879.670585	18698.098000	397.803711	4194.842285
-28879.670585	18698.098000	396.528320	4069.407715
-28879.670585	18698.098000	395.251953	4244.709473
-28879.670585	18698.098000	393.976563	4046.703857
-28879.670585	18698.098000	392.700195	4039.116943
-28879.670585	18698.098000	391.422852	3953.093262
-28879.670585	18698.098000	390.145508	4144.933105
-28879.670585	18698.098000	388.869141	4345.871582
-28879.670585	18698.098000	387.590820	4160.466797
-28879.670585	18698.098000	386.313477	4025.207764
-28879.670585	18698.098000	385.035156	3846.747314
-28879.670585	18698.098000	383.756836	4062.963135
-28879.670585	18698.098000	382.478516	3967.481689
-28879.670585	18698.098000	381.199219	4011.130371
-28879.670585	18698.098000	379.919922	3735.701660
-28879.670585	18698.098000	378.640625	3921.390381
-28879.670585	18698.098000	377.360352	4005.666016
-28879.670585	18698.098000	376.080078	4020.195313
-28879.670585	18698.098000	374.799805	3925.879639
-28879.670585	18698.098000	373.519531	3758.052002
-28879.670585	18698.098000	372.238281	3905.305908
-28879.670585	18698.098000	370.957031	3764.996094
-28879.670585	18698.098000	369.675781	3695.992188
-28879.670585	18698.098000	368.394531	3958.351563
-28879.670585	18698.098000	367.112305	3572.505127
-28879.670585	18698.098000	365.830078	3881.940918
-28879.670585	18698.098000	364.546875	3589.677490
-28879.670585	18698.098000	363.264648	3568.880127
-28879.670585	18698.098000	361.981445	3540.665039
-28879.670585	18698.098000	360.698242	3529.144775
-28879.670585	18698.098000	359.414063	3667.737061
-28879.670585	18698.098000	358.129883	3349.656494
-28879.670585	18698.098000	356.845703	3257.684326
-28879.670585	18698.098000	355.561523	3296.993408
-28879.670585	18698.098000	354.276367	3213.298096
-28879.670585	18698.098000	352.991211	3182.758057
-28879.670585	18698.098000	351.706055	3175.575195
-28879.670585	18698.098000	350.420898	2878.502441
-28879.670585	18698.098000	349.134766	2975.048584
-28879.670585	18698.098000	347.848633	2974.161621
-28879.670585	18698.098000	346.561523	2736.802246
-28879.670585	18698.098000	345.275391	2514.998047
-28879.670585	18698.098000	343.988281	2560.092773
-28879.670585	18698.098000	342.700195	2544.258057
-28879.670585	18698.098000	341.413086	2562.005127
-28879.670585	18698.098000	340.125000	2346.590576
-28879.670585	18698.098000	338.836914	2467.709961
-28879.670585	18698.098000	337.548828	2268.693115
-28879.670585	18698.098000	336.259766	1987.908936
-28879.670585	18698.098000	334.970703	2085.557861
-28879.670585	18698.098000	333.681641	2091.970703
-28879.670585	18698.098000	332.391602	1702.120117
-28879.670585	18698.098000	331.101563	1558.946411
-28879.670585	18698.098000	329.811523	1573.513550
-28879.670585	18698.098000	328.521484	1527.750122
-28879.670585	18698.098000	327.230469	1401.054810
-28879.670585	18698.098000	325.939453	1258.080444
-28879.670585	18698.098000	324.648438	895.753662
-28879.670585	18698.098000	323.356445	1206.524536
-28879.670585	18698.098000	322.064453	1006.164978
-28879.670585	18698.098000	320.772461	1133.649658
-28879.670585	18698.098000	319.480469	899.263000
-28879.670585	18698.098000	318.187500	767.217285
-28879.670585	18698.098000	316.894531	645.361938
-28879.670585	18698.098000	315.601563	93.288933
-28879.670585	18698.098000	314.307617	399.926636
-28879.670585	18698.098000	313.013672	338.567322
-28879.670585	18698.098000	311.719727	332.625732
-28879.670585	18698.098000	310.425781	-54.275402
-28879.670585	18698.098000	309.130859	-97.429222
-28879.670585	18698.098000	307.835938	197.479950
-28879.670585	18698.098000	306.541016	-39.872429
-28879.670585	18698.098000	305.245117	-6.118143
-28879.670585	18698.098000	303.949219	32.079414
-28879.670585	18698.098000	302.653320	37.744884
-28879.670585	18698.098000	301.356445	-22.705294
-28879.670585	18698.098000	300.060547	-22.067225
-28879.670585	18698.098000	298.763672	75.492493
