#X		#Y		#Wave		#Intensity
32192.232660	1437.762500	1999.980469	-77.884850
32192.232660	1437.762500	1999.016602	-42.893200
32192.232660	1437.762500	1998.052734	-6.595638
32192.232660	1437.762500	1997.087891	118.482193
32192.232660	1437.762500	1996.123047	-126.074074
32192.232660	1437.762500	1995.158203	-76.153366
32192.232660	1437.762500	1994.193359	-108.371452
32192.232660	1437.762500	1993.228516	106.677116
32192.232660	1437.762500	1992.262695	16.760265
32192.232660	1437.762500	1991.297852	129.500397
32192.232660	1437.762500	1990.332031	162.667938
32192.232660	1437.762500	1989.366211	64.349487
32192.232660	1437.762500	1988.399414	171.099670
32192.232660	1437.762500	1987.433594	-66.324593
32192.232660	1437.762500	1986.466797	-177.822495
32192.232660	1437.762500	1985.500977	7.144866
32192.232660	1437.762500	1984.534180	-307.598785
32192.232660	1437.762500	1983.567383	-103.433167
32192.232660	1437.762500	1982.599609	-0.914221
32192.232660	1437.762500	1981.632813	-59.281101
32192.232660	1437.762500	1980.665039	-73.392761
32192.232660	1437.762500	1979.697266	8.601673
32192.232660	1437.762500	1978.729492	-23.243660
32192.232660	1437.762500	1977.761719	144.701340
32192.232660	1437.762500	1976.792969	193.899582
32192.232660	1437.762500	1975.825195	-90.298836
32192.232660	1437.762500	1974.856445	133.751068
32192.232660	1437.762500	1973.887695	187.312286
32192.232660	1437.762500	1972.918945	-102.177544
32192.232660	1437.762500	1971.949219	76.861763
32192.232660	1437.762500	1970.980469	100.339607
32192.232660	1437.762500	1970.010742	-51.369286
32192.232660	1437.762500	1969.041016	26.070219
32192.232660	1437.762500	1968.071289	189.604538
32192.232660	1437.762500	1967.101563	-248.239990
32192.232660	1437.762500	1966.130859	237.757401
32192.232660	1437.762500	1965.161133	139.735168
32192.232660	1437.762500	1964.190430	154.920822
32192.232660	1437.762500	1963.219727	290.643311
32192.232660	1437.762500	1962.249023	298.221039
32192.232660	1437.762500	1961.277344	-88.077744
32192.232660	1437.762500	1960.306641	86.727310
32192.232660	1437.762500	1959.334961	303.215454
32192.232660	1437.762500	1958.363281	44.810974
32192.232660	1437.762500	1957.391602	113.530640
32192.232660	1437.762500	1956.419922	152.654739
32192.232660	1437.762500	1955.447266	260.545868
32192.232660	1437.762500	1954.474609	11.940475
32192.232660	1437.762500	1953.501953	70.567596
32192.232660	1437.762500	1952.529297	-40.406387
32192.232660	1437.762500	1951.556641	-193.139450
32192.232660	1437.762500	1950.583984	-110.063148
32192.232660	1437.762500	1949.610352	-31.960548
32192.232660	1437.762500	1948.636719	269.511627
32192.232660	1437.762500	1947.663086	207.542480
32192.232660	1437.762500	1946.689453	-72.858704
32192.232660	1437.762500	1945.715820	137.598480
32192.232660	1437.762500	1944.741211	19.206385
32192.232660	1437.762500	1943.767578	-170.286148
32192.232660	1437.762500	1942.792969	-21.274382
32192.232660	1437.762500	1941.818359	235.564636
32192.232660	1437.762500	1940.842773	-34.781971
32192.232660	1437.762500	1939.868164	-25.600925
32192.232660	1437.762500	1938.892578	12.985402
32192.232660	1437.762500	1937.916992	203.475296
32192.232660	1437.762500	1936.941406	212.619003
32192.232660	1437.762500	1935.965820	72.361938
32192.232660	1437.762500	1934.990234	113.379898
32192.232660	1437.762500	1934.013672	-39.024311
32192.232660	1437.762500	1933.037109	31.400909
32192.232660	1437.762500	1932.060547	72.446274
32192.232660	1437.762500	1931.083984	-23.537071
32192.232660	1437.762500	1930.107422	-222.221512
32192.232660	1437.762500	1929.129883	-14.759753
32192.232660	1437.762500	1928.153320	-44.582684
32192.232660	1437.762500	1927.175781	243.502792
32192.232660	1437.762500	1926.198242	-91.899017
32192.232660	1437.762500	1925.219727	-38.513348
32192.232660	1437.762500	1924.242188	-173.295105
32192.232660	1437.762500	1923.263672	-90.541565
32192.232660	1437.762500	1922.285156	-117.723106
32192.232660	1437.762500	1921.306641	-249.889893
32192.232660	1437.762500	1920.328125	-40.101929
32192.232660	1437.762500	1919.349609	-284.489624
32192.232660	1437.762500	1918.370117	105.924500
32192.232660	1437.762500	1917.391602	-87.086891
32192.232660	1437.762500	1916.412109	-21.336885
32192.232660	1437.762500	1915.431641	120.047791
32192.232660	1437.762500	1914.452148	66.269081
32192.232660	1437.762500	1913.472656	-187.439987
32192.232660	1437.762500	1912.492188	-355.682251
32192.232660	1437.762500	1911.511719	-163.024902
32192.232660	1437.762500	1910.531250	-50.845131
32192.232660	1437.762500	1909.550781	-226.240845
32192.232660	1437.762500	1908.569336	-1.951749
32192.232660	1437.762500	1907.588867	-72.481873
32192.232660	1437.762500	1906.607422	64.070473
32192.232660	1437.762500	1905.625977	120.239075
32192.232660	1437.762500	1904.644531	-103.578201
32192.232660	1437.762500	1903.662109	123.052635
32192.232660	1437.762500	1902.680664	-71.421860
32192.232660	1437.762500	1901.698242	155.169540
32192.232660	1437.762500	1900.715820	418.194183
32192.232660	1437.762500	1899.733398	-179.934677
32192.232660	1437.762500	1898.750000	-201.439468
32192.232660	1437.762500	1897.767578	3.215736
32192.232660	1437.762500	1896.784180	18.194332
32192.232660	1437.762500	1895.800781	123.119186
32192.232660	1437.762500	1894.817383	128.387665
32192.232660	1437.762500	1893.833984	-7.249359
32192.232660	1437.762500	1892.850586	-43.220776
32192.232660	1437.762500	1891.866211	-57.303852
32192.232660	1437.762500	1890.881836	-64.081108
32192.232660	1437.762500	1889.897461	69.973541
32192.232660	1437.762500	1888.913086	119.030678
32192.232660	1437.762500	1887.927734	129.248489
32192.232660	1437.762500	1886.943359	-13.398471
32192.232660	1437.762500	1885.958008	-22.551558
32192.232660	1437.762500	1884.972656	43.501347
32192.232660	1437.762500	1883.987305	12.526364
32192.232660	1437.762500	1883.001953	-64.503372
32192.232660	1437.762500	1882.015625	50.015472
32192.232660	1437.762500	1881.029297	188.730423
32192.232660	1437.762500	1880.042969	-276.022186
32192.232660	1437.762500	1879.056641	-52.499805
32192.232660	1437.762500	1878.070313	-64.043892
32192.232660	1437.762500	1877.083984	-107.075989
32192.232660	1437.762500	1876.096680	-208.213638
32192.232660	1437.762500	1875.109375	34.469868
32192.232660	1437.762500	1874.122070	59.193527
32192.232660	1437.762500	1873.134766	-68.573669
32192.232660	1437.762500	1872.146484	-60.802879
32192.232660	1437.762500	1871.159180	-14.344098
32192.232660	1437.762500	1870.170898	-188.030563
32192.232660	1437.762500	1869.182617	-151.275452
32192.232660	1437.762500	1868.194336	144.159668
32192.232660	1437.762500	1867.205078	132.446045
32192.232660	1437.762500	1866.216797	-154.828690
32192.232660	1437.762500	1865.227539	-52.957035
32192.232660	1437.762500	1864.238281	-9.137283
32192.232660	1437.762500	1863.249023	145.751770
32192.232660	1437.762500	1862.259766	167.716064
32192.232660	1437.762500	1861.269531	73.731331
32192.232660	1437.762500	1860.279297	11.130560
32192.232660	1437.762500	1859.290039	-94.932762
32192.232660	1437.762500	1858.298828	-87.569115
32192.232660	1437.762500	1857.308594	57.285255
32192.232660	1437.762500	1856.318359	-92.278816
32192.232660	1437.762500	1855.327148	100.675011
32192.232660	1437.762500	1854.335938	90.935059
32192.232660	1437.762500	1853.344727	71.505287
32192.232660	1437.762500	1852.353516	167.743195
32192.232660	1437.762500	1851.362305	107.226967
32192.232660	1437.762500	1850.370117	152.709106
32192.232660	1437.762500	1849.377930	-160.869492
32192.232660	1437.762500	1848.385742	144.682648
32192.232660	1437.762500	1847.393555	-139.997681
32192.232660	1437.762500	1846.401367	374.800537
32192.232660	1437.762500	1845.408203	-85.689987
32192.232660	1437.762500	1844.415039	86.975800
32192.232660	1437.762500	1843.421875	33.286304
32192.232660	1437.762500	1842.428711	200.911545
32192.232660	1437.762500	1841.435547	180.757874
32192.232660	1437.762500	1840.441406	-99.225548
32192.232660	1437.762500	1839.448242	99.365990
32192.232660	1437.762500	1838.454102	408.403290
32192.232660	1437.762500	1837.459961	89.837830
32192.232660	1437.762500	1836.464844	14.052106
32192.232660	1437.762500	1835.470703	204.939743
32192.232660	1437.762500	1834.475586	172.236176
32192.232660	1437.762500	1833.480469	139.455780
32192.232660	1437.762500	1832.485352	190.655350
32192.232660	1437.762500	1831.490234	100.077324
32192.232660	1437.762500	1830.495117	273.514862
32192.232660	1437.762500	1829.499023	204.367538
32192.232660	1437.762500	1828.502930	108.751709
32192.232660	1437.762500	1827.506836	73.056335
32192.232660	1437.762500	1826.510742	269.965271
32192.232660	1437.762500	1825.513672	387.549622
32192.232660	1437.762500	1824.517578	152.484436
32192.232660	1437.762500	1823.520508	39.675171
32192.232660	1437.762500	1822.523438	-61.214241
32192.232660	1437.762500	1821.526367	-8.790856
32192.232660	1437.762500	1820.529297	283.117584
32192.232660	1437.762500	1819.531250	263.360931
32192.232660	1437.762500	1818.533203	253.078201
32192.232660	1437.762500	1817.535156	-54.271172
32192.232660	1437.762500	1816.537109	69.360138
32192.232660	1437.762500	1815.539063	295.767517
32192.232660	1437.762500	1814.540039	115.077690
32192.232660	1437.762500	1813.541992	238.247589
32192.232660	1437.762500	1812.542969	313.395325
32192.232660	1437.762500	1811.543945	103.731133
32192.232660	1437.762500	1810.543945	126.006371
32192.232660	1437.762500	1809.544922	241.403595
32192.232660	1437.762500	1808.544922	-56.971699
32192.232660	1437.762500	1807.544922	333.038605
32192.232660	1437.762500	1806.544922	158.767181
32192.232660	1437.762500	1805.544922	3.544807
32192.232660	1437.762500	1804.544922	182.696396
32192.232660	1437.762500	1803.543945	-1.408302
32192.232660	1437.762500	1802.542969	-20.805780
32192.232660	1437.762500	1801.541992	93.369980
32192.232660	1437.762500	1800.541016	147.684235
32192.232660	1437.762500	1799.539063	75.338295
32192.232660	1437.762500	1798.538086	57.765881
32192.232660	1437.762500	1797.536133	25.737856
32192.232660	1437.762500	1796.534180	-6.423892
32192.232660	1437.762500	1795.532227	113.914368
32192.232660	1437.762500	1794.529297	62.377224
32192.232660	1437.762500	1793.527344	-58.418476
32192.232660	1437.762500	1792.524414	230.640625
32192.232660	1437.762500	1791.521484	85.724876
32192.232660	1437.762500	1790.518555	181.354874
32192.232660	1437.762500	1789.514648	95.748344
32192.232660	1437.762500	1788.511719	-116.204803
32192.232660	1437.762500	1787.507813	114.677773
32192.232660	1437.762500	1786.503906	69.145424
32192.232660	1437.762500	1785.500000	-55.079987
32192.232660	1437.762500	1784.496094	-60.417156
32192.232660	1437.762500	1783.491211	-196.787750
32192.232660	1437.762500	1782.486328	225.802383
32192.232660	1437.762500	1781.481445	193.770584
32192.232660	1437.762500	1780.476563	-242.688507
32192.232660	1437.762500	1779.471680	-210.743469
32192.232660	1437.762500	1778.465820	-76.759918
32192.232660	1437.762500	1777.460938	-59.444019
32192.232660	1437.762500	1776.455078	-82.698441
32192.232660	1437.762500	1775.449219	-13.451591
32192.232660	1437.762500	1774.442383	-94.052048
32192.232660	1437.762500	1773.436523	179.088364
32192.232660	1437.762500	1772.429688	17.421309
32192.232660	1437.762500	1771.422852	-9.031683
32192.232660	1437.762500	1770.416016	85.414574
32192.232660	1437.762500	1769.409180	117.957008
32192.232660	1437.762500	1768.402344	10.331634
32192.232660	1437.762500	1767.394531	-154.363754
32192.232660	1437.762500	1766.386719	69.809311
32192.232660	1437.762500	1765.378906	4.426773
32192.232660	1437.762500	1764.371094	199.699371
32192.232660	1437.762500	1763.362305	-167.074448
32192.232660	1437.762500	1762.354492	-401.150421
32192.232660	1437.762500	1761.345703	-87.951134
32192.232660	1437.762500	1760.336914	52.015743
32192.232660	1437.762500	1759.328125	-144.585800
32192.232660	1437.762500	1758.318359	-50.006798
32192.232660	1437.762500	1757.308594	-5.355944
32192.232660	1437.762500	1756.299805	131.444290
32192.232660	1437.762500	1755.290039	-65.712067
32192.232660	1437.762500	1754.279297	139.309357
32192.232660	1437.762500	1753.269531	-114.896416
32192.232660	1437.762500	1752.258789	-108.983078
32192.232660	1437.762500	1751.249023	-214.388107
32192.232660	1437.762500	1750.238281	-121.308777
32192.232660	1437.762500	1749.226563	-30.809792
32192.232660	1437.762500	1748.215820	-4.323693
32192.232660	1437.762500	1747.204102	-105.642357
32192.232660	1437.762500	1746.193359	-51.137093
32192.232660	1437.762500	1745.181641	-202.356216
32192.232660	1437.762500	1744.168945	-275.758820
32192.232660	1437.762500	1743.157227	-101.338257
32192.232660	1437.762500	1742.144531	56.307484
32192.232660	1437.762500	1741.132813	-83.687294
32192.232660	1437.762500	1740.120117	-35.005154
32192.232660	1437.762500	1739.106445	-215.405853
32192.232660	1437.762500	1738.093750	-91.556793
32192.232660	1437.762500	1737.080078	-161.350388
32192.232660	1437.762500	1736.067383	72.945061
32192.232660	1437.762500	1735.053711	82.981506
32192.232660	1437.762500	1734.040039	33.912315
32192.232660	1437.762500	1733.025391	-453.704315
32192.232660	1437.762500	1732.011719	-144.797440
32192.232660	1437.762500	1730.997070	-168.384232
32192.232660	1437.762500	1729.982422	140.009720
32192.232660	1437.762500	1728.967773	-15.837501
32192.232660	1437.762500	1727.952148	131.951996
32192.232660	1437.762500	1726.937500	-207.783630
32192.232660	1437.762500	1725.921875	-69.750381
32192.232660	1437.762500	1724.906250	-386.121429
32192.232660	1437.762500	1723.890625	-10.784572
32192.232660	1437.762500	1722.875000	-2.729183
32192.232660	1437.762500	1721.858398	21.613321
32192.232660	1437.762500	1720.841797	198.640762
32192.232660	1437.762500	1719.825195	-61.856850
32192.232660	1437.762500	1718.808594	204.131241
32192.232660	1437.762500	1717.791992	-28.374449
32192.232660	1437.762500	1716.774414	110.297600
32192.232660	1437.762500	1715.756836	13.835083
32192.232660	1437.762500	1714.739258	-291.786316
32192.232660	1437.762500	1713.721680	22.528261
32192.232660	1437.762500	1712.704102	-212.839233
32192.232660	1437.762500	1711.685547	-37.475662
32192.232660	1437.762500	1710.667969	248.001083
32192.232660	1437.762500	1709.649414	-109.755829
32192.232660	1437.762500	1708.630859	25.165070
32192.232660	1437.762500	1707.611328	-152.102829
32192.232660	1437.762500	1706.592773	50.499512
32192.232660	1437.762500	1705.573242	86.386009
32192.232660	1437.762500	1704.553711	-65.427734
32192.232660	1437.762500	1703.534180	150.665054
32192.232660	1437.762500	1702.513672	61.871464
32192.232660	1437.762500	1701.494141	-120.722717
32192.232660	1437.762500	1700.473633	104.197624
32192.232660	1437.762500	1699.453125	61.900761
32192.232660	1437.762500	1698.432617	206.815842
32192.232660	1437.762500	1697.412109	-170.536179
32192.232660	1437.762500	1696.390625	271.359772
32192.232660	1437.762500	1695.369141	24.915127
32192.232660	1437.762500	1694.347656	31.139162
32192.232660	1437.762500	1693.326172	163.562683
32192.232660	1437.762500	1692.304688	82.966492
32192.232660	1437.762500	1691.282227	-182.480484
32192.232660	1437.762500	1690.260742	15.001701
32192.232660	1437.762500	1689.238281	-5.127675
32192.232660	1437.762500	1688.214844	212.999847
32192.232660	1437.762500	1687.192383	241.674667
32192.232660	1437.762500	1686.168945	-117.613243
32192.232660	1437.762500	1685.146484	-14.369934
32192.232660	1437.762500	1684.123047	284.866852
32192.232660	1437.762500	1683.099609	200.957275
32192.232660	1437.762500	1682.075195	182.313660
32192.232660	1437.762500	1681.051758	86.569504
32192.232660	1437.762500	1680.027344	198.418732
32192.232660	1437.762500	1679.002930	132.805984
32192.232660	1437.762500	1677.978516	729.582642
32192.232660	1437.762500	1676.953125	591.369568
32192.232660	1437.762500	1675.928711	683.973083
32192.232660	1437.762500	1674.903320	464.029755
32192.232660	1437.762500	1673.877930	374.601868
32192.232660	1437.762500	1672.852539	835.083801
32192.232660	1437.762500	1671.826172	768.709473
32192.232660	1437.762500	1670.800781	618.428589
32192.232660	1437.762500	1669.774414	542.625061
32192.232660	1437.762500	1668.748047	399.234680
32192.232660	1437.762500	1667.721680	549.159668
32192.232660	1437.762500	1666.694336	331.143433
32192.232660	1437.762500	1665.667969	769.437317
32192.232660	1437.762500	1664.640625	616.451782
32192.232660	1437.762500	1663.613281	798.441528
32192.232660	1437.762500	1662.585938	459.285309
32192.232660	1437.762500	1661.557617	575.948975
32192.232660	1437.762500	1660.530273	725.067322
32192.232660	1437.762500	1659.501953	1025.132324
32192.232660	1437.762500	1658.473633	897.377563
32192.232660	1437.762500	1657.444336	990.329041
32192.232660	1437.762500	1656.416016	950.780334
32192.232660	1437.762500	1655.386719	1222.408569
32192.232660	1437.762500	1654.358398	978.345398
32192.232660	1437.762500	1653.328125	859.649109
32192.232660	1437.762500	1652.298828	1226.138550
32192.232660	1437.762500	1651.269531	993.626831
32192.232660	1437.762500	1650.239258	1232.190430
32192.232660	1437.762500	1649.208984	1101.721680
32192.232660	1437.762500	1648.178711	1393.421997
32192.232660	1437.762500	1647.148438	1367.240356
32192.232660	1437.762500	1646.117188	1609.968384
32192.232660	1437.762500	1645.086914	1574.392822
32192.232660	1437.762500	1644.055664	1506.316772
32192.232660	1437.762500	1643.024414	1588.857422
32192.232660	1437.762500	1641.992188	1872.876343
32192.232660	1437.762500	1640.960938	2117.395020
32192.232660	1437.762500	1639.928711	2102.368652
32192.232660	1437.762500	1638.896484	2034.061279
32192.232660	1437.762500	1637.864258	1794.431763
32192.232660	1437.762500	1636.832031	2008.542725
32192.232660	1437.762500	1635.798828	2035.074341
32192.232660	1437.762500	1634.766602	2311.481445
32192.232660	1437.762500	1633.733398	2305.512451
32192.232660	1437.762500	1632.699219	2237.058350
32192.232660	1437.762500	1631.666016	2224.134521
32192.232660	1437.762500	1630.632813	2037.805908
32192.232660	1437.762500	1629.598633	2443.263916
32192.232660	1437.762500	1628.564453	2395.584961
32192.232660	1437.762500	1627.530273	2449.583740
32192.232660	1437.762500	1626.495117	2572.838379
32192.232660	1437.762500	1625.460938	2871.605225
32192.232660	1437.762500	1624.425781	2786.890137
32192.232660	1437.762500	1623.390625	2981.578125
32192.232660	1437.762500	1622.355469	2682.200684
32192.232660	1437.762500	1621.319336	3176.849609
32192.232660	1437.762500	1620.284180	2958.326172
32192.232660	1437.762500	1619.248047	2855.223877
32192.232660	1437.762500	1618.211914	3114.309082
32192.232660	1437.762500	1617.174805	3239.527100
32192.232660	1437.762500	1616.138672	3293.260986
32192.232660	1437.762500	1615.101563	3243.231445
32192.232660	1437.762500	1614.065430	3204.790039
32192.232660	1437.762500	1613.027344	3233.166504
32192.232660	1437.762500	1611.990234	3256.971191
32192.232660	1437.762500	1610.953125	3587.151855
32192.232660	1437.762500	1609.915039	3557.943848
32192.232660	1437.762500	1608.876953	3356.084717
32192.232660	1437.762500	1607.838867	3467.424561
32192.232660	1437.762500	1606.800781	3544.231201
32192.232660	1437.762500	1605.761719	3752.192627
32192.232660	1437.762500	1604.723633	3884.208496
32192.232660	1437.762500	1603.684570	3845.971680
32192.232660	1437.762500	1602.644531	3789.370605
32192.232660	1437.762500	1601.605469	4054.777588
32192.232660	1437.762500	1600.566406	3533.886719
32192.232660	1437.762500	1599.526367	3801.614990
32192.232660	1437.762500	1598.486328	4060.100342
32192.232660	1437.762500	1597.446289	4052.014648
32192.232660	1437.762500	1596.405273	3811.955078
32192.232660	1437.762500	1595.365234	3886.718506
32192.232660	1437.762500	1594.324219	3674.459473
32192.232660	1437.762500	1593.283203	3873.298096
32192.232660	1437.762500	1592.242188	4060.646729
32192.232660	1437.762500	1591.200195	3802.752686
32192.232660	1437.762500	1590.159180	3666.658447
32192.232660	1437.762500	1589.117188	3659.132568
32192.232660	1437.762500	1588.075195	3656.269531
32192.232660	1437.762500	1587.032227	3598.428223
32192.232660	1437.762500	1585.990234	3568.218994
32192.232660	1437.762500	1584.947266	3732.920410
32192.232660	1437.762500	1583.904297	3526.370850
32192.232660	1437.762500	1582.861328	3737.010010
32192.232660	1437.762500	1581.818359	3620.054199
32192.232660	1437.762500	1580.775391	3828.474609
32192.232660	1437.762500	1579.731445	3638.423828
32192.232660	1437.762500	1578.687500	3265.377930
32192.232660	1437.762500	1577.643555	3485.446777
32192.232660	1437.762500	1576.598633	3625.400146
32192.232660	1437.762500	1575.554688	3664.738770
32192.232660	1437.762500	1574.509766	3546.286377
32192.232660	1437.762500	1573.464844	3384.524902
32192.232660	1437.762500	1572.419922	3165.758545
32192.232660	1437.762500	1571.374023	3555.345947
32192.232660	1437.762500	1570.329102	3359.704834
32192.232660	1437.762500	1569.283203	3312.788818
32192.232660	1437.762500	1568.237305	3147.180420
32192.232660	1437.762500	1567.191406	3223.918457
32192.232660	1437.762500	1566.144531	3376.100586
32192.232660	1437.762500	1565.098633	3288.568604
32192.232660	1437.762500	1564.051758	3114.408203
32192.232660	1437.762500	1563.004883	3303.404785
32192.232660	1437.762500	1561.957031	3291.583496
32192.232660	1437.762500	1560.910156	3610.787598
32192.232660	1437.762500	1559.862305	2964.914063
32192.232660	1437.762500	1558.814453	2980.917480
32192.232660	1437.762500	1557.766602	2627.594482
32192.232660	1437.762500	1556.718750	2730.567627
32192.232660	1437.762500	1555.669922	2450.629150
32192.232660	1437.762500	1554.621094	2795.445801
32192.232660	1437.762500	1553.573242	2550.078369
32192.232660	1437.762500	1552.523438	2571.475830
32192.232660	1437.762500	1551.474609	2581.635986
32192.232660	1437.762500	1550.424805	2197.918945
32192.232660	1437.762500	1549.375000	2201.586670
32192.232660	1437.762500	1548.325195	2023.277222
32192.232660	1437.762500	1547.275391	2220.740234
32192.232660	1437.762500	1546.225586	1797.024536
32192.232660	1437.762500	1545.174805	1962.885742
32192.232660	1437.762500	1544.124023	2210.725830
32192.232660	1437.762500	1543.073242	2310.793945
32192.232660	1437.762500	1542.022461	1897.088013
32192.232660	1437.762500	1540.970703	2013.391968
32192.232660	1437.762500	1539.919922	1682.052612
32192.232660	1437.762500	1538.868164	1885.027100
32192.232660	1437.762500	1537.815430	1942.657104
32192.232660	1437.762500	1536.763672	1934.569946
32192.232660	1437.762500	1535.710938	1622.297729
32192.232660	1437.762500	1534.659180	1889.365479
32192.232660	1437.762500	1533.606445	1672.915405
32192.232660	1437.762500	1532.552734	1899.320435
32192.232660	1437.762500	1531.500000	1746.836914
32192.232660	1437.762500	1530.446289	1805.582520
32192.232660	1437.762500	1529.393555	1787.367676
32192.232660	1437.762500	1528.338867	1624.151855
32192.232660	1437.762500	1527.285156	1778.655884
32192.232660	1437.762500	1526.231445	1405.034180
32192.232660	1437.762500	1525.176758	1414.797852
32192.232660	1437.762500	1524.122070	1472.329468
32192.232660	1437.762500	1523.067383	1428.061768
32192.232660	1437.762500	1522.012695	1587.876831
32192.232660	1437.762500	1520.957031	1177.049805
32192.232660	1437.762500	1519.901367	1276.069946
32192.232660	1437.762500	1518.845703	1164.690430
32192.232660	1437.762500	1517.790039	956.211121
32192.232660	1437.762500	1516.734375	960.736572
32192.232660	1437.762500	1515.677734	793.480408
32192.232660	1437.762500	1514.621094	685.299866
32192.232660	1437.762500	1513.564453	735.678589
32192.232660	1437.762500	1512.507813	569.150696
32192.232660	1437.762500	1511.450195	615.393188
32192.232660	1437.762500	1510.393555	426.744720
32192.232660	1437.762500	1509.335938	450.794830
32192.232660	1437.762500	1508.278320	325.909424
32192.232660	1437.762500	1507.219727	537.863892
32192.232660	1437.762500	1506.162109	67.846786
32192.232660	1437.762500	1505.103516	-31.451294
32192.232660	1437.762500	1504.044922	-87.608604
32192.232660	1437.762500	1502.986328	41.557350
32192.232660	1437.762500	1501.926758	10.637279
32192.232660	1437.762500	1500.868164	295.837219
32192.232660	1437.762500	1499.808594	91.587921
32192.232660	1437.762500	1498.749023	137.987778
32192.232660	1437.762500	1497.688477	80.839165
32192.232660	1437.762500	1496.628906	50.989025
32192.232660	1437.762500	1495.568359	64.182121
32192.232660	1437.762500	1494.507813	-224.409805
32192.232660	1437.762500	1493.447266	68.663170
32192.232660	1437.762500	1492.386719	-133.779953
32192.232660	1437.762500	1491.325195	294.724457
32192.232660	1437.762500	1490.263672	171.558182
32192.232660	1437.762500	1489.202148	210.762878
32192.232660	1437.762500	1488.140625	112.858627
32192.232660	1437.762500	1487.079102	370.799133
32192.232660	1437.762500	1486.016602	426.341919
32192.232660	1437.762500	1484.954102	513.578552
32192.232660	1437.762500	1483.891602	306.353394
32192.232660	1437.762500	1482.829102	517.701965
32192.232660	1437.762500	1481.765625	257.040833
32192.232660	1437.762500	1480.702148	86.628616
32192.232660	1437.762500	1479.638672	138.987244
32192.232660	1437.762500	1478.575195	400.558533
32192.232660	1437.762500	1477.511719	410.579193
32192.232660	1437.762500	1476.447266	728.493958
32192.232660	1437.762500	1475.382813	516.640503
32192.232660	1437.762500	1474.318359	545.317932
32192.232660	1437.762500	1473.253906	955.540283
32192.232660	1437.762500	1472.189453	690.876099
32192.232660	1437.762500	1471.124023	805.339478
32192.232660	1437.762500	1470.058594	614.829468
32192.232660	1437.762500	1468.993164	783.785706
32192.232660	1437.762500	1467.927734	1109.413452
32192.232660	1437.762500	1466.861328	1240.096680
32192.232660	1437.762500	1465.794922	1205.698242
32192.232660	1437.762500	1464.728516	1110.702759
32192.232660	1437.762500	1463.662109	1069.788086
32192.232660	1437.762500	1462.594727	1359.807617
32192.232660	1437.762500	1461.528320	1410.781494
32192.232660	1437.762500	1460.460938	1366.414795
32192.232660	1437.762500	1459.393555	1321.615845
32192.232660	1437.762500	1458.326172	1400.355591
32192.232660	1437.762500	1457.257813	1218.183472
32192.232660	1437.762500	1456.189453	1296.206665
32192.232660	1437.762500	1455.121094	1241.725830
32192.232660	1437.762500	1454.052734	1428.842407
32192.232660	1437.762500	1452.984375	1086.362915
32192.232660	1437.762500	1451.915039	1293.379272
32192.232660	1437.762500	1450.845703	1268.930786
32192.232660	1437.762500	1449.776367	1178.130493
32192.232660	1437.762500	1448.707031	1065.917725
32192.232660	1437.762500	1447.636719	1018.547180
32192.232660	1437.762500	1446.567383	1322.405640
32192.232660	1437.762500	1445.497070	1309.977417
32192.232660	1437.762500	1444.425781	1122.706299
32192.232660	1437.762500	1443.355469	1130.569458
32192.232660	1437.762500	1442.285156	1559.212646
32192.232660	1437.762500	1441.213867	1071.559692
32192.232660	1437.762500	1440.142578	1228.772461
32192.232660	1437.762500	1439.070313	1115.585571
32192.232660	1437.762500	1437.999023	1187.714600
32192.232660	1437.762500	1436.926758	1283.055054
32192.232660	1437.762500	1435.854492	1358.680298
32192.232660	1437.762500	1434.782227	1366.802612
32192.232660	1437.762500	1433.709961	911.794617
32192.232660	1437.762500	1432.636719	1156.790771
32192.232660	1437.762500	1431.563477	826.414063
32192.232660	1437.762500	1430.490234	786.038940
32192.232660	1437.762500	1429.416992	886.959900
32192.232660	1437.762500	1428.343750	670.783752
32192.232660	1437.762500	1427.269531	746.833313
32192.232660	1437.762500	1426.195313	606.621094
32192.232660	1437.762500	1425.121094	790.523499
32192.232660	1437.762500	1424.046875	682.905151
32192.232660	1437.762500	1422.971680	905.741882
32192.232660	1437.762500	1421.896484	826.338257
32192.232660	1437.762500	1420.821289	919.320618
32192.232660	1437.762500	1419.746094	1053.649170
32192.232660	1437.762500	1418.669922	914.339722
32192.232660	1437.762500	1417.594727	874.829712
32192.232660	1437.762500	1416.518555	692.485291
32192.232660	1437.762500	1415.442383	868.846008
32192.232660	1437.762500	1414.365234	982.500549
32192.232660	1437.762500	1413.289063	1163.798828
32192.232660	1437.762500	1412.211914	1387.602661
32192.232660	1437.762500	1411.134766	1058.530762
32192.232660	1437.762500	1410.057617	1458.559082
32192.232660	1437.762500	1408.979492	1340.025024
32192.232660	1437.762500	1407.902344	1624.436646
32192.232660	1437.762500	1406.824219	1652.751465
32192.232660	1437.762500	1405.746094	1576.227783
32192.232660	1437.762500	1404.666992	1509.633667
32192.232660	1437.762500	1403.588867	2041.373779
32192.232660	1437.762500	1402.509766	2186.463867
32192.232660	1437.762500	1401.430664	1759.930786
32192.232660	1437.762500	1400.351563	2029.217041
32192.232660	1437.762500	1399.271484	2186.376709
32192.232660	1437.762500	1398.192383	1855.257813
32192.232660	1437.762500	1397.112305	1907.840820
32192.232660	1437.762500	1396.031250	1626.605591
32192.232660	1437.762500	1394.951172	1863.155029
32192.232660	1437.762500	1393.871094	1821.693726
32192.232660	1437.762500	1392.790039	2012.581665
32192.232660	1437.762500	1391.708984	1661.541138
32192.232660	1437.762500	1390.626953	1382.317017
32192.232660	1437.762500	1389.545898	1406.541504
32192.232660	1437.762500	1388.463867	1425.250366
32192.232660	1437.762500	1387.381836	1718.097046
32192.232660	1437.762500	1386.299805	1317.804810
32192.232660	1437.762500	1385.217773	1110.712524
32192.232660	1437.762500	1384.134766	1141.001343
32192.232660	1437.762500	1383.051758	1150.199097
32192.232660	1437.762500	1381.968750	1060.331543
32192.232660	1437.762500	1380.885742	920.100891
32192.232660	1437.762500	1379.802734	933.368958
32192.232660	1437.762500	1378.718750	997.611023
32192.232660	1437.762500	1377.634766	1081.119263
32192.232660	1437.762500	1376.550781	802.611145
32192.232660	1437.762500	1375.465820	908.050537
32192.232660	1437.762500	1374.381836	1055.431641
32192.232660	1437.762500	1373.296875	665.515930
32192.232660	1437.762500	1372.211914	1028.063232
32192.232660	1437.762500	1371.126953	953.115112
32192.232660	1437.762500	1370.041016	887.812256
32192.232660	1437.762500	1368.955078	795.273376
32192.232660	1437.762500	1367.869141	865.180725
32192.232660	1437.762500	1366.783203	748.306335
32192.232660	1437.762500	1365.697266	898.191772
32192.232660	1437.762500	1364.610352	1030.337646
32192.232660	1437.762500	1363.523438	964.096191
32192.232660	1437.762500	1362.436523	1113.981689
32192.232660	1437.762500	1361.349609	874.008362
32192.232660	1437.762500	1360.261719	945.095215
32192.232660	1437.762500	1359.174805	988.942810
32192.232660	1437.762500	1358.086914	705.525757
32192.232660	1437.762500	1356.998047	1078.106689
32192.232660	1437.762500	1355.910156	914.779541
32192.232660	1437.762500	1354.821289	839.527771
32192.232660	1437.762500	1353.732422	1049.741333
32192.232660	1437.762500	1352.643555	842.355957
32192.232660	1437.762500	1351.554688	703.477783
32192.232660	1437.762500	1350.464844	633.487976
32192.232660	1437.762500	1349.375000	574.922363
32192.232660	1437.762500	1348.285156	1077.287109
32192.232660	1437.762500	1347.195313	928.867920
32192.232660	1437.762500	1346.105469	1055.174805
32192.232660	1437.762500	1345.014648	832.843628
32192.232660	1437.762500	1343.923828	1139.485596
32192.232660	1437.762500	1342.833008	1047.737793
32192.232660	1437.762500	1341.741211	970.322388
32192.232660	1437.762500	1340.650391	1177.710327
32192.232660	1437.762500	1339.558594	1111.622803
32192.232660	1437.762500	1338.466797	1002.561218
32192.232660	1437.762500	1337.374023	955.458984
32192.232660	1437.762500	1336.282227	877.961853
32192.232660	1437.762500	1335.189453	825.176819
32192.232660	1437.762500	1334.096680	1012.227661
32192.232660	1437.762500	1333.003906	637.966248
32192.232660	1437.762500	1331.910156	704.531677
32192.232660	1437.762500	1330.817383	688.322327
32192.232660	1437.762500	1329.723633	926.071472
32192.232660	1437.762500	1328.629883	1030.771362
32192.232660	1437.762500	1327.535156	595.475525
32192.232660	1437.762500	1326.441406	840.130371
32192.232660	1437.762500	1325.346680	836.399597
32192.232660	1437.762500	1324.251953	810.359070
32192.232660	1437.762500	1323.156250	747.535339
32192.232660	1437.762500	1322.061523	853.426636
32192.232660	1437.762500	1320.965820	617.500244
32192.232660	1437.762500	1319.870117	1069.325684
32192.232660	1437.762500	1318.774414	581.744934
32192.232660	1437.762500	1317.678711	753.666321
32192.232660	1437.762500	1316.582031	725.814514
32192.232660	1437.762500	1315.485352	925.600281
32192.232660	1437.762500	1314.388672	931.480774
32192.232660	1437.762500	1313.291016	954.893738
32192.232660	1437.762500	1312.194336	914.308228
32192.232660	1437.762500	1311.096680	903.472595
32192.232660	1437.762500	1309.999023	987.623230
32192.232660	1437.762500	1308.901367	914.748657
32192.232660	1437.762500	1307.802734	846.115112
32192.232660	1437.762500	1306.705078	831.702454
32192.232660	1437.762500	1305.606445	952.455139
32192.232660	1437.762500	1304.506836	1121.549438
32192.232660	1437.762500	1303.408203	764.734131
32192.232660	1437.762500	1302.308594	1027.950317
32192.232660	1437.762500	1301.208984	958.963196
32192.232660	1437.762500	1300.109375	892.831421
32192.232660	1437.762500	1299.009766	865.973145
32192.232660	1437.762500	1297.909180	1058.051758
32192.232660	1437.762500	1296.808594	1163.527344
32192.232660	1437.762500	1295.708008	1129.601318
32192.232660	1437.762500	1294.607422	1036.795166
32192.232660	1437.762500	1293.506836	982.941345
32192.232660	1437.762500	1292.405273	887.703369
32192.232660	1437.762500	1291.303711	846.992249
32192.232660	1437.762500	1290.202148	716.358948
32192.232660	1437.762500	1289.099609	896.092285
32192.232660	1437.762500	1287.998047	658.734253
32192.232660	1437.762500	1286.895508	511.135895
32192.232660	1437.762500	1285.792969	477.405151
32192.232660	1437.762500	1284.689453	537.551819
32192.232660	1437.762500	1283.586914	451.115540
32192.232660	1437.762500	1282.483398	400.814850
32192.232660	1437.762500	1281.379883	262.786896
32192.232660	1437.762500	1280.276367	302.840424
32192.232660	1437.762500	1279.171875	523.485413
32192.232660	1437.762500	1278.067383	352.587311
32192.232660	1437.762500	1276.962891	437.476410
32192.232660	1437.762500	1275.858398	292.240753
32192.232660	1437.762500	1274.753906	196.591461
32192.232660	1437.762500	1273.648438	351.929352
32192.232660	1437.762500	1272.542969	312.877533
32192.232660	1437.762500	1271.437500	271.600220
32192.232660	1437.762500	1270.331055	448.926086
32192.232660	1437.762500	1269.225586	378.532471
32192.232660	1437.762500	1268.119141	434.570587
32192.232660	1437.762500	1267.012695	477.110718
32192.232660	1437.762500	1265.906250	251.410828
32192.232660	1437.762500	1264.798828	337.530212
32192.232660	1437.762500	1263.691406	228.785065
32192.232660	1437.762500	1262.583984	121.617065
32192.232660	1437.762500	1261.476563	106.579170
32192.232660	1437.762500	1260.368164	272.451416
32192.232660	1437.762500	1259.260742	37.623684
32192.232660	1437.762500	1258.152344	51.866776
32192.232660	1437.762500	1257.043945	-151.397675
32192.232660	1437.762500	1255.934570	-114.996994
32192.232660	1437.762500	1254.825195	-235.286896
32192.232660	1437.762500	1253.716797	-305.509857
32192.232660	1437.762500	1252.606445	-96.738152
32192.232660	1437.762500	1251.497070	-399.572754
32192.232660	1437.762500	1250.387695	-206.567505
32192.232660	1437.762500	1249.277344	-417.928589
32192.232660	1437.762500	1248.166992	-40.468758
32192.232660	1437.762500	1247.055664	-316.357056
32192.232660	1437.762500	1245.945313	-90.877449
32192.232660	1437.762500	1244.833984	-61.442608
32192.232660	1437.762500	1243.722656	-263.570313
32192.232660	1437.762500	1242.611328	7.657753
32192.232660	1437.762500	1241.499023	37.465099
32192.232660	1437.762500	1240.387695	47.489738
32192.232660	1437.762500	1239.275391	43.670536
32192.232660	1437.762500	1238.162109	-34.664047
32192.232660	1437.762500	1237.049805	76.217850
32192.232660	1437.762500	1235.936523	-66.590668
32192.232660	1437.762500	1234.823242	136.392746
32192.232660	1437.762500	1233.709961	-41.753357
32192.232660	1437.762500	1232.596680	133.102280
32192.232660	1437.762500	1231.482422	-50.693836
32192.232660	1437.762500	1230.369141	394.154877
32192.232660	1437.762500	1229.253906	341.243561
32192.232660	1437.762500	1228.139648	227.409622
32192.232660	1437.762500	1227.025391	403.630402
32192.232660	1437.762500	1225.910156	93.381210
32192.232660	1437.762500	1224.794922	236.177872
32192.232660	1437.762500	1223.679688	377.401733
32192.232660	1437.762500	1222.563477	102.155014
32192.232660	1437.762500	1221.447266	67.451683
32192.232660	1437.762500	1220.331055	120.761017
32192.232660	1437.762500	1219.214844	-112.799248
32192.232660	1437.762500	1218.098633	6.505802
32192.232660	1437.762500	1216.981445	-112.256935
32192.232660	1437.762500	1215.864258	-20.198231
32192.232660	1437.762500	1214.747070	1.067259
32192.232660	1437.762500	1213.629883	-107.963783
32192.232660	1437.762500	1212.511719	-93.624977
32192.232660	1437.762500	1211.393555	69.730919
32192.232660	1437.762500	1210.275391	-133.510696
32192.232660	1437.762500	1209.157227	-11.622646
32192.232660	1437.762500	1208.038086	17.125780
32192.232660	1437.762500	1206.918945	-140.590607
32192.232660	1437.762500	1205.799805	-25.575844
32192.232660	1437.762500	1204.680664	140.401245
32192.232660	1437.762500	1203.560547	146.260620
32192.232660	1437.762500	1202.441406	-134.435242
32192.232660	1437.762500	1201.321289	-128.511154
32192.232660	1437.762500	1200.200195	-30.527103
32192.232660	1437.762500	1199.080078	-109.838242
32192.232660	1437.762500	1197.958984	-75.873192
32192.232660	1437.762500	1196.837891	-121.040543
32192.232660	1437.762500	1195.716797	-122.349289
32192.232660	1437.762500	1194.594727	25.378002
32192.232660	1437.762500	1193.473633	63.714588
32192.232660	1437.762500	1192.351563	-91.321442
32192.232660	1437.762500	1191.229492	-99.368790
32192.232660	1437.762500	1190.106445	-83.728729
32192.232660	1437.762500	1188.984375	53.738945
32192.232660	1437.762500	1187.861328	179.278427
32192.232660	1437.762500	1186.738281	227.927109
32192.232660	1437.762500	1185.614258	-105.583298
32192.232660	1437.762500	1184.491211	-53.354191
32192.232660	1437.762500	1183.367188	-38.464123
32192.232660	1437.762500	1182.243164	133.567978
32192.232660	1437.762500	1181.119141	187.799713
32192.232660	1437.762500	1179.994141	244.683182
32192.232660	1437.762500	1178.869141	52.945808
32192.232660	1437.762500	1177.744141	161.162811
32192.232660	1437.762500	1176.619141	56.237560
32192.232660	1437.762500	1175.493164	229.030090
32192.232660	1437.762500	1174.368164	266.114319
32192.232660	1437.762500	1173.242188	182.971008
32192.232660	1437.762500	1172.115234	184.485733
32192.232660	1437.762500	1170.989258	151.455597
32192.232660	1437.762500	1169.862305	35.798424
32192.232660	1437.762500	1168.735352	158.410416
32192.232660	1437.762500	1167.608398	79.667709
32192.232660	1437.762500	1166.481445	4.325336
32192.232660	1437.762500	1165.353516	-28.378330
32192.232660	1437.762500	1164.225586	40.058777
32192.232660	1437.762500	1163.097656	146.245255
32192.232660	1437.762500	1161.968750	101.350914
32192.232660	1437.762500	1160.840820	402.506470
32192.232660	1437.762500	1159.711914	219.022903
32192.232660	1437.762500	1158.583008	299.410614
32192.232660	1437.762500	1157.453125	175.841034
32192.232660	1437.762500	1156.324219	122.662460
32192.232660	1437.762500	1155.194336	82.517273
32192.232660	1437.762500	1154.064453	-53.822033
32192.232660	1437.762500	1152.933594	-57.891327
32192.232660	1437.762500	1151.803711	-264.470459
32192.232660	1437.762500	1150.672852	24.138929
32192.232660	1437.762500	1149.541992	-59.208206
32192.232660	1437.762500	1148.411133	-200.295639
32192.232660	1437.762500	1147.279297	-75.362778
32192.232660	1437.762500	1146.147461	41.228882
32192.232660	1437.762500	1145.015625	-54.310265
32192.232660	1437.762500	1143.883789	46.679424
32192.232660	1437.762500	1142.750977	32.671127
32192.232660	1437.762500	1141.619141	-0.456932
32192.232660	1437.762500	1140.486328	115.732285
32192.232660	1437.762500	1139.352539	-96.670181
32192.232660	1437.762500	1138.219727	64.243820
32192.232660	1437.762500	1137.085938	39.453758
32192.232660	1437.762500	1135.952148	-90.846207
32192.232660	1437.762500	1134.818359	108.437271
32192.232660	1437.762500	1133.683594	-119.471321
32192.232660	1437.762500	1132.549805	187.577438
32192.232660	1437.762500	1131.415039	576.763306
32192.232660	1437.762500	1130.279297	573.894226
32192.232660	1437.762500	1129.144531	881.745239
32192.232660	1437.762500	1128.008789	751.167419
32192.232660	1437.762500	1126.873047	652.416443
32192.232660	1437.762500	1125.737305	575.585754
32192.232660	1437.762500	1124.601563	678.430908
32192.232660	1437.762500	1123.464844	487.896332
32192.232660	1437.762500	1122.328125	592.562317
32192.232660	1437.762500	1121.191406	801.301758
32192.232660	1437.762500	1120.054688	540.573425
32192.232660	1437.762500	1118.916992	786.745117
32192.232660	1437.762500	1117.779297	946.780579
32192.232660	1437.762500	1116.641602	810.747803
32192.232660	1437.762500	1115.503906	779.750366
32192.232660	1437.762500	1114.365234	760.388123
32192.232660	1437.762500	1113.226563	847.365356
32192.232660	1437.762500	1112.087891	854.732788
32192.232660	1437.762500	1110.949219	789.341858
32192.232660	1437.762500	1109.809570	774.325439
32192.232660	1437.762500	1108.669922	666.095215
32192.232660	1437.762500	1107.530273	678.582886
32192.232660	1437.762500	1106.390625	681.702454
32192.232660	1437.762500	1105.250000	598.064880
32192.232660	1437.762500	1104.109375	522.053162
32192.232660	1437.762500	1102.968750	593.768860
32192.232660	1437.762500	1101.828125	577.709961
32192.232660	1437.762500	1100.686523	822.569275
32192.232660	1437.762500	1099.544922	442.132477
32192.232660	1437.762500	1098.403320	694.807861
32192.232660	1437.762500	1097.261719	834.298645
32192.232660	1437.762500	1096.120117	565.030701
32192.232660	1437.762500	1094.977539	646.809509
32192.232660	1437.762500	1093.834961	570.956604
32192.232660	1437.762500	1092.691406	450.681610
32192.232660	1437.762500	1091.548828	496.862457
32192.232660	1437.762500	1090.405273	588.767822
32192.232660	1437.762500	1089.261719	653.762634
32192.232660	1437.762500	1088.118164	565.542358
32192.232660	1437.762500	1086.973633	669.657959
32192.232660	1437.762500	1085.829102	538.961121
32192.232660	1437.762500	1084.684570	614.446167
32192.232660	1437.762500	1083.540039	619.027405
32192.232660	1437.762500	1082.395508	134.083054
32192.232660	1437.762500	1081.250000	571.322815
32192.232660	1437.762500	1080.104492	613.802979
32192.232660	1437.762500	1078.958984	495.487671
32192.232660	1437.762500	1077.812500	450.169373
32192.232660	1437.762500	1076.666016	396.669342
32192.232660	1437.762500	1075.519531	293.317047
32192.232660	1437.762500	1074.373047	437.890167
32192.232660	1437.762500	1073.226563	488.923248
32192.232660	1437.762500	1072.079102	507.954376
32192.232660	1437.762500	1070.931641	585.068115
32192.232660	1437.762500	1069.784180	548.831238
32192.232660	1437.762500	1068.635742	659.390015
32192.232660	1437.762500	1067.487305	443.307800
32192.232660	1437.762500	1066.338867	520.628967
32192.232660	1437.762500	1065.190430	680.032715
32192.232660	1437.762500	1064.041992	680.903259
32192.232660	1437.762500	1062.892578	760.008484
32192.232660	1437.762500	1061.743164	783.856689
32192.232660	1437.762500	1060.593750	671.608398
32192.232660	1437.762500	1059.443359	668.127136
32192.232660	1437.762500	1058.292969	604.040466
32192.232660	1437.762500	1057.142578	661.661438
32192.232660	1437.762500	1055.992188	584.397888
32192.232660	1437.762500	1054.841797	497.933868
32192.232660	1437.762500	1053.690430	454.174316
32192.232660	1437.762500	1052.539063	623.384216
32192.232660	1437.762500	1051.387695	711.087524
32192.232660	1437.762500	1050.235352	798.890198
32192.232660	1437.762500	1049.083984	845.556641
32192.232660	1437.762500	1047.931641	504.953339
32192.232660	1437.762500	1046.778320	424.053162
32192.232660	1437.762500	1045.625977	434.993408
32192.232660	1437.762500	1044.472656	177.593948
32192.232660	1437.762500	1043.319336	292.959412
32192.232660	1437.762500	1042.166016	307.379486
32192.232660	1437.762500	1041.012695	166.954483
32192.232660	1437.762500	1039.858398	203.431107
32192.232660	1437.762500	1038.704102	316.015930
32192.232660	1437.762500	1037.549805	-74.439789
32192.232660	1437.762500	1036.394531	87.149338
32192.232660	1437.762500	1035.239258	131.531174
32192.232660	1437.762500	1034.083984	226.413467
32192.232660	1437.762500	1032.928711	451.223663
32192.232660	1437.762500	1031.773438	398.305267
32192.232660	1437.762500	1030.617188	445.219818
32192.232660	1437.762500	1029.460938	512.955872
32192.232660	1437.762500	1028.304688	449.738831
32192.232660	1437.762500	1027.147461	687.222778
32192.232660	1437.762500	1025.991211	409.797913
32192.232660	1437.762500	1024.833984	409.585144
32192.232660	1437.762500	1023.675781	519.811584
32192.232660	1437.762500	1022.518555	535.433350
32192.232660	1437.762500	1021.360352	640.772034
32192.232660	1437.762500	1020.202148	474.609894
32192.232660	1437.762500	1019.043945	317.772919
32192.232660	1437.762500	1017.884766	246.475189
32192.232660	1437.762500	1016.726563	422.471497
32192.232660	1437.762500	1015.567383	325.595398
32192.232660	1437.762500	1014.407227	209.502762
32192.232660	1437.762500	1013.248047	306.471313
32192.232660	1437.762500	1012.087891	249.143753
32192.232660	1437.762500	1010.927734	208.405502
32192.232660	1437.762500	1009.767578	107.403870
32192.232660	1437.762500	1008.606445	176.637558
32192.232660	1437.762500	1007.446289	145.298080
32192.232660	1437.762500	1006.285156	402.265778
32192.232660	1437.762500	1005.123047	146.582291
32192.232660	1437.762500	1003.961914	322.880981
32192.232660	1437.762500	1002.799805	156.466568
32192.232660	1437.762500	1001.637695	354.059021
32192.232660	1437.762500	1000.475586	2.373074
32192.232660	1437.762500	999.312500	479.511414
32192.232660	1437.762500	998.149414	327.246948
32192.232660	1437.762500	996.986328	258.459473
32192.232660	1437.762500	995.823242	-4.701737
32192.232660	1437.762500	994.659180	222.969299
32192.232660	1437.762500	993.496094	-106.294273
32192.232660	1437.762500	992.332031	18.529924
32192.232660	1437.762500	991.166992	-23.410940
32192.232660	1437.762500	990.002930	104.601036
32192.232660	1437.762500	988.837891	-16.089882
32192.232660	1437.762500	987.672852	205.520264
32192.232660	1437.762500	986.506836	192.791336
32192.232660	1437.762500	985.341797	33.191696
32192.232660	1437.762500	984.175781	18.756580
32192.232660	1437.762500	983.009766	83.538994
32192.232660	1437.762500	981.843750	162.869873
32192.232660	1437.762500	980.676758	-48.399944
32192.232660	1437.762500	979.509766	85.471169
32192.232660	1437.762500	978.342773	-59.145786
32192.232660	1437.762500	977.175781	44.121147
32192.232660	1437.762500	976.007813	-171.736801
32192.232660	1437.762500	974.839844	192.281021
32192.232660	1437.762500	973.671875	136.853210
32192.232660	1437.762500	972.503906	-85.031082
32192.232660	1437.762500	971.334961	21.190453
32192.232660	1437.762500	970.166016	204.301865
32192.232660	1437.762500	968.997070	157.038376
32192.232660	1437.762500	967.828125	69.931129
32192.232660	1437.762500	966.658203	172.014908
32192.232660	1437.762500	965.488281	268.158875
32192.232660	1437.762500	964.318359	117.733047
32192.232660	1437.762500	963.148438	156.553680
32192.232660	1437.762500	961.977539	-228.163956
32192.232660	1437.762500	960.806641	-49.687237
32192.232660	1437.762500	959.635742	-44.266308
32192.232660	1437.762500	958.463867	-105.697739
32192.232660	1437.762500	957.292969	-133.808792
32192.232660	1437.762500	956.121094	27.095587
32192.232660	1437.762500	954.948242	-87.956566
32192.232660	1437.762500	953.776367	105.243851
32192.232660	1437.762500	952.603516	-82.206024
32192.232660	1437.762500	951.430664	149.810501
32192.232660	1437.762500	950.257813	148.437775
32192.232660	1437.762500	949.084961	355.604309
32192.232660	1437.762500	947.911133	451.301300
32192.232660	1437.762500	946.737305	313.117188
32192.232660	1437.762500	945.563477	-106.488258
32192.232660	1437.762500	944.388672	207.621521
32192.232660	1437.762500	943.213867	306.662994
32192.232660	1437.762500	942.039063	36.084225
32192.232660	1437.762500	940.864258	93.465034
32192.232660	1437.762500	939.688477	432.820740
32192.232660	1437.762500	938.513672	298.815308
32192.232660	1437.762500	937.337891	354.168060
32192.232660	1437.762500	936.161133	285.022156
32192.232660	1437.762500	934.985352	548.697021
32192.232660	1437.762500	933.808594	248.177338
32192.232660	1437.762500	932.631836	326.506989
32192.232660	1437.762500	931.454102	232.246948
32192.232660	1437.762500	930.277344	525.005798
32192.232660	1437.762500	929.099609	472.682159
32192.232660	1437.762500	927.921875	510.837433
32192.232660	1437.762500	926.743164	389.098969
32192.232660	1437.762500	925.565430	551.186768
32192.232660	1437.762500	924.386719	248.718994
32192.232660	1437.762500	923.208008	246.871399
32192.232660	1437.762500	922.028320	236.576767
32192.232660	1437.762500	920.849609	224.172562
32192.232660	1437.762500	919.669922	229.496338
32192.232660	1437.762500	919.474609	118.131714
32192.232660	1437.762500	918.309570	-49.726654
32192.232660	1437.762500	917.143555	-116.766411
32192.232660	1437.762500	915.977539	-80.953308
32192.232660	1437.762500	914.810547	-183.669189
32192.232660	1437.762500	913.644531	-124.817703
32192.232660	1437.762500	912.477539	-303.034210
32192.232660	1437.762500	911.310547	-109.994370
32192.232660	1437.762500	910.143555	-107.856888
32192.232660	1437.762500	908.975586	-86.865051
32192.232660	1437.762500	907.807617	-135.063660
32192.232660	1437.762500	906.639648	-151.826279
32192.232660	1437.762500	905.471680	-107.841866
32192.232660	1437.762500	904.303711	24.083378
32192.232660	1437.762500	903.134766	-63.946316
32192.232660	1437.762500	901.965820	-277.580231
32192.232660	1437.762500	900.796875	-143.647018
32192.232660	1437.762500	899.626953	-118.608940
32192.232660	1437.762500	898.457031	46.602505
32192.232660	1437.762500	897.287109	184.536530
32192.232660	1437.762500	896.117188	25.389824
32192.232660	1437.762500	894.947266	131.879532
32192.232660	1437.762500	893.776367	2.058930
32192.232660	1437.762500	892.605469	202.557068
32192.232660	1437.762500	891.434570	24.684824
32192.232660	1437.762500	890.262695	14.037394
32192.232660	1437.762500	889.091797	197.665558
32192.232660	1437.762500	887.919922	-3.100018
32192.232660	1437.762500	886.748047	-9.588302
32192.232660	1437.762500	885.575195	-214.420975
32192.232660	1437.762500	884.403320	-231.319702
32192.232660	1437.762500	883.230469	-108.391441
32192.232660	1437.762500	882.057617	-169.136063
32192.232660	1437.762500	880.883789	-81.747597
32192.232660	1437.762500	879.710938	-188.375427
32192.232660	1437.762500	878.537109	-288.707672
32192.232660	1437.762500	877.362305	9.196244
32192.232660	1437.762500	876.188477	-324.603058
32192.232660	1437.762500	875.013672	-147.699097
32192.232660	1437.762500	873.839844	-225.070328
32192.232660	1437.762500	872.664063	39.220043
32192.232660	1437.762500	871.489258	-179.790894
32192.232660	1437.762500	870.313477	-230.054153
32192.232660	1437.762500	869.138672	-136.661453
32192.232660	1437.762500	867.962891	-301.403748
32192.232660	1437.762500	866.786133	-303.766296
32192.232660	1437.762500	865.610352	-395.601624
32192.232660	1437.762500	864.433594	-106.740730
32192.232660	1437.762500	863.256836	121.683578
32192.232660	1437.762500	862.079102	-134.458588
32192.232660	1437.762500	860.902344	185.332825
32192.232660	1437.762500	859.724609	2.012812
32192.232660	1437.762500	858.546875	-2.531912
32192.232660	1437.762500	857.368164	46.938793
32192.232660	1437.762500	856.190430	117.149582
32192.232660	1437.762500	855.011719	-338.081360
32192.232660	1437.762500	853.833008	-85.118347
32192.232660	1437.762500	852.654297	-35.700706
32192.232660	1437.762500	851.474609	-15.363806
32192.232660	1437.762500	850.294922	212.458710
32192.232660	1437.762500	849.115234	70.903442
32192.232660	1437.762500	847.935547	-10.451663
32192.232660	1437.762500	846.754883	-174.726013
32192.232660	1437.762500	845.575195	-179.301407
32192.232660	1437.762500	844.393555	-15.972339
32192.232660	1437.762500	843.212891	8.422479
32192.232660	1437.762500	842.032227	-33.506943
32192.232660	1437.762500	840.850586	-125.142830
32192.232660	1437.762500	839.668945	27.647522
32192.232660	1437.762500	838.486328	29.205477
32192.232660	1437.762500	837.304688	165.319183
32192.232660	1437.762500	836.122070	-234.733673
32192.232660	1437.762500	834.939453	153.836823
32192.232660	1437.762500	833.756836	-119.858337
32192.232660	1437.762500	832.573242	28.549450
32192.232660	1437.762500	831.389648	23.838373
32192.232660	1437.762500	830.206055	-40.847397
32192.232660	1437.762500	829.022461	-159.270920
32192.232660	1437.762500	827.838867	-0.691367
32192.232660	1437.762500	826.654297	2.826138
32192.232660	1437.762500	825.469727	-115.569138
32192.232660	1437.762500	824.284180	-151.299805
32192.232660	1437.762500	823.099609	71.116737
32192.232660	1437.762500	821.914063	-57.583275
32192.232660	1437.762500	820.728516	-233.725204
32192.232660	1437.762500	819.542969	108.236397
32192.232660	1437.762500	818.356445	-80.277458
32192.232660	1437.762500	817.169922	-64.485680
32192.232660	1437.762500	815.983398	-44.592865
32192.232660	1437.762500	814.796875	12.394597
32192.232660	1437.762500	813.609375	17.798014
32192.232660	1437.762500	812.422852	-119.058090
32192.232660	1437.762500	811.235352	77.999641
32192.232660	1437.762500	810.046875	7.091699
32192.232660	1437.762500	808.859375	-205.958313
32192.232660	1437.762500	807.670898	-50.257442
32192.232660	1437.762500	806.482422	-139.692520
32192.232660	1437.762500	805.293945	-189.996582
32192.232660	1437.762500	804.104492	-36.518505
32192.232660	1437.762500	802.915039	-68.345284
32192.232660	1437.762500	801.725586	142.607391
32192.232660	1437.762500	800.536133	-4.492185
32192.232660	1437.762500	799.345703	-81.625832
32192.232660	1437.762500	798.155273	-29.209608
32192.232660	1437.762500	796.964844	-133.086014
32192.232660	1437.762500	795.774414	69.309692
32192.232660	1437.762500	794.583008	199.670364
32192.232660	1437.762500	793.392578	-95.350868
32192.232660	1437.762500	792.200195	178.723373
32192.232660	1437.762500	791.008789	202.095871
32192.232660	1437.762500	789.816406	200.790619
32192.232660	1437.762500	788.625000	-42.788158
32192.232660	1437.762500	787.432617	60.566032
32192.232660	1437.762500	786.239258	-33.146702
32192.232660	1437.762500	785.046875	104.969246
32192.232660	1437.762500	783.853516	52.238316
32192.232660	1437.762500	782.660156	190.209473
32192.232660	1437.762500	781.465820	123.058578
32192.232660	1437.762500	780.272461	404.373840
32192.232660	1437.762500	779.078125	230.556534
32192.232660	1437.762500	777.883789	370.272949
32192.232660	1437.762500	776.688477	194.407730
32192.232660	1437.762500	775.494141	55.437027
32192.232660	1437.762500	774.298828	131.499146
32192.232660	1437.762500	773.103516	-75.046211
32192.232660	1437.762500	771.907227	158.538025
32192.232660	1437.762500	770.711914	191.420609
32192.232660	1437.762500	769.515625	-29.464569
32192.232660	1437.762500	768.318359	74.951820
32192.232660	1437.762500	767.122070	-47.743290
32192.232660	1437.762500	765.924805	34.042931
32192.232660	1437.762500	764.727539	-92.778801
32192.232660	1437.762500	763.530273	-2.941811
32192.232660	1437.762500	762.333008	150.153564
32192.232660	1437.762500	761.134766	29.362146
32192.232660	1437.762500	759.936523	67.893600
32192.232660	1437.762500	758.738281	126.776321
32192.232660	1437.762500	757.540039	69.195885
32192.232660	1437.762500	756.340820	-72.111252
32192.232660	1437.762500	755.141602	135.584290
32192.232660	1437.762500	753.942383	206.420242
32192.232660	1437.762500	752.742188	1.753997
32192.232660	1437.762500	751.541992	54.110954
32192.232660	1437.762500	750.341797	2.383733
32192.232660	1437.762500	749.141602	-45.308491
32192.232660	1437.762500	747.941406	70.028458
32192.232660	1437.762500	746.740234	77.240952
32192.232660	1437.762500	745.539063	239.238449
32192.232660	1437.762500	744.337891	113.866661
32192.232660	1437.762500	743.135742	228.811661
32192.232660	1437.762500	741.933594	25.980110
32192.232660	1437.762500	740.731445	240.513657
32192.232660	1437.762500	739.529297	279.840057
32192.232660	1437.762500	738.326172	111.509399
32192.232660	1437.762500	737.124023	8.280949
32192.232660	1437.762500	735.919922	124.711929
32192.232660	1437.762500	734.716797	-15.230399
32192.232660	1437.762500	733.513672	23.740330
32192.232660	1437.762500	732.309570	44.323322
32192.232660	1437.762500	731.105469	221.318359
32192.232660	1437.762500	729.900391	24.268295
32192.232660	1437.762500	728.696289	-32.599957
32192.232660	1437.762500	727.491211	62.814793
32192.232660	1437.762500	726.286133	48.447369
32192.232660	1437.762500	725.080078	86.791534
32192.232660	1437.762500	723.874023	252.919937
32192.232660	1437.762500	722.668945	319.449463
32192.232660	1437.762500	721.461914	444.708527
32192.232660	1437.762500	720.255859	267.563202
32192.232660	1437.762500	719.048828	311.478088
32192.232660	1437.762500	717.841797	184.952927
32192.232660	1437.762500	716.634766	208.415573
32192.232660	1437.762500	715.427734	25.031191
32192.232660	1437.762500	714.219727	78.734383
32192.232660	1437.762500	713.011719	24.939297
32192.232660	1437.762500	711.803711	-73.489655
32192.232660	1437.762500	710.594727	14.348724
32192.232660	1437.762500	709.385742	195.196960
32192.232660	1437.762500	708.176758	292.873596
32192.232660	1437.762500	706.967773	173.849503
32192.232660	1437.762500	705.758789	172.143448
32192.232660	1437.762500	704.548828	380.741241
32192.232660	1437.762500	703.338867	374.748169
32192.232660	1437.762500	702.127930	342.367676
32192.232660	1437.762500	700.917969	390.774536
32192.232660	1437.762500	699.707031	388.521820
32192.232660	1437.762500	698.496094	507.428101
32192.232660	1437.762500	697.285156	312.993652
32192.232660	1437.762500	696.073242	377.112976
32192.232660	1437.762500	694.861328	422.924194
32192.232660	1437.762500	693.649414	284.854431
32192.232660	1437.762500	692.436523	257.772614
32192.232660	1437.762500	691.224609	107.472054
32192.232660	1437.762500	690.011719	187.179504
32192.232660	1437.762500	688.798828	305.079498
32192.232660	1437.762500	687.584961	382.475189
32192.232660	1437.762500	686.372070	584.769165
32192.232660	1437.762500	685.158203	444.091797
32192.232660	1437.762500	683.943359	519.061401
32192.232660	1437.762500	682.729492	632.183655
32192.232660	1437.762500	681.514648	479.157715
32192.232660	1437.762500	680.299805	493.296875
32192.232660	1437.762500	679.084961	789.305664
32192.232660	1437.762500	677.869141	638.014160
32192.232660	1437.762500	676.653320	730.288513
32192.232660	1437.762500	675.437500	554.689880
32192.232660	1437.762500	674.221680	682.937683
32192.232660	1437.762500	673.004883	352.258972
32192.232660	1437.762500	671.789063	524.520569
32192.232660	1437.762500	670.571289	346.633057
32192.232660	1437.762500	669.354492	462.283844
32192.232660	1437.762500	668.136719	435.027863
32192.232660	1437.762500	666.919922	480.027679
32192.232660	1437.762500	665.701172	358.093140
32192.232660	1437.762500	664.483398	234.085815
32192.232660	1437.762500	663.264648	580.041382
32192.232660	1437.762500	662.045898	405.592133
32192.232660	1437.762500	660.827148	347.551361
32192.232660	1437.762500	659.608398	433.950195
32192.232660	1437.762500	658.388672	341.567749
32192.232660	1437.762500	657.168945	524.003479
32192.232660	1437.762500	655.949219	521.677246
32192.232660	1437.762500	654.728516	639.572083
32192.232660	1437.762500	653.507813	590.856140
32192.232660	1437.762500	652.287109	604.192566
32192.232660	1437.762500	651.066406	641.456421
32192.232660	1437.762500	649.844727	654.531738
32192.232660	1437.762500	648.623047	577.318726
32192.232660	1437.762500	647.401367	512.038147
32192.232660	1437.762500	646.179688	773.114014
32192.232660	1437.762500	644.957031	533.371521
32192.232660	1437.762500	643.734375	732.028748
32192.232660	1437.762500	642.511719	672.290894
32192.232660	1437.762500	641.289063	680.494263
32192.232660	1437.762500	640.065430	724.581970
32192.232660	1437.762500	638.841797	946.550720
32192.232660	1437.762500	637.618164	662.359985
32192.232660	1437.762500	636.393555	546.111755
32192.232660	1437.762500	635.168945	731.635315
32192.232660	1437.762500	633.944336	587.207397
32192.232660	1437.762500	632.719727	506.661530
32192.232660	1437.762500	631.494141	475.968719
32192.232660	1437.762500	630.269531	636.914978
32192.232660	1437.762500	629.042969	272.498993
32192.232660	1437.762500	627.817383	437.175385
32192.232660	1437.762500	626.590820	535.792542
32192.232660	1437.762500	625.365234	400.779938
32192.232660	1437.762500	624.137695	491.147980
32192.232660	1437.762500	622.911133	330.038025
32192.232660	1437.762500	621.683594	513.887695
32192.232660	1437.762500	620.456055	510.125366
32192.232660	1437.762500	619.228516	231.157990
32192.232660	1437.762500	618.000977	414.579254
32192.232660	1437.762500	616.772461	269.027405
32192.232660	1437.762500	615.543945	101.514191
32192.232660	1437.762500	614.314453	294.463959
32192.232660	1437.762500	613.085938	296.064972
32192.232660	1437.762500	611.856445	239.815338
32192.232660	1437.762500	610.626953	253.151047
32192.232660	1437.762500	609.397461	363.889587
32192.232660	1437.762500	608.166992	180.003845
32192.232660	1437.762500	606.936523	77.651886
32192.232660	1437.762500	605.706055	74.681519
32192.232660	1437.762500	604.474609	-29.801672
32192.232660	1437.762500	603.244141	62.474125
32192.232660	1437.762500	602.012695	100.942513
32192.232660	1437.762500	600.780273	173.070358
32192.232660	1437.762500	599.548828	44.425900
32192.232660	1437.762500	598.316406	132.235367
32192.232660	1437.762500	597.083984	-191.152893
32192.232660	1437.762500	595.851563	15.610151
32192.232660	1437.762500	594.618164	-71.591927
32192.232660	1437.762500	593.384766	236.081696
32192.232660	1437.762500	592.151367	285.599274
32192.232660	1437.762500	590.917969	75.142029
32192.232660	1437.762500	589.683594	-54.004299
32192.232660	1437.762500	588.449219	36.921421
32192.232660	1437.762500	587.214844	76.182487
32192.232660	1437.762500	585.979492	18.217903
32192.232660	1437.762500	584.745117	100.903473
32192.232660	1437.762500	583.509766	-10.689097
32192.232660	1437.762500	582.273438	-49.028996
32192.232660	1437.762500	581.038086	170.025620
32192.232660	1437.762500	579.801758	-42.715500
32192.232660	1437.762500	578.565430	-140.625351
32192.232660	1437.762500	577.329102	89.963890
32192.232660	1437.762500	576.091797	-59.522686
32192.232660	1437.762500	574.854492	101.572456
32192.232660	1437.762500	573.617188	-133.027145
32192.232660	1437.762500	572.378906	73.360367
32192.232660	1437.762500	571.141602	174.830948
32192.232660	1437.762500	569.903320	116.090225
32192.232660	1437.762500	568.664063	193.661499
32192.232660	1437.762500	567.425781	-48.906853
32192.232660	1437.762500	566.186523	342.629700
32192.232660	1437.762500	564.947266	214.561996
32192.232660	1437.762500	563.708008	43.063923
32192.232660	1437.762500	562.467773	211.113113
32192.232660	1437.762500	561.227539	369.178284
32192.232660	1437.762500	559.987305	98.956825
32192.232660	1437.762500	558.747070	284.514252
32192.232660	1437.762500	557.505859	-11.301733
32192.232660	1437.762500	556.264648	-76.315193
32192.232660	1437.762500	555.023438	-17.131453
32192.232660	1437.762500	553.781250	-21.088396
32192.232660	1437.762500	552.539063	152.283966
32192.232660	1437.762500	551.296875	79.277771
32192.232660	1437.762500	550.054688	-109.940781
32192.232660	1437.762500	548.811523	173.537476
32192.232660	1437.762500	547.569336	108.378113
32192.232660	1437.762500	546.325195	23.523085
32192.232660	1437.762500	545.082031	-195.134232
32192.232660	1437.762500	543.837891	-142.181976
32192.232660	1437.762500	542.593750	-136.480118
32192.232660	1437.762500	541.349609	-240.934708
32192.232660	1437.762500	540.105469	-117.247765
32192.232660	1437.762500	538.860352	-266.904663
32192.232660	1437.762500	537.615234	-159.010529
32192.232660	1437.762500	536.369141	-151.397430
32192.232660	1437.762500	535.124023	129.319962
32192.232660	1437.762500	533.877930	-218.672119
32192.232660	1437.762500	532.631836	-236.577454
32192.232660	1437.762500	531.384766	-146.486938
32192.232660	1437.762500	530.138672	24.067642
32192.232660	1437.762500	528.891602	-107.695251
32192.232660	1437.762500	527.643555	-5.897608
32192.232660	1437.762500	526.396484	-115.992218
32192.232660	1437.762500	525.148438	-27.935436
32192.232660	1437.762500	523.900391	-75.203697
32192.232660	1437.762500	522.652344	-120.470886
32192.232660	1437.762500	521.403320	-71.621933
32192.232660	1437.762500	520.154297	-244.214462
32192.232660	1437.762500	518.905273	-377.523041
32192.232660	1437.762500	517.656250	-173.825256
32192.232660	1437.762500	516.406250	-573.390747
32192.232660	1437.762500	515.156250	-58.365387
32192.232660	1437.762500	513.906250	-422.484772
32192.232660	1437.762500	512.655273	-449.790192
32192.232660	1437.762500	511.404297	-377.254761
32192.232660	1437.762500	510.153320	-300.801788
32192.232660	1437.762500	508.902344	-386.681854
32192.232660	1437.762500	507.650391	-288.680328
32192.232660	1437.762500	506.398438	-139.846970
32192.232660	1437.762500	505.146484	-53.583786
32192.232660	1437.762500	503.893555	-299.541534
32192.232660	1437.762500	502.641602	-152.624176
32192.232660	1437.762500	501.388672	5.986604
32192.232660	1437.762500	500.134766	-294.378967
32192.232660	1437.762500	498.881836	-100.564781
32192.232660	1437.762500	497.627930	-94.198776
32192.232660	1437.762500	496.374023	-189.272919
32192.232660	1437.762500	495.119141	82.574486
32192.232660	1437.762500	493.865234	69.540901
32192.232660	1437.762500	492.610352	-95.579765
32192.232660	1437.762500	491.355469	26.075459
32192.232660	1437.762500	490.099609	-6.296957
32192.232660	1437.762500	488.843750	125.129524
32192.232660	1437.762500	487.587891	-10.429192
32192.232660	1437.762500	486.332031	70.389153
32192.232660	1437.762500	485.075195	184.331573
32192.232660	1437.762500	483.818359	11.994480
32192.232660	1437.762500	482.561523	-18.079538
32192.232660	1437.762500	481.304688	123.216431
32192.232660	1437.762500	480.046875	118.526535
32192.232660	1437.762500	478.789063	137.238495
32192.232660	1437.762500	477.531250	97.630707
32192.232660	1437.762500	476.272461	233.127304
32192.232660	1437.762500	475.013672	45.815666
32192.232660	1437.762500	473.754883	274.676849
32192.232660	1437.762500	472.496094	206.094116
32192.232660	1437.762500	471.236328	96.766548
32192.232660	1437.762500	469.976563	53.585411
32192.232660	1437.762500	468.716797	142.548706
32192.232660	1437.762500	467.456055	138.284805
32192.232660	1437.762500	466.196289	104.941452
32192.232660	1437.762500	464.935547	384.170776
32192.232660	1437.762500	463.673828	46.129322
32192.232660	1437.762500	462.413086	286.500244
32192.232660	1437.762500	461.151367	-88.182915
32192.232660	1437.762500	459.889648	188.998642
32192.232660	1437.762500	458.626953	171.324432
32192.232660	1437.762500	457.364258	161.425690
32192.232660	1437.762500	456.101563	147.663696
32192.232660	1437.762500	454.838867	172.669998
32192.232660	1437.762500	453.575195	65.911728
32192.232660	1437.762500	452.312500	271.063232
32192.232660	1437.762500	451.047852	387.017670
32192.232660	1437.762500	449.784180	69.211670
32192.232660	1437.762500	448.519531	105.759682
32192.232660	1437.762500	447.254883	-22.238354
32192.232660	1437.762500	445.990234	43.280968
32192.232660	1437.762500	444.725586	126.145439
32192.232660	1437.762500	443.459961	278.548523
32192.232660	1437.762500	442.194336	202.662323
32192.232660	1437.762500	440.927734	101.610344
32192.232660	1437.762500	439.662109	282.738373
32192.232660	1437.762500	438.395508	183.506744
32192.232660	1437.762500	437.127930	341.185638
32192.232660	1437.762500	435.861328	338.391693
32192.232660	1437.762500	434.593750	171.344681
32192.232660	1437.762500	433.326172	135.553711
32192.232660	1437.762500	432.058594	-20.018875
32192.232660	1437.762500	430.790039	165.933731
32192.232660	1437.762500	429.521484	50.669785
32192.232660	1437.762500	428.252930	31.761883
32192.232660	1437.762500	426.984375	178.568390
32192.232660	1437.762500	425.714844	330.916595
32192.232660	1437.762500	424.445313	188.063675
32192.232660	1437.762500	423.174805	274.428589
32192.232660	1437.762500	421.905273	189.059784
32192.232660	1437.762500	420.634766	515.783752
32192.232660	1437.762500	419.364258	183.391663
32192.232660	1437.762500	418.092773	472.898773
32192.232660	1437.762500	416.822266	386.594330
32192.232660	1437.762500	415.550781	186.474503
32192.232660	1437.762500	414.278320	424.920135
32192.232660	1437.762500	413.006836	466.712524
32192.232660	1437.762500	411.734375	331.179077
32192.232660	1437.762500	410.461914	316.528992
32192.232660	1437.762500	409.188477	318.821350
32192.232660	1437.762500	407.916016	353.431213
32192.232660	1437.762500	406.642578	510.629181
32192.232660	1437.762500	405.368164	469.415314
32192.232660	1437.762500	404.094727	176.131653
32192.232660	1437.762500	402.820313	414.551117
32192.232660	1437.762500	401.545898	387.392822
32192.232660	1437.762500	400.270508	549.811279
32192.232660	1437.762500	398.996094	544.662781
32192.232660	1437.762500	397.720703	613.810669
32192.232660	1437.762500	396.444336	588.340576
32192.232660	1437.762500	395.168945	633.286926
32192.232660	1437.762500	393.892578	261.426880
32192.232660	1437.762500	392.616211	284.079376
32192.232660	1437.762500	391.339844	599.358032
32192.232660	1437.762500	390.062500	448.076752
32192.232660	1437.762500	388.785156	437.944580
32192.232660	1437.762500	387.507813	354.280090
32192.232660	1437.762500	386.229492	482.463684
32192.232660	1437.762500	384.951172	468.090607
32192.232660	1437.762500	383.672852	387.807343
32192.232660	1437.762500	382.394531	295.216705
32192.232660	1437.762500	381.115234	303.177948
32192.232660	1437.762500	379.835938	331.260315
32192.232660	1437.762500	378.556641	195.786957
32192.232660	1437.762500	377.277344	189.427902
32192.232660	1437.762500	375.997070	73.040176
32192.232660	1437.762500	374.716797	141.065659
32192.232660	1437.762500	373.435547	152.516251
32192.232660	1437.762500	372.155273	109.357346
32192.232660	1437.762500	370.874023	116.594940
32192.232660	1437.762500	369.591797	114.951813
32192.232660	1437.762500	368.310547	35.708466
32192.232660	1437.762500	367.028320	-163.184143
32192.232660	1437.762500	365.746094	-94.206306
32192.232660	1437.762500	364.463867	-9.460479
32192.232660	1437.762500	363.180664	66.165482
32192.232660	1437.762500	361.897461	193.697174
32192.232660	1437.762500	360.614258	130.869064
32192.232660	1437.762500	359.330078	93.165749
32192.232660	1437.762500	358.045898	90.085678
32192.232660	1437.762500	356.761719	-82.352676
32192.232660	1437.762500	355.477539	-168.778336
32192.232660	1437.762500	354.192383	-239.823486
32192.232660	1437.762500	352.907227	133.001175
32192.232660	1437.762500	351.622070	73.477318
32192.232660	1437.762500	350.336914	-96.448387
32192.232660	1437.762500	349.050781	68.552368
32192.232660	1437.762500	347.764648	-46.368168
32192.232660	1437.762500	346.477539	-117.723145
32192.232660	1437.762500	345.191406	59.916454
32192.232660	1437.762500	343.904297	-78.549828
32192.232660	1437.762500	342.616211	-133.736435
32192.232660	1437.762500	341.329102	35.008614
32192.232660	1437.762500	340.041016	-159.849075
32192.232660	1437.762500	338.752930	-319.094299
32192.232660	1437.762500	337.463867	-144.659943
32192.232660	1437.762500	336.175781	-198.837784
32192.232660	1437.762500	334.886719	-157.006760
32192.232660	1437.762500	333.596680	-195.844391
32192.232660	1437.762500	332.307617	-262.093597
32192.232660	1437.762500	331.017578	-114.976082
32192.232660	1437.762500	329.727539	-443.263123
32192.232660	1437.762500	328.436523	-452.115570
32192.232660	1437.762500	327.146484	-221.305649
32192.232660	1437.762500	325.855469	-160.721558
32192.232660	1437.762500	324.563477	-294.983978
32192.232660	1437.762500	323.272461	-70.548813
32192.232660	1437.762500	321.980469	125.600121
32192.232660	1437.762500	320.688477	179.833618
32192.232660	1437.762500	319.395508	-10.204019
32192.232660	1437.762500	318.103516	-97.776482
32192.232660	1437.762500	316.810547	64.407089
32192.232660	1437.762500	315.516602	21.883085
32192.232660	1437.762500	314.223633	79.522827
32192.232660	1437.762500	312.929688	429.893219
32192.232660	1437.762500	311.635742	-61.930397
32192.232660	1437.762500	310.340820	260.742950
32192.232660	1437.762500	309.045898	297.172668
32192.232660	1437.762500	307.750977	372.515900
32192.232660	1437.762500	306.456055	522.545288
32192.232660	1437.762500	305.160156	618.504700
32192.232660	1437.762500	303.865234	711.576294
32192.232660	1437.762500	302.568359	850.337708
32192.232660	1437.762500	301.272461	661.242737
32192.232660	1437.762500	299.975586	1172.798096
32192.232660	1437.762500	298.678711	1239.097534
