#X		#Y		#Wave		#Intensity
31131.414043	1154.046500	1999.980469	123.857117
31131.414043	1154.046500	1999.016602	221.267471
31131.414043	1154.046500	1998.052734	-54.796108
31131.414043	1154.046500	1997.087891	-63.373787
31131.414043	1154.046500	1996.123047	-5.303184
31131.414043	1154.046500	1995.158203	228.383804
31131.414043	1154.046500	1994.193359	95.189308
31131.414043	1154.046500	1993.228516	53.438503
31131.414043	1154.046500	1992.262695	-10.796497
31131.414043	1154.046500	1991.297852	-35.618793
31131.414043	1154.046500	1990.332031	-139.831818
31131.414043	1154.046500	1989.366211	134.385590
31131.414043	1154.046500	1988.399414	5.050862
31131.414043	1154.046500	1987.433594	-198.630936
31131.414043	1154.046500	1986.466797	20.482821
31131.414043	1154.046500	1985.500977	182.469223
31131.414043	1154.046500	1984.534180	47.572887
31131.414043	1154.046500	1983.567383	132.547379
31131.414043	1154.046500	1982.599609	54.235867
31131.414043	1154.046500	1981.632813	59.809952
31131.414043	1154.046500	1980.665039	-164.498795
31131.414043	1154.046500	1979.697266	191.556915
31131.414043	1154.046500	1978.729492	75.691650
31131.414043	1154.046500	1977.761719	189.355713
31131.414043	1154.046500	1976.792969	169.559601
31131.414043	1154.046500	1975.825195	-25.576981
31131.414043	1154.046500	1974.856445	77.826050
31131.414043	1154.046500	1973.887695	136.676163
31131.414043	1154.046500	1972.918945	81.937164
31131.414043	1154.046500	1971.949219	-7.404521
31131.414043	1154.046500	1970.980469	4.289811
31131.414043	1154.046500	1970.010742	109.573418
31131.414043	1154.046500	1969.041016	-26.818657
31131.414043	1154.046500	1968.071289	36.374649
31131.414043	1154.046500	1967.101563	-43.437752
31131.414043	1154.046500	1966.130859	39.296761
31131.414043	1154.046500	1965.161133	114.543373
31131.414043	1154.046500	1964.190430	105.972389
31131.414043	1154.046500	1963.219727	-1.138371
31131.414043	1154.046500	1962.249023	0.045243
31131.414043	1154.046500	1961.277344	-3.746739
31131.414043	1154.046500	1960.306641	17.019791
31131.414043	1154.046500	1959.334961	-173.849228
31131.414043	1154.046500	1958.363281	132.187012
31131.414043	1154.046500	1957.391602	-19.366953
31131.414043	1154.046500	1956.419922	52.856125
31131.414043	1154.046500	1955.447266	24.222172
31131.414043	1154.046500	1954.474609	167.624313
31131.414043	1154.046500	1953.501953	47.991531
31131.414043	1154.046500	1952.529297	127.397743
31131.414043	1154.046500	1951.556641	49.528111
31131.414043	1154.046500	1950.583984	-60.263367
31131.414043	1154.046500	1949.610352	-42.337994
31131.414043	1154.046500	1948.636719	51.675526
31131.414043	1154.046500	1947.663086	0.808196
31131.414043	1154.046500	1946.689453	87.388313
31131.414043	1154.046500	1945.715820	26.694778
31131.414043	1154.046500	1944.741211	142.659271
31131.414043	1154.046500	1943.767578	-48.042568
31131.414043	1154.046500	1942.792969	9.021804
31131.414043	1154.046500	1941.818359	-51.635658
31131.414043	1154.046500	1940.842773	-136.788162
31131.414043	1154.046500	1939.868164	15.849533
31131.414043	1154.046500	1938.892578	-47.225883
31131.414043	1154.046500	1937.916992	51.438202
31131.414043	1154.046500	1936.941406	5.535554
31131.414043	1154.046500	1935.965820	-116.272339
31131.414043	1154.046500	1934.990234	139.091949
31131.414043	1154.046500	1934.013672	-12.060740
31131.414043	1154.046500	1933.037109	-38.303547
31131.414043	1154.046500	1932.060547	94.558449
31131.414043	1154.046500	1931.083984	-29.553320
31131.414043	1154.046500	1930.107422	29.885530
31131.414043	1154.046500	1929.129883	-25.651804
31131.414043	1154.046500	1928.153320	-44.468925
31131.414043	1154.046500	1927.175781	63.885418
31131.414043	1154.046500	1926.198242	-25.807898
31131.414043	1154.046500	1925.219727	-47.011868
31131.414043	1154.046500	1924.242188	129.758148
31131.414043	1154.046500	1923.263672	98.794121
31131.414043	1154.046500	1922.285156	-49.398705
31131.414043	1154.046500	1921.306641	-14.334517
31131.414043	1154.046500	1920.328125	164.813293
31131.414043	1154.046500	1919.349609	24.072922
31131.414043	1154.046500	1918.370117	83.572983
31131.414043	1154.046500	1917.391602	50.327770
31131.414043	1154.046500	1916.412109	202.568192
31131.414043	1154.046500	1915.431641	27.850672
31131.414043	1154.046500	1914.452148	48.360153
31131.414043	1154.046500	1913.472656	190.823212
31131.414043	1154.046500	1912.492188	162.569473
31131.414043	1154.046500	1911.511719	-33.866760
31131.414043	1154.046500	1910.531250	-101.024536
31131.414043	1154.046500	1909.550781	-153.513748
31131.414043	1154.046500	1908.569336	-45.151802
31131.414043	1154.046500	1907.588867	-17.199131
31131.414043	1154.046500	1906.607422	-25.770494
31131.414043	1154.046500	1905.625977	97.180756
31131.414043	1154.046500	1904.644531	49.677380
31131.414043	1154.046500	1903.662109	-61.078075
31131.414043	1154.046500	1902.680664	22.931410
31131.414043	1154.046500	1901.698242	2.295726
31131.414043	1154.046500	1900.715820	59.539776
31131.414043	1154.046500	1899.733398	-34.029175
31131.414043	1154.046500	1898.750000	32.966194
31131.414043	1154.046500	1897.767578	151.017166
31131.414043	1154.046500	1896.784180	6.486630
31131.414043	1154.046500	1895.800781	20.017916
31131.414043	1154.046500	1894.817383	40.851265
31131.414043	1154.046500	1893.833984	-71.940109
31131.414043	1154.046500	1892.850586	-36.488556
31131.414043	1154.046500	1891.866211	-61.754711
31131.414043	1154.046500	1890.881836	48.990982
31131.414043	1154.046500	1889.897461	9.180537
31131.414043	1154.046500	1888.913086	112.617058
31131.414043	1154.046500	1887.927734	-123.748489
31131.414043	1154.046500	1886.943359	-136.772583
31131.414043	1154.046500	1885.958008	-18.772409
31131.414043	1154.046500	1884.972656	-31.788145
31131.414043	1154.046500	1883.987305	-18.111513
31131.414043	1154.046500	1883.001953	206.518982
31131.414043	1154.046500	1882.015625	91.679733
31131.414043	1154.046500	1881.029297	102.929115
31131.414043	1154.046500	1880.042969	58.445053
31131.414043	1154.046500	1879.056641	-92.622841
31131.414043	1154.046500	1878.070313	-40.143513
31131.414043	1154.046500	1877.083984	-16.742289
31131.414043	1154.046500	1876.096680	6.654774
31131.414043	1154.046500	1875.109375	-47.427799
31131.414043	1154.046500	1874.122070	-108.748665
31131.414043	1154.046500	1873.134766	38.089291
31131.414043	1154.046500	1872.146484	10.654586
31131.414043	1154.046500	1871.159180	36.453583
31131.414043	1154.046500	1870.170898	1.772127
31131.414043	1154.046500	1869.182617	199.264069
31131.414043	1154.046500	1868.194336	-11.945500
31131.414043	1154.046500	1867.205078	50.092754
31131.414043	1154.046500	1866.216797	-3.912685
31131.414043	1154.046500	1865.227539	176.501709
31131.414043	1154.046500	1864.238281	23.422377
31131.414043	1154.046500	1863.249023	-95.787827
31131.414043	1154.046500	1862.259766	-43.483345
31131.414043	1154.046500	1861.269531	-66.063538
31131.414043	1154.046500	1860.279297	85.182549
31131.414043	1154.046500	1859.290039	231.532822
31131.414043	1154.046500	1858.298828	100.280212
31131.414043	1154.046500	1857.308594	29.386253
31131.414043	1154.046500	1856.318359	115.315804
31131.414043	1154.046500	1855.327148	61.302219
31131.414043	1154.046500	1854.335938	57.935917
31131.414043	1154.046500	1853.344727	40.087528
31131.414043	1154.046500	1852.353516	109.011963
31131.414043	1154.046500	1851.362305	216.455353
31131.414043	1154.046500	1850.370117	-37.622452
31131.414043	1154.046500	1849.377930	-50.695927
31131.414043	1154.046500	1848.385742	15.705672
31131.414043	1154.046500	1847.393555	149.494980
31131.414043	1154.046500	1846.401367	-20.188799
31131.414043	1154.046500	1845.408203	99.064751
31131.414043	1154.046500	1844.415039	-32.081997
31131.414043	1154.046500	1843.421875	-81.382408
31131.414043	1154.046500	1842.428711	81.047348
31131.414043	1154.046500	1841.435547	192.869446
31131.414043	1154.046500	1840.441406	30.425821
31131.414043	1154.046500	1839.448242	-18.962856
31131.414043	1154.046500	1838.454102	56.660656
31131.414043	1154.046500	1837.459961	-64.892624
31131.414043	1154.046500	1836.464844	-13.387293
31131.414043	1154.046500	1835.470703	333.627930
31131.414043	1154.046500	1834.475586	-9.038840
31131.414043	1154.046500	1833.480469	-0.913373
31131.414043	1154.046500	1832.485352	136.858932
31131.414043	1154.046500	1831.490234	118.467644
31131.414043	1154.046500	1830.495117	208.076447
31131.414043	1154.046500	1829.499023	184.801407
31131.414043	1154.046500	1828.502930	79.902611
31131.414043	1154.046500	1827.506836	214.935867
31131.414043	1154.046500	1826.510742	97.994102
31131.414043	1154.046500	1825.513672	237.685913
31131.414043	1154.046500	1824.517578	221.413193
31131.414043	1154.046500	1823.520508	147.561890
31131.414043	1154.046500	1822.523438	140.811340
31131.414043	1154.046500	1821.526367	201.123184
31131.414043	1154.046500	1820.529297	297.308136
31131.414043	1154.046500	1819.531250	24.468756
31131.414043	1154.046500	1818.533203	149.298233
31131.414043	1154.046500	1817.535156	151.895935
31131.414043	1154.046500	1816.537109	132.893448
31131.414043	1154.046500	1815.539063	190.453110
31131.414043	1154.046500	1814.540039	173.741745
31131.414043	1154.046500	1813.541992	197.667206
31131.414043	1154.046500	1812.542969	144.967575
31131.414043	1154.046500	1811.543945	192.703186
31131.414043	1154.046500	1810.543945	106.432747
31131.414043	1154.046500	1809.544922	-80.288429
31131.414043	1154.046500	1808.544922	-8.795885
31131.414043	1154.046500	1807.544922	-76.023186
31131.414043	1154.046500	1806.544922	7.278063
31131.414043	1154.046500	1805.544922	147.835266
31131.414043	1154.046500	1804.544922	-17.502552
31131.414043	1154.046500	1803.543945	67.952881
31131.414043	1154.046500	1802.542969	100.779572
31131.414043	1154.046500	1801.541992	102.495499
31131.414043	1154.046500	1800.541016	51.633316
31131.414043	1154.046500	1799.539063	151.087677
31131.414043	1154.046500	1798.538086	123.974808
31131.414043	1154.046500	1797.536133	-158.470154
31131.414043	1154.046500	1796.534180	9.955240
31131.414043	1154.046500	1795.532227	197.332031
31131.414043	1154.046500	1794.529297	26.908632
31131.414043	1154.046500	1793.527344	102.036819
31131.414043	1154.046500	1792.524414	117.480965
31131.414043	1154.046500	1791.521484	4.167985
31131.414043	1154.046500	1790.518555	100.502251
31131.414043	1154.046500	1789.514648	196.731430
31131.414043	1154.046500	1788.511719	-104.886734
31131.414043	1154.046500	1787.507813	131.704529
31131.414043	1154.046500	1786.503906	199.100983
31131.414043	1154.046500	1785.500000	185.471695
31131.414043	1154.046500	1784.496094	207.477463
31131.414043	1154.046500	1783.491211	184.193283
31131.414043	1154.046500	1782.486328	179.880768
31131.414043	1154.046500	1781.481445	9.001015
31131.414043	1154.046500	1780.476563	83.061073
31131.414043	1154.046500	1779.471680	313.947357
31131.414043	1154.046500	1778.465820	199.978302
31131.414043	1154.046500	1777.460938	-113.662491
31131.414043	1154.046500	1776.455078	159.686920
31131.414043	1154.046500	1775.449219	81.235466
31131.414043	1154.046500	1774.442383	-70.898376
31131.414043	1154.046500	1773.436523	76.199600
31131.414043	1154.046500	1772.429688	213.667892
31131.414043	1154.046500	1771.422852	332.018982
31131.414043	1154.046500	1770.416016	203.398712
31131.414043	1154.046500	1769.409180	1.186816
31131.414043	1154.046500	1768.402344	195.218124
31131.414043	1154.046500	1767.394531	61.729370
31131.414043	1154.046500	1766.386719	39.691959
31131.414043	1154.046500	1765.378906	216.781082
31131.414043	1154.046500	1764.371094	66.546974
31131.414043	1154.046500	1763.362305	141.483459
31131.414043	1154.046500	1762.354492	171.292068
31131.414043	1154.046500	1761.345703	-26.464781
31131.414043	1154.046500	1760.336914	69.545631
31131.414043	1154.046500	1759.328125	-54.837341
31131.414043	1154.046500	1758.318359	-105.837914
31131.414043	1154.046500	1757.308594	-7.726623
31131.414043	1154.046500	1756.299805	97.379623
31131.414043	1154.046500	1755.290039	-48.517593
31131.414043	1154.046500	1754.279297	49.298866
31131.414043	1154.046500	1753.269531	151.740402
31131.414043	1154.046500	1752.258789	-53.449097
31131.414043	1154.046500	1751.249023	129.235336
31131.414043	1154.046500	1750.238281	16.198965
31131.414043	1154.046500	1749.226563	-68.504593
31131.414043	1154.046500	1748.215820	106.759972
31131.414043	1154.046500	1747.204102	-27.704508
31131.414043	1154.046500	1746.193359	-48.773167
31131.414043	1154.046500	1745.181641	123.797974
31131.414043	1154.046500	1744.168945	93.103149
31131.414043	1154.046500	1743.157227	-55.719639
31131.414043	1154.046500	1742.144531	-107.764175
31131.414043	1154.046500	1741.132813	-34.749088
31131.414043	1154.046500	1740.120117	49.960106
31131.414043	1154.046500	1739.106445	118.040695
31131.414043	1154.046500	1738.093750	-174.924713
31131.414043	1154.046500	1737.080078	25.116457
31131.414043	1154.046500	1736.067383	-112.218246
31131.414043	1154.046500	1735.053711	-152.907257
31131.414043	1154.046500	1734.040039	-151.219711
31131.414043	1154.046500	1733.025391	-50.619492
31131.414043	1154.046500	1732.011719	73.441711
31131.414043	1154.046500	1730.997070	27.745226
31131.414043	1154.046500	1729.982422	-13.293682
31131.414043	1154.046500	1728.967773	-162.722015
31131.414043	1154.046500	1727.952148	-210.918945
31131.414043	1154.046500	1726.937500	30.408667
31131.414043	1154.046500	1725.921875	-48.544842
31131.414043	1154.046500	1724.906250	136.035568
31131.414043	1154.046500	1723.890625	21.662056
31131.414043	1154.046500	1722.875000	-43.334873
31131.414043	1154.046500	1721.858398	-7.246832
31131.414043	1154.046500	1720.841797	-15.918627
31131.414043	1154.046500	1719.825195	97.601868
31131.414043	1154.046500	1718.808594	-139.230270
31131.414043	1154.046500	1717.791992	65.794922
31131.414043	1154.046500	1716.774414	-100.587074
31131.414043	1154.046500	1715.756836	-46.139172
31131.414043	1154.046500	1714.739258	-24.660162
31131.414043	1154.046500	1713.721680	-90.143166
31131.414043	1154.046500	1712.704102	-87.574936
31131.414043	1154.046500	1711.685547	62.812469
31131.414043	1154.046500	1710.667969	-52.126091
31131.414043	1154.046500	1709.649414	15.942563
31131.414043	1154.046500	1708.630859	74.538712
31131.414043	1154.046500	1707.611328	-3.004919
31131.414043	1154.046500	1706.592773	-19.595701
31131.414043	1154.046500	1705.573242	-26.868629
31131.414043	1154.046500	1704.553711	22.065493
31131.414043	1154.046500	1703.534180	38.108170
31131.414043	1154.046500	1702.513672	40.017681
31131.414043	1154.046500	1701.494141	67.649933
31131.414043	1154.046500	1700.473633	172.510071
31131.414043	1154.046500	1699.453125	64.144836
31131.414043	1154.046500	1698.432617	-53.600876
31131.414043	1154.046500	1697.412109	172.796066
31131.414043	1154.046500	1696.390625	-1.220253
31131.414043	1154.046500	1695.369141	35.401020
31131.414043	1154.046500	1694.347656	34.518013
31131.414043	1154.046500	1693.326172	-36.598061
31131.414043	1154.046500	1692.304688	-96.044136
31131.414043	1154.046500	1691.282227	-64.326050
31131.414043	1154.046500	1690.260742	72.549004
31131.414043	1154.046500	1689.238281	90.096916
31131.414043	1154.046500	1688.214844	67.849564
31131.414043	1154.046500	1687.192383	155.394745
31131.414043	1154.046500	1686.168945	20.908787
31131.414043	1154.046500	1685.146484	84.977226
31131.414043	1154.046500	1684.123047	62.559437
31131.414043	1154.046500	1683.099609	-4.257945
31131.414043	1154.046500	1682.075195	19.939842
31131.414043	1154.046500	1681.051758	13.751876
31131.414043	1154.046500	1680.027344	96.188499
31131.414043	1154.046500	1679.002930	99.226189
31131.414043	1154.046500	1677.978516	-86.722130
31131.414043	1154.046500	1676.953125	226.438797
31131.414043	1154.046500	1675.928711	168.702499
31131.414043	1154.046500	1674.903320	38.670784
31131.414043	1154.046500	1673.877930	85.793968
31131.414043	1154.046500	1672.852539	83.923470
31131.414043	1154.046500	1671.826172	156.566040
31131.414043	1154.046500	1670.800781	222.165756
31131.414043	1154.046500	1669.774414	168.913971
31131.414043	1154.046500	1668.748047	31.819775
31131.414043	1154.046500	1667.721680	234.653564
31131.414043	1154.046500	1666.694336	202.270126
31131.414043	1154.046500	1665.667969	279.257355
31131.414043	1154.046500	1664.640625	232.855240
31131.414043	1154.046500	1663.613281	326.021240
31131.414043	1154.046500	1662.585938	240.027710
31131.414043	1154.046500	1661.557617	298.207886
31131.414043	1154.046500	1660.530273	381.922363
31131.414043	1154.046500	1659.501953	340.042725
31131.414043	1154.046500	1658.473633	456.192657
31131.414043	1154.046500	1657.444336	446.785309
31131.414043	1154.046500	1656.416016	383.934448
31131.414043	1154.046500	1655.386719	409.339630
31131.414043	1154.046500	1654.358398	378.987701
31131.414043	1154.046500	1653.328125	404.330261
31131.414043	1154.046500	1652.298828	420.367737
31131.414043	1154.046500	1651.269531	436.378510
31131.414043	1154.046500	1650.239258	501.086273
31131.414043	1154.046500	1649.208984	459.027954
31131.414043	1154.046500	1648.178711	472.639984
31131.414043	1154.046500	1647.148438	407.380371
31131.414043	1154.046500	1646.117188	692.245178
31131.414043	1154.046500	1645.086914	358.020294
31131.414043	1154.046500	1644.055664	758.648254
31131.414043	1154.046500	1643.024414	519.516602
31131.414043	1154.046500	1641.992188	676.648743
31131.414043	1154.046500	1640.960938	606.705750
31131.414043	1154.046500	1639.928711	495.083038
31131.414043	1154.046500	1638.896484	529.374390
31131.414043	1154.046500	1637.864258	672.455627
31131.414043	1154.046500	1636.832031	644.190063
31131.414043	1154.046500	1635.798828	727.001465
31131.414043	1154.046500	1634.766602	897.709045
31131.414043	1154.046500	1633.733398	633.432983
31131.414043	1154.046500	1632.699219	785.562866
31131.414043	1154.046500	1631.666016	764.209900
31131.414043	1154.046500	1630.632813	853.838928
31131.414043	1154.046500	1629.598633	1042.819092
31131.414043	1154.046500	1628.564453	787.998901
31131.414043	1154.046500	1627.530273	979.230896
31131.414043	1154.046500	1626.495117	913.952515
31131.414043	1154.046500	1625.460938	871.808228
31131.414043	1154.046500	1624.425781	954.377136
31131.414043	1154.046500	1623.390625	815.271484
31131.414043	1154.046500	1622.355469	941.690430
31131.414043	1154.046500	1621.319336	1104.983521
31131.414043	1154.046500	1620.284180	1035.176147
31131.414043	1154.046500	1619.248047	1115.352173
31131.414043	1154.046500	1618.211914	1209.345581
31131.414043	1154.046500	1617.174805	1162.630127
31131.414043	1154.046500	1616.138672	1328.077393
31131.414043	1154.046500	1615.101563	1173.035400
31131.414043	1154.046500	1614.065430	1414.500732
31131.414043	1154.046500	1613.027344	1314.825562
31131.414043	1154.046500	1611.990234	1371.878296
31131.414043	1154.046500	1610.953125	1392.069214
31131.414043	1154.046500	1609.915039	1548.137817
31131.414043	1154.046500	1608.876953	1561.406006
31131.414043	1154.046500	1607.838867	1763.459717
31131.414043	1154.046500	1606.800781	1553.458984
31131.414043	1154.046500	1605.761719	1792.286865
31131.414043	1154.046500	1604.723633	1966.630981
31131.414043	1154.046500	1603.684570	1731.466797
31131.414043	1154.046500	1602.644531	1737.892822
31131.414043	1154.046500	1601.605469	1912.207764
31131.414043	1154.046500	1600.566406	1778.419067
31131.414043	1154.046500	1599.526367	1658.490723
31131.414043	1154.046500	1598.486328	1789.124512
31131.414043	1154.046500	1597.446289	1832.426636
31131.414043	1154.046500	1596.405273	1675.878174
31131.414043	1154.046500	1595.365234	1753.695435
31131.414043	1154.046500	1594.324219	1604.172729
31131.414043	1154.046500	1593.283203	1741.717285
31131.414043	1154.046500	1592.242188	1537.230469
31131.414043	1154.046500	1591.200195	1624.303711
31131.414043	1154.046500	1590.159180	1610.428467
31131.414043	1154.046500	1589.117188	1715.873901
31131.414043	1154.046500	1588.075195	1731.864502
31131.414043	1154.046500	1587.032227	1575.892456
31131.414043	1154.046500	1585.990234	1901.490723
31131.414043	1154.046500	1584.947266	1812.096680
31131.414043	1154.046500	1583.904297	1566.936646
31131.414043	1154.046500	1582.861328	1489.179688
31131.414043	1154.046500	1581.818359	1452.729614
31131.414043	1154.046500	1580.775391	1372.816772
31131.414043	1154.046500	1579.731445	1455.559570
31131.414043	1154.046500	1578.687500	1295.621460
31131.414043	1154.046500	1577.643555	1273.136230
31131.414043	1154.046500	1576.598633	1177.458496
31131.414043	1154.046500	1575.554688	1226.029541
31131.414043	1154.046500	1574.509766	1196.836426
31131.414043	1154.046500	1573.464844	1250.045654
31131.414043	1154.046500	1572.419922	1239.249512
31131.414043	1154.046500	1571.374023	931.265991
31131.414043	1154.046500	1570.329102	961.782959
31131.414043	1154.046500	1569.283203	1040.324951
31131.414043	1154.046500	1568.237305	897.237854
31131.414043	1154.046500	1567.191406	836.503662
31131.414043	1154.046500	1566.144531	928.877991
31131.414043	1154.046500	1565.098633	756.366577
31131.414043	1154.046500	1564.051758	871.660522
31131.414043	1154.046500	1563.004883	907.065247
31131.414043	1154.046500	1561.957031	864.904785
31131.414043	1154.046500	1560.910156	895.844666
31131.414043	1154.046500	1559.862305	942.793091
31131.414043	1154.046500	1558.814453	761.679321
31131.414043	1154.046500	1557.766602	1125.751953
31131.414043	1154.046500	1556.718750	1072.477661
31131.414043	1154.046500	1555.669922	880.216858
31131.414043	1154.046500	1554.621094	950.203186
31131.414043	1154.046500	1553.573242	926.800903
31131.414043	1154.046500	1552.523438	1072.051514
31131.414043	1154.046500	1551.474609	943.969543
31131.414043	1154.046500	1550.424805	929.865479
31131.414043	1154.046500	1549.375000	1057.003906
31131.414043	1154.046500	1548.325195	976.991943
31131.414043	1154.046500	1547.275391	865.211914
31131.414043	1154.046500	1546.225586	965.176208
31131.414043	1154.046500	1545.174805	965.052490
31131.414043	1154.046500	1544.124023	1103.755371
31131.414043	1154.046500	1543.073242	1003.670105
31131.414043	1154.046500	1542.022461	867.309998
31131.414043	1154.046500	1540.970703	822.003174
31131.414043	1154.046500	1539.919922	799.519897
31131.414043	1154.046500	1538.868164	1002.086182
31131.414043	1154.046500	1537.815430	775.219421
31131.414043	1154.046500	1536.763672	700.716675
31131.414043	1154.046500	1535.710938	671.732178
31131.414043	1154.046500	1534.659180	767.726868
31131.414043	1154.046500	1533.606445	761.588623
31131.414043	1154.046500	1532.552734	821.345398
31131.414043	1154.046500	1531.500000	695.069031
31131.414043	1154.046500	1530.446289	616.559937
31131.414043	1154.046500	1529.393555	560.846558
31131.414043	1154.046500	1528.338867	478.003357
31131.414043	1154.046500	1527.285156	519.990967
31131.414043	1154.046500	1526.231445	482.688965
31131.414043	1154.046500	1525.176758	438.672516
31131.414043	1154.046500	1524.122070	514.862549
31131.414043	1154.046500	1523.067383	312.407928
31131.414043	1154.046500	1522.012695	486.158630
31131.414043	1154.046500	1520.957031	204.670563
31131.414043	1154.046500	1519.901367	238.130951
31131.414043	1154.046500	1518.845703	196.946411
31131.414043	1154.046500	1517.790039	185.284286
31131.414043	1154.046500	1516.734375	182.759186
31131.414043	1154.046500	1515.677734	365.849243
31131.414043	1154.046500	1514.621094	168.897476
31131.414043	1154.046500	1513.564453	-118.363342
31131.414043	1154.046500	1512.507813	132.761429
31131.414043	1154.046500	1511.450195	164.561707
31131.414043	1154.046500	1510.393555	268.770203
31131.414043	1154.046500	1509.335938	43.062183
31131.414043	1154.046500	1508.278320	63.814362
31131.414043	1154.046500	1507.219727	21.383335
31131.414043	1154.046500	1506.162109	-14.165846
31131.414043	1154.046500	1505.103516	216.843674
31131.414043	1154.046500	1504.044922	346.249176
31131.414043	1154.046500	1502.986328	103.238426
31131.414043	1154.046500	1501.926758	205.700592
31131.414043	1154.046500	1500.868164	172.827805
31131.414043	1154.046500	1499.808594	462.650238
31131.414043	1154.046500	1498.749023	55.498867
31131.414043	1154.046500	1497.688477	61.264145
31131.414043	1154.046500	1496.628906	-29.829271
31131.414043	1154.046500	1495.568359	334.533569
31131.414043	1154.046500	1494.507813	315.710632
31131.414043	1154.046500	1493.447266	202.347610
31131.414043	1154.046500	1492.386719	149.942688
31131.414043	1154.046500	1491.325195	79.625046
31131.414043	1154.046500	1490.263672	85.988640
31131.414043	1154.046500	1489.202148	121.707420
31131.414043	1154.046500	1488.140625	13.435801
31131.414043	1154.046500	1487.079102	-276.997955
31131.414043	1154.046500	1486.016602	128.054230
31131.414043	1154.046500	1484.954102	11.112607
31131.414043	1154.046500	1483.891602	-15.725071
31131.414043	1154.046500	1482.829102	16.007093
31131.414043	1154.046500	1481.765625	32.075676
31131.414043	1154.046500	1480.702148	-131.601990
31131.414043	1154.046500	1479.638672	-158.026840
31131.414043	1154.046500	1478.575195	-27.070894
31131.414043	1154.046500	1477.511719	-64.553436
31131.414043	1154.046500	1476.447266	41.799324
31131.414043	1154.046500	1475.382813	35.896431
31131.414043	1154.046500	1474.318359	36.905865
31131.414043	1154.046500	1473.253906	134.507324
31131.414043	1154.046500	1472.189453	61.620739
31131.414043	1154.046500	1471.124023	-22.364500
31131.414043	1154.046500	1470.058594	393.850830
31131.414043	1154.046500	1468.993164	574.409241
31131.414043	1154.046500	1467.927734	268.874268
31131.414043	1154.046500	1466.861328	366.814240
31131.414043	1154.046500	1465.794922	346.258514
31131.414043	1154.046500	1464.728516	421.558563
31131.414043	1154.046500	1463.662109	327.112793
31131.414043	1154.046500	1462.594727	517.320007
31131.414043	1154.046500	1461.528320	380.398987
31131.414043	1154.046500	1460.460938	494.238373
31131.414043	1154.046500	1459.393555	425.064148
31131.414043	1154.046500	1458.326172	353.628174
31131.414043	1154.046500	1457.257813	476.199768
31131.414043	1154.046500	1456.189453	272.955811
31131.414043	1154.046500	1455.121094	424.936249
31131.414043	1154.046500	1454.052734	295.677032
31131.414043	1154.046500	1452.984375	421.266907
31131.414043	1154.046500	1451.915039	512.941406
31131.414043	1154.046500	1450.845703	510.405212
31131.414043	1154.046500	1449.776367	565.880920
31131.414043	1154.046500	1448.707031	436.936615
31131.414043	1154.046500	1447.636719	763.155823
31131.414043	1154.046500	1446.567383	605.764709
31131.414043	1154.046500	1445.497070	603.293640
31131.414043	1154.046500	1444.425781	504.521088
31131.414043	1154.046500	1443.355469	603.121826
31131.414043	1154.046500	1442.285156	735.312317
31131.414043	1154.046500	1441.213867	955.372681
31131.414043	1154.046500	1440.142578	1044.392578
31131.414043	1154.046500	1439.070313	876.833984
31131.414043	1154.046500	1437.999023	871.961731
31131.414043	1154.046500	1436.926758	733.579956
31131.414043	1154.046500	1435.854492	853.930298
31131.414043	1154.046500	1434.782227	991.309387
31131.414043	1154.046500	1433.709961	675.122131
31131.414043	1154.046500	1432.636719	702.979431
31131.414043	1154.046500	1431.563477	678.861816
31131.414043	1154.046500	1430.490234	698.775818
31131.414043	1154.046500	1429.416992	655.097107
31131.414043	1154.046500	1428.343750	824.631958
31131.414043	1154.046500	1427.269531	706.281677
31131.414043	1154.046500	1426.195313	649.343689
31131.414043	1154.046500	1425.121094	601.566772
31131.414043	1154.046500	1424.046875	478.819641
31131.414043	1154.046500	1422.971680	495.540009
31131.414043	1154.046500	1421.896484	510.009338
31131.414043	1154.046500	1420.821289	738.409912
31131.414043	1154.046500	1419.746094	612.020691
31131.414043	1154.046500	1418.669922	637.433899
31131.414043	1154.046500	1417.594727	852.019592
31131.414043	1154.046500	1416.518555	720.177612
31131.414043	1154.046500	1415.442383	747.470215
31131.414043	1154.046500	1414.365234	749.225220
31131.414043	1154.046500	1413.289063	771.964539
31131.414043	1154.046500	1412.211914	607.835571
31131.414043	1154.046500	1411.134766	491.097473
31131.414043	1154.046500	1410.057617	579.555542
31131.414043	1154.046500	1408.979492	587.768433
31131.414043	1154.046500	1407.902344	645.116516
31131.414043	1154.046500	1406.824219	720.291992
31131.414043	1154.046500	1405.746094	560.907104
31131.414043	1154.046500	1404.666992	513.969055
31131.414043	1154.046500	1403.588867	510.064728
31131.414043	1154.046500	1402.509766	744.751953
31131.414043	1154.046500	1401.430664	668.564636
31131.414043	1154.046500	1400.351563	849.556030
31131.414043	1154.046500	1399.271484	958.485535
31131.414043	1154.046500	1398.192383	819.268433
31131.414043	1154.046500	1397.112305	801.300232
31131.414043	1154.046500	1396.031250	914.912598
31131.414043	1154.046500	1394.951172	768.876770
31131.414043	1154.046500	1393.871094	895.858643
31131.414043	1154.046500	1392.790039	701.453979
31131.414043	1154.046500	1391.708984	928.041687
31131.414043	1154.046500	1390.626953	767.609314
31131.414043	1154.046500	1389.545898	820.618713
31131.414043	1154.046500	1388.463867	992.159851
31131.414043	1154.046500	1387.381836	899.660156
31131.414043	1154.046500	1386.299805	1034.987183
31131.414043	1154.046500	1385.217773	829.496948
31131.414043	1154.046500	1384.134766	1091.146973
31131.414043	1154.046500	1383.051758	1219.331177
31131.414043	1154.046500	1381.968750	1078.096069
31131.414043	1154.046500	1380.885742	1113.592285
31131.414043	1154.046500	1379.802734	1259.385742
31131.414043	1154.046500	1378.718750	1264.295532
31131.414043	1154.046500	1377.634766	1198.789795
31131.414043	1154.046500	1376.550781	1082.897949
31131.414043	1154.046500	1375.465820	1029.465820
31131.414043	1154.046500	1374.381836	990.817871
31131.414043	1154.046500	1373.296875	896.321045
31131.414043	1154.046500	1372.211914	658.353882
31131.414043	1154.046500	1371.126953	730.301697
31131.414043	1154.046500	1370.041016	617.936157
31131.414043	1154.046500	1368.955078	593.067444
31131.414043	1154.046500	1367.869141	821.886353
31131.414043	1154.046500	1366.783203	684.218506
31131.414043	1154.046500	1365.697266	668.466492
31131.414043	1154.046500	1364.610352	613.624207
31131.414043	1154.046500	1363.523438	561.522827
31131.414043	1154.046500	1362.436523	423.699860
31131.414043	1154.046500	1361.349609	727.640076
31131.414043	1154.046500	1360.261719	558.247498
31131.414043	1154.046500	1359.174805	613.372375
31131.414043	1154.046500	1358.086914	728.999268
31131.414043	1154.046500	1356.998047	521.595520
31131.414043	1154.046500	1355.910156	511.694489
31131.414043	1154.046500	1354.821289	595.001892
31131.414043	1154.046500	1353.732422	543.639465
31131.414043	1154.046500	1352.643555	538.581299
31131.414043	1154.046500	1351.554688	712.406738
31131.414043	1154.046500	1350.464844	785.896301
31131.414043	1154.046500	1349.375000	529.835693
31131.414043	1154.046500	1348.285156	481.809235
31131.414043	1154.046500	1347.195313	502.775208
31131.414043	1154.046500	1346.105469	577.934204
31131.414043	1154.046500	1345.014648	479.698669
31131.414043	1154.046500	1343.923828	455.138306
31131.414043	1154.046500	1342.833008	442.445831
31131.414043	1154.046500	1341.741211	630.305298
31131.414043	1154.046500	1340.650391	669.582947
31131.414043	1154.046500	1339.558594	519.015808
31131.414043	1154.046500	1338.466797	545.577637
31131.414043	1154.046500	1337.374023	590.741821
31131.414043	1154.046500	1336.282227	554.669006
31131.414043	1154.046500	1335.189453	420.577179
31131.414043	1154.046500	1334.096680	497.600006
31131.414043	1154.046500	1333.003906	547.437012
31131.414043	1154.046500	1331.910156	450.039276
31131.414043	1154.046500	1330.817383	460.388428
31131.414043	1154.046500	1329.723633	420.371704
31131.414043	1154.046500	1328.629883	364.584534
31131.414043	1154.046500	1327.535156	382.639221
31131.414043	1154.046500	1326.441406	280.607971
31131.414043	1154.046500	1325.346680	379.058929
31131.414043	1154.046500	1324.251953	537.278809
31131.414043	1154.046500	1323.156250	337.528503
31131.414043	1154.046500	1322.061523	452.681671
31131.414043	1154.046500	1320.965820	585.308655
31131.414043	1154.046500	1319.870117	317.046692
31131.414043	1154.046500	1318.774414	281.500488
31131.414043	1154.046500	1317.678711	285.890137
31131.414043	1154.046500	1316.582031	354.952240
31131.414043	1154.046500	1315.485352	323.477234
31131.414043	1154.046500	1314.388672	501.848145
31131.414043	1154.046500	1313.291016	385.792999
31131.414043	1154.046500	1312.194336	275.834351
31131.414043	1154.046500	1311.096680	159.353592
31131.414043	1154.046500	1309.999023	253.563797
31131.414043	1154.046500	1308.901367	239.863739
31131.414043	1154.046500	1307.802734	371.885773
31131.414043	1154.046500	1306.705078	427.301605
31131.414043	1154.046500	1305.606445	341.050568
31131.414043	1154.046500	1304.506836	311.530487
31131.414043	1154.046500	1303.408203	228.722504
31131.414043	1154.046500	1302.308594	275.595337
31131.414043	1154.046500	1301.208984	330.951721
31131.414043	1154.046500	1300.109375	488.037109
31131.414043	1154.046500	1299.009766	392.390839
31131.414043	1154.046500	1297.909180	442.542969
31131.414043	1154.046500	1296.808594	487.758057
31131.414043	1154.046500	1295.708008	613.595032
31131.414043	1154.046500	1294.607422	492.049347
31131.414043	1154.046500	1293.506836	421.213043
31131.414043	1154.046500	1292.405273	488.103638
31131.414043	1154.046500	1291.303711	399.962128
31131.414043	1154.046500	1290.202148	404.671692
31131.414043	1154.046500	1289.099609	414.109131
31131.414043	1154.046500	1287.998047	416.254211
31131.414043	1154.046500	1286.895508	427.073181
31131.414043	1154.046500	1285.792969	255.236725
31131.414043	1154.046500	1284.689453	371.885437
31131.414043	1154.046500	1283.586914	168.255737
31131.414043	1154.046500	1282.483398	256.515228
31131.414043	1154.046500	1281.379883	286.845276
31131.414043	1154.046500	1280.276367	372.785278
31131.414043	1154.046500	1279.171875	206.108688
31131.414043	1154.046500	1278.067383	142.192184
31131.414043	1154.046500	1276.962891	148.816360
31131.414043	1154.046500	1275.858398	142.989426
31131.414043	1154.046500	1274.753906	73.663841
31131.414043	1154.046500	1273.648438	314.604340
31131.414043	1154.046500	1272.542969	175.695358
31131.414043	1154.046500	1271.437500	137.836685
31131.414043	1154.046500	1270.331055	52.052814
31131.414043	1154.046500	1269.225586	55.346638
31131.414043	1154.046500	1268.119141	214.924988
31131.414043	1154.046500	1267.012695	118.968201
31131.414043	1154.046500	1265.906250	63.261826
31131.414043	1154.046500	1264.798828	68.423141
31131.414043	1154.046500	1263.691406	-47.806950
31131.414043	1154.046500	1262.583984	17.349274
31131.414043	1154.046500	1261.476563	22.686146
31131.414043	1154.046500	1260.368164	40.235031
31131.414043	1154.046500	1259.260742	67.918755
31131.414043	1154.046500	1258.152344	11.289890
31131.414043	1154.046500	1257.043945	-15.916510
31131.414043	1154.046500	1255.934570	54.847530
31131.414043	1154.046500	1254.825195	100.432297
31131.414043	1154.046500	1253.716797	185.220337
31131.414043	1154.046500	1252.606445	7.104745
31131.414043	1154.046500	1251.497070	154.972549
31131.414043	1154.046500	1250.387695	57.705719
31131.414043	1154.046500	1249.277344	48.601246
31131.414043	1154.046500	1248.166992	126.742867
31131.414043	1154.046500	1247.055664	9.884591
31131.414043	1154.046500	1245.945313	118.827309
31131.414043	1154.046500	1244.833984	102.266113
31131.414043	1154.046500	1243.722656	153.421494
31131.414043	1154.046500	1242.611328	86.790009
31131.414043	1154.046500	1241.499023	52.410797
31131.414043	1154.046500	1240.387695	179.866089
31131.414043	1154.046500	1239.275391	231.495453
31131.414043	1154.046500	1238.162109	181.828613
31131.414043	1154.046500	1237.049805	123.984016
31131.414043	1154.046500	1235.936523	4.182024
31131.414043	1154.046500	1234.823242	92.835625
31131.414043	1154.046500	1233.709961	5.933581
31131.414043	1154.046500	1232.596680	131.260559
31131.414043	1154.046500	1231.482422	-27.934406
31131.414043	1154.046500	1230.369141	93.884293
31131.414043	1154.046500	1229.253906	31.630255
31131.414043	1154.046500	1228.139648	122.245369
31131.414043	1154.046500	1227.025391	-23.237133
31131.414043	1154.046500	1225.910156	5.338969
31131.414043	1154.046500	1224.794922	-12.711336
31131.414043	1154.046500	1223.679688	-12.865554
31131.414043	1154.046500	1222.563477	-32.066128
31131.414043	1154.046500	1221.447266	128.379913
31131.414043	1154.046500	1220.331055	19.541475
31131.414043	1154.046500	1219.214844	-52.718609
31131.414043	1154.046500	1218.098633	117.009872
31131.414043	1154.046500	1216.981445	163.866440
31131.414043	1154.046500	1215.864258	232.704346
31131.414043	1154.046500	1214.747070	162.012909
31131.414043	1154.046500	1213.629883	261.920624
31131.414043	1154.046500	1212.511719	267.034729
31131.414043	1154.046500	1211.393555	272.405334
31131.414043	1154.046500	1210.275391	259.945099
31131.414043	1154.046500	1209.157227	228.784058
31131.414043	1154.046500	1208.038086	343.340363
31131.414043	1154.046500	1206.918945	278.807343
31131.414043	1154.046500	1205.799805	198.179214
31131.414043	1154.046500	1204.680664	227.847687
31131.414043	1154.046500	1203.560547	322.346130
31131.414043	1154.046500	1202.441406	409.916748
31131.414043	1154.046500	1201.321289	200.834671
31131.414043	1154.046500	1200.200195	279.715637
31131.414043	1154.046500	1199.080078	177.877686
31131.414043	1154.046500	1197.958984	180.761841
31131.414043	1154.046500	1196.837891	131.188538
31131.414043	1154.046500	1195.716797	113.141357
31131.414043	1154.046500	1194.594727	99.420120
31131.414043	1154.046500	1193.473633	67.635574
31131.414043	1154.046500	1192.351563	13.197768
31131.414043	1154.046500	1191.229492	-144.638123
31131.414043	1154.046500	1190.106445	-17.915119
31131.414043	1154.046500	1188.984375	-57.080345
31131.414043	1154.046500	1187.861328	-62.012535
31131.414043	1154.046500	1186.738281	-142.850906
31131.414043	1154.046500	1185.614258	-169.588760
31131.414043	1154.046500	1184.491211	-147.443985
31131.414043	1154.046500	1183.367188	-137.025970
31131.414043	1154.046500	1182.243164	-137.246780
31131.414043	1154.046500	1181.119141	-163.248734
31131.414043	1154.046500	1179.994141	-101.046776
31131.414043	1154.046500	1178.869141	-75.214447
31131.414043	1154.046500	1177.744141	-115.211472
31131.414043	1154.046500	1176.619141	-271.267120
31131.414043	1154.046500	1175.493164	-184.032608
31131.414043	1154.046500	1174.368164	-173.791687
31131.414043	1154.046500	1173.242188	-147.557037
31131.414043	1154.046500	1172.115234	-121.307976
31131.414043	1154.046500	1170.989258	-137.526291
31131.414043	1154.046500	1169.862305	8.429934
31131.414043	1154.046500	1168.735352	-91.725433
31131.414043	1154.046500	1167.608398	42.036209
31131.414043	1154.046500	1166.481445	16.887505
31131.414043	1154.046500	1165.353516	144.143799
31131.414043	1154.046500	1164.225586	68.751991
31131.414043	1154.046500	1163.097656	102.631340
31131.414043	1154.046500	1161.968750	2.453539
31131.414043	1154.046500	1160.840820	85.988869
31131.414043	1154.046500	1159.711914	129.005219
31131.414043	1154.046500	1158.583008	2.680150
31131.414043	1154.046500	1157.453125	-51.366505
31131.414043	1154.046500	1156.324219	-33.117611
31131.414043	1154.046500	1155.194336	-77.785980
31131.414043	1154.046500	1154.064453	105.023865
31131.414043	1154.046500	1152.933594	-144.721176
31131.414043	1154.046500	1151.803711	-185.687790
31131.414043	1154.046500	1150.672852	-18.579721
31131.414043	1154.046500	1149.541992	42.086521
31131.414043	1154.046500	1148.411133	115.331825
31131.414043	1154.046500	1147.279297	17.437885
31131.414043	1154.046500	1146.147461	-7.328456
31131.414043	1154.046500	1145.015625	63.564915
31131.414043	1154.046500	1143.883789	50.790268
31131.414043	1154.046500	1142.750977	167.902130
31131.414043	1154.046500	1141.619141	82.255486
31131.414043	1154.046500	1140.486328	-73.925789
31131.414043	1154.046500	1139.352539	-69.988548
31131.414043	1154.046500	1138.219727	47.742210
31131.414043	1154.046500	1137.085938	-21.365763
31131.414043	1154.046500	1135.952148	77.397095
31131.414043	1154.046500	1134.818359	7.400837
31131.414043	1154.046500	1133.683594	71.254463
31131.414043	1154.046500	1132.549805	161.651398
31131.414043	1154.046500	1131.415039	295.249115
31131.414043	1154.046500	1130.279297	312.544556
31131.414043	1154.046500	1129.144531	533.126831
31131.414043	1154.046500	1128.008789	432.192871
31131.414043	1154.046500	1126.873047	433.559875
31131.414043	1154.046500	1125.737305	494.220062
31131.414043	1154.046500	1124.601563	431.197784
31131.414043	1154.046500	1123.464844	329.928467
31131.414043	1154.046500	1122.328125	277.570831
31131.414043	1154.046500	1121.191406	228.643448
31131.414043	1154.046500	1120.054688	408.497894
31131.414043	1154.046500	1118.916992	306.413635
31131.414043	1154.046500	1117.779297	207.031540
31131.414043	1154.046500	1116.641602	150.012772
31131.414043	1154.046500	1115.503906	161.933975
31131.414043	1154.046500	1114.365234	81.341148
31131.414043	1154.046500	1113.226563	178.419724
31131.414043	1154.046500	1112.087891	260.985657
31131.414043	1154.046500	1110.949219	157.744553
31131.414043	1154.046500	1109.809570	22.855537
31131.414043	1154.046500	1108.669922	20.355776
31131.414043	1154.046500	1107.530273	114.182320
31131.414043	1154.046500	1106.390625	77.043724
31131.414043	1154.046500	1105.250000	124.359749
31131.414043	1154.046500	1104.109375	272.017792
31131.414043	1154.046500	1102.968750	124.991089
31131.414043	1154.046500	1101.828125	78.626831
31131.414043	1154.046500	1100.686523	316.484344
31131.414043	1154.046500	1099.544922	207.366714
31131.414043	1154.046500	1098.403320	204.904846
31131.414043	1154.046500	1097.261719	102.801003
31131.414043	1154.046500	1096.120117	52.473701
31131.414043	1154.046500	1094.977539	149.816574
31131.414043	1154.046500	1093.834961	226.625092
31131.414043	1154.046500	1092.691406	83.919250
31131.414043	1154.046500	1091.548828	95.287689
31131.414043	1154.046500	1090.405273	-28.671064
31131.414043	1154.046500	1089.261719	284.567596
31131.414043	1154.046500	1088.118164	104.929062
31131.414043	1154.046500	1086.973633	47.321404
31131.414043	1154.046500	1085.829102	67.693657
31131.414043	1154.046500	1084.684570	162.492722
31131.414043	1154.046500	1083.540039	182.638641
31131.414043	1154.046500	1082.395508	138.878601
31131.414043	1154.046500	1081.250000	100.247475
31131.414043	1154.046500	1080.104492	61.054832
31131.414043	1154.046500	1078.958984	122.937531
31131.414043	1154.046500	1077.812500	169.782394
31131.414043	1154.046500	1076.666016	95.222832
31131.414043	1154.046500	1075.519531	52.712593
31131.414043	1154.046500	1074.373047	120.950562
31131.414043	1154.046500	1073.226563	96.292847
31131.414043	1154.046500	1072.079102	80.137360
31131.414043	1154.046500	1070.931641	-93.363274
31131.414043	1154.046500	1069.784180	98.021576
31131.414043	1154.046500	1068.635742	92.446083
31131.414043	1154.046500	1067.487305	128.382797
31131.414043	1154.046500	1066.338867	141.047699
31131.414043	1154.046500	1065.190430	258.662140
31131.414043	1154.046500	1064.041992	235.708755
31131.414043	1154.046500	1062.892578	428.075439
31131.414043	1154.046500	1061.743164	251.054703
31131.414043	1154.046500	1060.593750	393.459290
31131.414043	1154.046500	1059.443359	415.247772
31131.414043	1154.046500	1058.292969	185.310989
31131.414043	1154.046500	1057.142578	148.073914
31131.414043	1154.046500	1055.992188	19.903412
31131.414043	1154.046500	1054.841797	150.706436
31131.414043	1154.046500	1053.690430	185.039612
31131.414043	1154.046500	1052.539063	152.214325
31131.414043	1154.046500	1051.387695	228.579849
31131.414043	1154.046500	1050.235352	139.356369
31131.414043	1154.046500	1049.083984	132.401001
31131.414043	1154.046500	1047.931641	35.439484
31131.414043	1154.046500	1046.778320	162.885010
31131.414043	1154.046500	1045.625977	207.816574
31131.414043	1154.046500	1044.472656	103.135025
31131.414043	1154.046500	1043.319336	3.716896
31131.414043	1154.046500	1042.166016	50.838768
31131.414043	1154.046500	1041.012695	17.221067
31131.414043	1154.046500	1039.858398	149.654007
31131.414043	1154.046500	1038.704102	87.337975
31131.414043	1154.046500	1037.549805	-74.766861
31131.414043	1154.046500	1036.394531	77.384537
31131.414043	1154.046500	1035.239258	71.290474
31131.414043	1154.046500	1034.083984	23.896986
31131.414043	1154.046500	1032.928711	177.889343
31131.414043	1154.046500	1031.773438	43.961121
31131.414043	1154.046500	1030.617188	-12.145026
31131.414043	1154.046500	1029.460938	174.330597
31131.414043	1154.046500	1028.304688	89.876976
31131.414043	1154.046500	1027.147461	181.608765
31131.414043	1154.046500	1025.991211	111.094666
31131.414043	1154.046500	1024.833984	-5.405984
31131.414043	1154.046500	1023.675781	61.699242
31131.414043	1154.046500	1022.518555	-59.890419
31131.414043	1154.046500	1021.360352	106.500717
31131.414043	1154.046500	1020.202148	40.561249
31131.414043	1154.046500	1019.043945	-29.081629
31131.414043	1154.046500	1017.884766	37.295910
31131.414043	1154.046500	1016.726563	76.440216
31131.414043	1154.046500	1015.567383	101.730843
31131.414043	1154.046500	1014.407227	21.652803
31131.414043	1154.046500	1013.248047	115.012657
31131.414043	1154.046500	1012.087891	175.019394
31131.414043	1154.046500	1010.927734	-89.111809
31131.414043	1154.046500	1009.767578	91.530403
31131.414043	1154.046500	1008.606445	23.718021
31131.414043	1154.046500	1007.446289	102.492699
31131.414043	1154.046500	1006.285156	242.573456
31131.414043	1154.046500	1005.123047	-5.412608
31131.414043	1154.046500	1003.961914	-112.511093
31131.414043	1154.046500	1002.799805	-29.390823
31131.414043	1154.046500	1001.637695	-49.973644
31131.414043	1154.046500	1000.475586	65.033150
31131.414043	1154.046500	999.312500	-32.370605
31131.414043	1154.046500	998.149414	22.578362
31131.414043	1154.046500	996.986328	-26.354588
31131.414043	1154.046500	995.823242	41.566124
31131.414043	1154.046500	994.659180	42.072681
31131.414043	1154.046500	993.496094	-19.603319
31131.414043	1154.046500	992.332031	-212.611526
31131.414043	1154.046500	991.166992	-39.603630
31131.414043	1154.046500	990.002930	-65.405045
31131.414043	1154.046500	988.837891	-74.727058
31131.414043	1154.046500	987.672852	-40.197350
31131.414043	1154.046500	986.506836	-162.663467
31131.414043	1154.046500	985.341797	-17.510239
31131.414043	1154.046500	984.175781	6.037699
31131.414043	1154.046500	983.009766	-35.872353
31131.414043	1154.046500	981.843750	4.872127
31131.414043	1154.046500	980.676758	-18.672213
31131.414043	1154.046500	979.509766	-60.809189
31131.414043	1154.046500	978.342773	182.421371
31131.414043	1154.046500	977.175781	19.762836
31131.414043	1154.046500	976.007813	26.239075
31131.414043	1154.046500	974.839844	-26.012264
31131.414043	1154.046500	973.671875	-29.922125
31131.414043	1154.046500	972.503906	-102.162178
31131.414043	1154.046500	971.334961	86.584328
31131.414043	1154.046500	970.166016	4.913615
31131.414043	1154.046500	968.997070	-75.138969
31131.414043	1154.046500	967.828125	-24.608868
31131.414043	1154.046500	966.658203	-64.393753
31131.414043	1154.046500	965.488281	176.461044
31131.414043	1154.046500	964.318359	-4.928549
31131.414043	1154.046500	963.148438	53.403465
31131.414043	1154.046500	961.977539	92.626244
31131.414043	1154.046500	960.806641	-16.100895
31131.414043	1154.046500	959.635742	-30.391047
31131.414043	1154.046500	958.463867	-84.629303
31131.414043	1154.046500	957.292969	21.035618
31131.414043	1154.046500	956.121094	-72.683273
31131.414043	1154.046500	954.948242	65.028610
31131.414043	1154.046500	953.776367	40.372253
31131.414043	1154.046500	952.603516	126.396011
31131.414043	1154.046500	951.430664	125.559601
31131.414043	1154.046500	950.257813	70.030670
31131.414043	1154.046500	949.084961	132.492493
31131.414043	1154.046500	947.911133	-13.771724
31131.414043	1154.046500	946.737305	188.273956
31131.414043	1154.046500	945.563477	123.272766
31131.414043	1154.046500	944.388672	-30.626408
31131.414043	1154.046500	943.213867	-10.719635
31131.414043	1154.046500	942.039063	118.171463
31131.414043	1154.046500	940.864258	206.508453
31131.414043	1154.046500	939.688477	0.925536
31131.414043	1154.046500	938.513672	127.253395
31131.414043	1154.046500	937.337891	338.904755
31131.414043	1154.046500	936.161133	119.221527
31131.414043	1154.046500	934.985352	247.731735
31131.414043	1154.046500	933.808594	272.164429
31131.414043	1154.046500	932.631836	135.250992
31131.414043	1154.046500	931.454102	166.634293
31131.414043	1154.046500	930.277344	254.870255
31131.414043	1154.046500	929.099609	205.710297
31131.414043	1154.046500	927.921875	303.330170
31131.414043	1154.046500	926.743164	289.621216
31131.414043	1154.046500	925.565430	294.820160
31131.414043	1154.046500	924.386719	72.742683
31131.414043	1154.046500	923.208008	217.652039
31131.414043	1154.046500	922.028320	21.663111
31131.414043	1154.046500	920.849609	36.342766
31131.414043	1154.046500	919.669922	38.172188
31131.414043	1154.046500	919.474609	148.314529
31131.414043	1154.046500	918.309570	151.087967
31131.414043	1154.046500	917.143555	19.042408
31131.414043	1154.046500	915.977539	208.616882
31131.414043	1154.046500	914.810547	-25.065483
31131.414043	1154.046500	913.644531	166.779572
31131.414043	1154.046500	912.477539	-62.097904
31131.414043	1154.046500	911.310547	124.928169
31131.414043	1154.046500	910.143555	49.667427
31131.414043	1154.046500	908.975586	104.318130
31131.414043	1154.046500	907.807617	142.406265
31131.414043	1154.046500	906.639648	133.252701
31131.414043	1154.046500	905.471680	-135.533142
31131.414043	1154.046500	904.303711	209.310547
31131.414043	1154.046500	903.134766	46.762711
31131.414043	1154.046500	901.965820	-103.936768
31131.414043	1154.046500	900.796875	-39.981674
31131.414043	1154.046500	899.626953	-124.605499
31131.414043	1154.046500	898.457031	7.668490
31131.414043	1154.046500	897.287109	104.523926
31131.414043	1154.046500	896.117188	48.163975
31131.414043	1154.046500	894.947266	-67.082222
31131.414043	1154.046500	893.776367	24.984901
31131.414043	1154.046500	892.605469	-52.552433
31131.414043	1154.046500	891.434570	171.300430
31131.414043	1154.046500	890.262695	150.238632
31131.414043	1154.046500	889.091797	235.079498
31131.414043	1154.046500	887.919922	77.515480
31131.414043	1154.046500	886.748047	47.040478
31131.414043	1154.046500	885.575195	84.777779
31131.414043	1154.046500	884.403320	-84.451790
31131.414043	1154.046500	883.230469	131.956726
31131.414043	1154.046500	882.057617	-86.597466
31131.414043	1154.046500	880.883789	-91.211349
31131.414043	1154.046500	879.710938	-22.996164
31131.414043	1154.046500	878.537109	-29.993025
31131.414043	1154.046500	877.362305	-20.556942
31131.414043	1154.046500	876.188477	-79.234657
31131.414043	1154.046500	875.013672	78.091820
31131.414043	1154.046500	873.839844	-32.245308
31131.414043	1154.046500	872.664063	63.969212
31131.414043	1154.046500	871.489258	-93.267502
31131.414043	1154.046500	870.313477	-112.047501
31131.414043	1154.046500	869.138672	174.059631
31131.414043	1154.046500	867.962891	-32.378555
31131.414043	1154.046500	866.786133	150.421600
31131.414043	1154.046500	865.610352	208.908112
31131.414043	1154.046500	864.433594	124.412186
31131.414043	1154.046500	863.256836	70.397064
31131.414043	1154.046500	862.079102	-81.989296
31131.414043	1154.046500	860.902344	37.341347
31131.414043	1154.046500	859.724609	114.465691
31131.414043	1154.046500	858.546875	125.997910
31131.414043	1154.046500	857.368164	1.764124
31131.414043	1154.046500	856.190430	24.990835
31131.414043	1154.046500	855.011719	-19.650625
31131.414043	1154.046500	853.833008	55.006676
31131.414043	1154.046500	852.654297	50.109165
31131.414043	1154.046500	851.474609	-92.747559
31131.414043	1154.046500	850.294922	143.140091
31131.414043	1154.046500	849.115234	4.972235
31131.414043	1154.046500	847.935547	9.386508
31131.414043	1154.046500	846.754883	-58.635799
31131.414043	1154.046500	845.575195	-44.893421
31131.414043	1154.046500	844.393555	-77.872559
31131.414043	1154.046500	843.212891	148.306885
31131.414043	1154.046500	842.032227	-62.130650
31131.414043	1154.046500	840.850586	-36.780109
31131.414043	1154.046500	839.668945	37.546535
31131.414043	1154.046500	838.486328	-18.809164
31131.414043	1154.046500	837.304688	22.803417
31131.414043	1154.046500	836.122070	-70.863213
31131.414043	1154.046500	834.939453	89.618263
31131.414043	1154.046500	833.756836	149.789749
31131.414043	1154.046500	832.573242	107.384354
31131.414043	1154.046500	831.389648	158.180969
31131.414043	1154.046500	830.206055	253.202942
31131.414043	1154.046500	829.022461	234.049789
31131.414043	1154.046500	827.838867	7.652075
31131.414043	1154.046500	826.654297	153.820953
31131.414043	1154.046500	825.469727	-53.874565
31131.414043	1154.046500	824.284180	-73.004715
31131.414043	1154.046500	823.099609	194.030594
31131.414043	1154.046500	821.914063	-106.633598
31131.414043	1154.046500	820.728516	67.243134
31131.414043	1154.046500	819.542969	78.272011
31131.414043	1154.046500	818.356445	-82.745682
31131.414043	1154.046500	817.169922	-60.099747
31131.414043	1154.046500	815.983398	11.320056
31131.414043	1154.046500	814.796875	115.220161
31131.414043	1154.046500	813.609375	-29.474171
31131.414043	1154.046500	812.422852	-125.356476
31131.414043	1154.046500	811.235352	-77.262672
31131.414043	1154.046500	810.046875	89.183067
31131.414043	1154.046500	808.859375	30.421463
31131.414043	1154.046500	807.670898	43.599922
31131.414043	1154.046500	806.482422	-10.520476
31131.414043	1154.046500	805.293945	18.863861
31131.414043	1154.046500	804.104492	85.322617
31131.414043	1154.046500	802.915039	135.508011
31131.414043	1154.046500	801.725586	232.015167
31131.414043	1154.046500	800.536133	34.143745
31131.414043	1154.046500	799.345703	-50.128906
31131.414043	1154.046500	798.155273	-57.938587
31131.414043	1154.046500	796.964844	24.563704
31131.414043	1154.046500	795.774414	42.178143
31131.414043	1154.046500	794.583008	52.822926
31131.414043	1154.046500	793.392578	17.152506
31131.414043	1154.046500	792.200195	11.563756
31131.414043	1154.046500	791.008789	179.482315
31131.414043	1154.046500	789.816406	16.529800
31131.414043	1154.046500	788.625000	-19.175861
31131.414043	1154.046500	787.432617	-6.328069
31131.414043	1154.046500	786.239258	43.483665
31131.414043	1154.046500	785.046875	155.659607
31131.414043	1154.046500	783.853516	-55.738377
31131.414043	1154.046500	782.660156	49.442692
31131.414043	1154.046500	781.465820	-37.153076
31131.414043	1154.046500	780.272461	162.625183
31131.414043	1154.046500	779.078125	76.002823
31131.414043	1154.046500	777.883789	14.789105
31131.414043	1154.046500	776.688477	124.365883
31131.414043	1154.046500	775.494141	60.820683
31131.414043	1154.046500	774.298828	8.816710
31131.414043	1154.046500	773.103516	-43.185329
31131.414043	1154.046500	771.907227	57.008858
31131.414043	1154.046500	770.711914	-22.688368
31131.414043	1154.046500	769.515625	100.469574
31131.414043	1154.046500	768.318359	124.460556
31131.414043	1154.046500	767.122070	-19.776577
31131.414043	1154.046500	765.924805	24.920176
31131.414043	1154.046500	764.727539	-116.974678
31131.414043	1154.046500	763.530273	40.510941
31131.414043	1154.046500	762.333008	-41.514175
31131.414043	1154.046500	761.134766	-3.838788
31131.414043	1154.046500	759.936523	49.907196
31131.414043	1154.046500	758.738281	55.294975
31131.414043	1154.046500	757.540039	-54.352776
31131.414043	1154.046500	756.340820	-28.291185
31131.414043	1154.046500	755.141602	133.395325
31131.414043	1154.046500	753.942383	-164.766968
31131.414043	1154.046500	752.742188	-62.919456
31131.414043	1154.046500	751.541992	-20.880392
31131.414043	1154.046500	750.341797	147.474182
31131.414043	1154.046500	749.141602	-42.577015
31131.414043	1154.046500	747.941406	26.922029
31131.414043	1154.046500	746.740234	80.298576
31131.414043	1154.046500	745.539063	34.925892
31131.414043	1154.046500	744.337891	-19.630178
31131.414043	1154.046500	743.135742	-113.192787
31131.414043	1154.046500	741.933594	24.956591
31131.414043	1154.046500	740.731445	-4.402795
31131.414043	1154.046500	739.529297	30.433113
31131.414043	1154.046500	738.326172	44.598614
31131.414043	1154.046500	737.124023	136.666275
31131.414043	1154.046500	735.919922	141.590790
31131.414043	1154.046500	734.716797	279.376404
31131.414043	1154.046500	733.513672	185.725235
31131.414043	1154.046500	732.309570	341.718811
31131.414043	1154.046500	731.105469	309.869293
31131.414043	1154.046500	729.900391	202.464722
31131.414043	1154.046500	728.696289	317.090576
31131.414043	1154.046500	727.491211	330.961121
31131.414043	1154.046500	726.286133	289.895721
31131.414043	1154.046500	725.080078	196.215515
31131.414043	1154.046500	723.874023	150.574905
31131.414043	1154.046500	722.668945	237.538528
31131.414043	1154.046500	721.461914	102.712334
31131.414043	1154.046500	720.255859	18.198395
31131.414043	1154.046500	719.048828	-20.606201
31131.414043	1154.046500	717.841797	6.831472
31131.414043	1154.046500	716.634766	-171.322540
31131.414043	1154.046500	715.427734	50.184219
31131.414043	1154.046500	714.219727	-34.347717
31131.414043	1154.046500	713.011719	-96.042564
31131.414043	1154.046500	711.803711	-25.376354
31131.414043	1154.046500	710.594727	-18.647243
31131.414043	1154.046500	709.385742	-25.630741
31131.414043	1154.046500	708.176758	-85.088020
31131.414043	1154.046500	706.967773	-96.661110
31131.414043	1154.046500	705.758789	94.636871
31131.414043	1154.046500	704.548828	87.542854
31131.414043	1154.046500	703.338867	-56.293251
31131.414043	1154.046500	702.127930	139.362030
31131.414043	1154.046500	700.917969	52.473598
31131.414043	1154.046500	699.707031	-25.293417
31131.414043	1154.046500	698.496094	17.619661
31131.414043	1154.046500	697.285156	185.689011
31131.414043	1154.046500	696.073242	185.253036
31131.414043	1154.046500	694.861328	61.925667
31131.414043	1154.046500	693.649414	-43.172874
31131.414043	1154.046500	692.436523	40.524311
31131.414043	1154.046500	691.224609	-3.174320
31131.414043	1154.046500	690.011719	171.372711
31131.414043	1154.046500	688.798828	61.704708
31131.414043	1154.046500	687.584961	127.040871
31131.414043	1154.046500	686.372070	144.617065
31131.414043	1154.046500	685.158203	82.660103
31131.414043	1154.046500	683.943359	86.567055
31131.414043	1154.046500	682.729492	317.509460
31131.414043	1154.046500	681.514648	330.403473
31131.414043	1154.046500	680.299805	148.083969
31131.414043	1154.046500	679.084961	190.465729
31131.414043	1154.046500	677.869141	396.151123
31131.414043	1154.046500	676.653320	220.674805
31131.414043	1154.046500	675.437500	86.071159
31131.414043	1154.046500	674.221680	119.279358
31131.414043	1154.046500	673.004883	-85.556732
31131.414043	1154.046500	671.789063	79.077995
31131.414043	1154.046500	670.571289	230.025848
31131.414043	1154.046500	669.354492	251.769669
31131.414043	1154.046500	668.136719	182.890411
31131.414043	1154.046500	666.919922	388.010223
31131.414043	1154.046500	665.701172	325.884399
31131.414043	1154.046500	664.483398	51.007660
31131.414043	1154.046500	663.264648	56.830494
31131.414043	1154.046500	662.045898	173.493271
31131.414043	1154.046500	660.827148	106.869286
31131.414043	1154.046500	659.608398	-0.450842
31131.414043	1154.046500	658.388672	102.530159
31131.414043	1154.046500	657.168945	108.248154
31131.414043	1154.046500	655.949219	197.569626
31131.414043	1154.046500	654.728516	76.693504
31131.414043	1154.046500	653.507813	32.662632
31131.414043	1154.046500	652.287109	198.687271
31131.414043	1154.046500	651.066406	204.297501
31131.414043	1154.046500	649.844727	313.742035
31131.414043	1154.046500	648.623047	183.862122
31131.414043	1154.046500	647.401367	135.264511
31131.414043	1154.046500	646.179688	174.667328
31131.414043	1154.046500	644.957031	168.922256
31131.414043	1154.046500	643.734375	111.294456
31131.414043	1154.046500	642.511719	-88.375404
31131.414043	1154.046500	641.289063	-60.285728
31131.414043	1154.046500	640.065430	93.993813
31131.414043	1154.046500	638.841797	81.446175
31131.414043	1154.046500	637.618164	-9.960012
31131.414043	1154.046500	636.393555	13.533181
31131.414043	1154.046500	635.168945	-44.064865
31131.414043	1154.046500	633.944336	-110.655640
31131.414043	1154.046500	632.719727	47.871590
31131.414043	1154.046500	631.494141	39.781578
31131.414043	1154.046500	630.269531	67.687546
31131.414043	1154.046500	629.042969	-79.897270
31131.414043	1154.046500	627.817383	114.435074
31131.414043	1154.046500	626.590820	68.073090
31131.414043	1154.046500	625.365234	-36.726887
31131.414043	1154.046500	624.137695	-53.834957
31131.414043	1154.046500	622.911133	200.967941
31131.414043	1154.046500	621.683594	125.387657
31131.414043	1154.046500	620.456055	222.793076
31131.414043	1154.046500	619.228516	12.482957
31131.414043	1154.046500	618.000977	100.878128
31131.414043	1154.046500	616.772461	139.842941
31131.414043	1154.046500	615.543945	64.326385
31131.414043	1154.046500	614.314453	0.054630
31131.414043	1154.046500	613.085938	21.056107
31131.414043	1154.046500	611.856445	-40.943825
31131.414043	1154.046500	610.626953	116.836365
31131.414043	1154.046500	609.397461	39.143196
31131.414043	1154.046500	608.166992	87.000710
31131.414043	1154.046500	606.936523	161.728516
31131.414043	1154.046500	605.706055	88.548759
31131.414043	1154.046500	604.474609	-15.962787
31131.414043	1154.046500	603.244141	13.944994
31131.414043	1154.046500	602.012695	-5.421472
31131.414043	1154.046500	600.780273	-49.405483
31131.414043	1154.046500	599.548828	38.681076
31131.414043	1154.046500	598.316406	1.421501
31131.414043	1154.046500	597.083984	-105.173668
31131.414043	1154.046500	595.851563	41.026875
31131.414043	1154.046500	594.618164	-7.385907
31131.414043	1154.046500	593.384766	-4.352654
31131.414043	1154.046500	592.151367	-12.493034
31131.414043	1154.046500	590.917969	-0.513142
31131.414043	1154.046500	589.683594	11.464128
31131.414043	1154.046500	588.449219	-10.065843
31131.414043	1154.046500	587.214844	-44.982006
31131.414043	1154.046500	585.979492	-44.152355
31131.414043	1154.046500	584.745117	-29.920618
31131.414043	1154.046500	583.509766	-33.545692
31131.414043	1154.046500	582.273438	116.807846
31131.414043	1154.046500	581.038086	77.472000
31131.414043	1154.046500	579.801758	-1.989822
31131.414043	1154.046500	578.565430	130.444550
31131.414043	1154.046500	577.329102	111.220856
31131.414043	1154.046500	576.091797	252.507751
31131.414043	1154.046500	574.854492	199.854736
31131.414043	1154.046500	573.617188	178.428223
31131.414043	1154.046500	572.378906	36.725986
31131.414043	1154.046500	571.141602	160.132141
31131.414043	1154.046500	569.903320	149.892792
31131.414043	1154.046500	568.664063	57.297447
31131.414043	1154.046500	567.425781	153.945450
31131.414043	1154.046500	566.186523	103.694290
31131.414043	1154.046500	564.947266	-13.267007
31131.414043	1154.046500	563.708008	-50.088955
31131.414043	1154.046500	562.467773	88.802437
31131.414043	1154.046500	561.227539	0.863714
31131.414043	1154.046500	559.987305	197.509277
31131.414043	1154.046500	558.747070	-45.956814
31131.414043	1154.046500	557.505859	68.431053
31131.414043	1154.046500	556.264648	113.919365
31131.414043	1154.046500	555.023438	-40.486668
31131.414043	1154.046500	553.781250	29.461777
31131.414043	1154.046500	552.539063	-2.725688
31131.414043	1154.046500	551.296875	-39.321236
31131.414043	1154.046500	550.054688	30.632923
31131.414043	1154.046500	548.811523	56.200581
31131.414043	1154.046500	547.569336	-49.095634
31131.414043	1154.046500	546.325195	14.212975
31131.414043	1154.046500	545.082031	64.210915
31131.414043	1154.046500	543.837891	-129.636581
31131.414043	1154.046500	542.593750	88.842491
31131.414043	1154.046500	541.349609	-5.179816
31131.414043	1154.046500	540.105469	35.991993
31131.414043	1154.046500	538.860352	-9.214989
31131.414043	1154.046500	537.615234	-43.311504
31131.414043	1154.046500	536.369141	-88.444183
31131.414043	1154.046500	535.124023	85.591278
31131.414043	1154.046500	533.877930	-32.537117
31131.414043	1154.046500	532.631836	130.387802
31131.414043	1154.046500	531.384766	98.606598
31131.414043	1154.046500	530.138672	-76.888535
31131.414043	1154.046500	528.891602	-0.230791
31131.414043	1154.046500	527.643555	-56.220894
31131.414043	1154.046500	526.396484	150.835831
31131.414043	1154.046500	525.148438	28.588940
31131.414043	1154.046500	523.900391	-89.167503
31131.414043	1154.046500	522.652344	-114.088364
31131.414043	1154.046500	521.403320	-99.232399
31131.414043	1154.046500	520.154297	-62.285645
31131.414043	1154.046500	518.905273	-23.128126
31131.414043	1154.046500	517.656250	-17.069082
31131.414043	1154.046500	516.406250	-52.914379
31131.414043	1154.046500	515.156250	-93.136337
31131.414043	1154.046500	513.906250	-75.982758
31131.414043	1154.046500	512.655273	124.186272
31131.414043	1154.046500	511.404297	-59.278942
31131.414043	1154.046500	510.153320	-123.634575
31131.414043	1154.046500	508.902344	-71.161720
31131.414043	1154.046500	507.650391	-5.476380
31131.414043	1154.046500	506.398438	-111.598541
31131.414043	1154.046500	505.146484	9.152035
31131.414043	1154.046500	503.893555	-72.678101
31131.414043	1154.046500	502.641602	-180.868958
31131.414043	1154.046500	501.388672	36.692474
31131.414043	1154.046500	500.134766	-58.246246
31131.414043	1154.046500	498.881836	60.239269
31131.414043	1154.046500	497.627930	-50.030449
31131.414043	1154.046500	496.374023	-4.129941
31131.414043	1154.046500	495.119141	-24.185165
31131.414043	1154.046500	493.865234	138.196304
31131.414043	1154.046500	492.610352	-55.445320
31131.414043	1154.046500	491.355469	-134.758499
31131.414043	1154.046500	490.099609	1.214677
31131.414043	1154.046500	488.843750	66.869118
31131.414043	1154.046500	487.587891	0.778140
31131.414043	1154.046500	486.332031	-10.404416
31131.414043	1154.046500	485.075195	-61.077209
31131.414043	1154.046500	483.818359	-100.753731
31131.414043	1154.046500	482.561523	199.586441
31131.414043	1154.046500	481.304688	74.347961
31131.414043	1154.046500	480.046875	-178.005692
31131.414043	1154.046500	478.789063	12.555275
31131.414043	1154.046500	477.531250	-105.987480
31131.414043	1154.046500	476.272461	130.485641
31131.414043	1154.046500	475.013672	108.351944
31131.414043	1154.046500	473.754883	147.549011
31131.414043	1154.046500	472.496094	85.994347
31131.414043	1154.046500	471.236328	24.457249
31131.414043	1154.046500	469.976563	100.831924
31131.414043	1154.046500	468.716797	-6.657140
31131.414043	1154.046500	467.456055	39.036518
31131.414043	1154.046500	466.196289	89.071388
31131.414043	1154.046500	464.935547	106.264053
31131.414043	1154.046500	463.673828	221.820221
31131.414043	1154.046500	462.413086	291.401703
31131.414043	1154.046500	461.151367	500.802856
31131.414043	1154.046500	459.889648	456.626984
31131.414043	1154.046500	458.626953	362.198914
31131.414043	1154.046500	457.364258	191.341080
31131.414043	1154.046500	456.101563	304.395569
31131.414043	1154.046500	454.838867	214.337753
31131.414043	1154.046500	453.575195	150.474976
31131.414043	1154.046500	452.312500	265.543610
31131.414043	1154.046500	451.047852	214.710663
31131.414043	1154.046500	449.784180	168.221298
31131.414043	1154.046500	448.519531	237.287735
31131.414043	1154.046500	447.254883	186.360565
31131.414043	1154.046500	445.990234	213.879990
31131.414043	1154.046500	444.725586	90.959045
31131.414043	1154.046500	443.459961	146.704056
31131.414043	1154.046500	442.194336	137.013702
31131.414043	1154.046500	440.927734	175.180634
31131.414043	1154.046500	439.662109	126.168800
31131.414043	1154.046500	438.395508	225.146255
31131.414043	1154.046500	437.127930	282.654144
31131.414043	1154.046500	435.861328	126.811287
31131.414043	1154.046500	434.593750	166.760300
31131.414043	1154.046500	433.326172	204.436279
31131.414043	1154.046500	432.058594	89.786980
31131.414043	1154.046500	430.790039	192.515060
31131.414043	1154.046500	429.521484	434.224548
31131.414043	1154.046500	428.252930	254.127060
31131.414043	1154.046500	426.984375	336.912659
31131.414043	1154.046500	425.714844	80.679436
31131.414043	1154.046500	424.445313	267.502502
31131.414043	1154.046500	423.174805	37.231525
31131.414043	1154.046500	421.905273	126.067024
31131.414043	1154.046500	420.634766	140.947922
31131.414043	1154.046500	419.364258	209.946899
31131.414043	1154.046500	418.092773	265.768341
31131.414043	1154.046500	416.822266	215.153702
31131.414043	1154.046500	415.550781	142.735580
31131.414043	1154.046500	414.278320	226.303436
31131.414043	1154.046500	413.006836	222.987213
31131.414043	1154.046500	411.734375	134.999176
31131.414043	1154.046500	410.461914	96.724525
31131.414043	1154.046500	409.188477	207.766586
31131.414043	1154.046500	407.916016	253.625000
31131.414043	1154.046500	406.642578	214.842209
31131.414043	1154.046500	405.368164	156.410492
31131.414043	1154.046500	404.094727	80.509178
31131.414043	1154.046500	402.820313	147.259155
31131.414043	1154.046500	401.545898	177.007202
31131.414043	1154.046500	400.270508	213.024399
31131.414043	1154.046500	398.996094	173.137756
31131.414043	1154.046500	397.720703	37.923580
31131.414043	1154.046500	396.444336	21.424093
31131.414043	1154.046500	395.168945	97.633469
31131.414043	1154.046500	393.892578	87.149139
31131.414043	1154.046500	392.616211	115.310867
31131.414043	1154.046500	391.339844	205.841599
31131.414043	1154.046500	390.062500	382.438782
31131.414043	1154.046500	388.785156	3.922341
31131.414043	1154.046500	387.507813	225.280014
31131.414043	1154.046500	386.229492	163.597900
31131.414043	1154.046500	384.951172	93.030655
31131.414043	1154.046500	383.672852	123.572937
31131.414043	1154.046500	382.394531	306.902893
31131.414043	1154.046500	381.115234	220.359146
31131.414043	1154.046500	379.835938	101.209000
31131.414043	1154.046500	378.556641	143.407074
31131.414043	1154.046500	377.277344	32.292130
31131.414043	1154.046500	375.997070	43.655407
31131.414043	1154.046500	374.716797	22.364717
31131.414043	1154.046500	373.435547	69.616745
31131.414043	1154.046500	372.155273	150.933701
31131.414043	1154.046500	370.874023	109.163994
31131.414043	1154.046500	369.591797	62.717464
31131.414043	1154.046500	368.310547	149.282150
31131.414043	1154.046500	367.028320	160.123749
31131.414043	1154.046500	365.746094	39.387367
31131.414043	1154.046500	364.463867	-122.561279
31131.414043	1154.046500	363.180664	82.648720
31131.414043	1154.046500	361.897461	10.132196
31131.414043	1154.046500	360.614258	-64.950653
31131.414043	1154.046500	359.330078	1.287684
31131.414043	1154.046500	358.045898	-113.355789
31131.414043	1154.046500	356.761719	-52.380505
31131.414043	1154.046500	355.477539	-28.412979
31131.414043	1154.046500	354.192383	33.656345
31131.414043	1154.046500	352.907227	80.166779
31131.414043	1154.046500	351.622070	12.443483
31131.414043	1154.046500	350.336914	90.046814
31131.414043	1154.046500	349.050781	-77.377304
31131.414043	1154.046500	347.764648	-20.202524
31131.414043	1154.046500	346.477539	-8.646913
31131.414043	1154.046500	345.191406	-51.231518
31131.414043	1154.046500	343.904297	147.667007
31131.414043	1154.046500	342.616211	-58.947498
31131.414043	1154.046500	341.329102	-24.103672
31131.414043	1154.046500	340.041016	-58.433838
31131.414043	1154.046500	338.752930	127.066689
31131.414043	1154.046500	337.463867	104.233521
31131.414043	1154.046500	336.175781	12.294088
31131.414043	1154.046500	334.886719	-7.584294
31131.414043	1154.046500	333.596680	42.396732
31131.414043	1154.046500	332.307617	36.073097
31131.414043	1154.046500	331.017578	-114.215752
31131.414043	1154.046500	329.727539	74.624031
31131.414043	1154.046500	328.436523	-66.445541
31131.414043	1154.046500	327.146484	-105.663017
31131.414043	1154.046500	325.855469	-258.866974
31131.414043	1154.046500	324.563477	-24.210182
31131.414043	1154.046500	323.272461	-23.140173
31131.414043	1154.046500	321.980469	-33.599724
31131.414043	1154.046500	320.688477	-113.185135
31131.414043	1154.046500	319.395508	-140.290573
31131.414043	1154.046500	318.103516	-138.374405
31131.414043	1154.046500	316.810547	-107.526840
31131.414043	1154.046500	315.516602	-143.725479
31131.414043	1154.046500	314.223633	-8.152344
31131.414043	1154.046500	312.929688	39.013256
31131.414043	1154.046500	311.635742	-44.771496
31131.414043	1154.046500	310.340820	204.902634
31131.414043	1154.046500	309.045898	116.981590
31131.414043	1154.046500	307.750977	315.527710
31131.414043	1154.046500	306.456055	127.652893
31131.414043	1154.046500	305.160156	85.625816
31131.414043	1154.046500	303.865234	55.351761
31131.414043	1154.046500	302.568359	279.214172
31131.414043	1154.046500	301.272461	329.632141
31131.414043	1154.046500	299.975586	493.692413
31131.414043	1154.046500	298.678711	514.097412
