#X		#Y		#Wave		#Intensity
3068.679202	5954.865500	1999.980469	-197.173157
3068.679202	5954.865500	1999.016602	-317.462982
3068.679202	5954.865500	1998.052734	-13.679130
3068.679202	5954.865500	1997.087891	-127.130203
3068.679202	5954.865500	1996.123047	-330.520416
3068.679202	5954.865500	1995.158203	-180.356964
3068.679202	5954.865500	1994.193359	-8.698269
3068.679202	5954.865500	1993.228516	-18.589533
3068.679202	5954.865500	1992.262695	79.777840
3068.679202	5954.865500	1991.297852	23.951349
3068.679202	5954.865500	1990.332031	195.197815
3068.679202	5954.865500	1989.366211	-52.432716
3068.679202	5954.865500	1988.399414	167.010635
3068.679202	5954.865500	1987.433594	192.840668
3068.679202	5954.865500	1986.466797	-76.198097
3068.679202	5954.865500	1985.500977	250.208664
3068.679202	5954.865500	1984.534180	121.089516
3068.679202	5954.865500	1983.567383	364.736053
3068.679202	5954.865500	1982.599609	214.872833
3068.679202	5954.865500	1981.632813	-115.780762
3068.679202	5954.865500	1980.665039	165.872421
3068.679202	5954.865500	1979.697266	-214.943787
3068.679202	5954.865500	1978.729492	-62.649681
3068.679202	5954.865500	1977.761719	210.156326
3068.679202	5954.865500	1976.792969	309.678375
3068.679202	5954.865500	1975.825195	68.197472
3068.679202	5954.865500	1974.856445	73.203957
3068.679202	5954.865500	1973.887695	294.968964
3068.679202	5954.865500	1972.918945	104.390335
3068.679202	5954.865500	1971.949219	369.813324
3068.679202	5954.865500	1970.980469	8.538301
3068.679202	5954.865500	1970.010742	-2.822489
3068.679202	5954.865500	1969.041016	81.675934
3068.679202	5954.865500	1968.071289	0.769642
3068.679202	5954.865500	1967.101563	271.983459
3068.679202	5954.865500	1966.130859	390.125824
3068.679202	5954.865500	1965.161133	357.760162
3068.679202	5954.865500	1964.190430	-22.025814
3068.679202	5954.865500	1963.219727	125.015305
3068.679202	5954.865500	1962.249023	97.037643
3068.679202	5954.865500	1961.277344	-41.859848
3068.679202	5954.865500	1960.306641	262.056641
3068.679202	5954.865500	1959.334961	327.057007
3068.679202	5954.865500	1958.363281	-85.312996
3068.679202	5954.865500	1957.391602	363.103210
3068.679202	5954.865500	1956.419922	376.004852
3068.679202	5954.865500	1955.447266	142.941574
3068.679202	5954.865500	1954.474609	37.671394
3068.679202	5954.865500	1953.501953	195.293198
3068.679202	5954.865500	1952.529297	143.919235
3068.679202	5954.865500	1951.556641	94.938858
3068.679202	5954.865500	1950.583984	166.254791
3068.679202	5954.865500	1949.610352	151.525864
3068.679202	5954.865500	1948.636719	190.759201
3068.679202	5954.865500	1947.663086	99.827492
3068.679202	5954.865500	1946.689453	35.882492
3068.679202	5954.865500	1945.715820	99.524933
3068.679202	5954.865500	1944.741211	106.683723
3068.679202	5954.865500	1943.767578	-6.373548
3068.679202	5954.865500	1942.792969	-212.602905
3068.679202	5954.865500	1941.818359	93.706482
3068.679202	5954.865500	1940.842773	-16.872898
3068.679202	5954.865500	1939.868164	17.208944
3068.679202	5954.865500	1938.892578	-139.870178
3068.679202	5954.865500	1937.916992	-304.228424
3068.679202	5954.865500	1936.941406	70.432144
3068.679202	5954.865500	1935.965820	165.754944
3068.679202	5954.865500	1934.990234	148.424210
3068.679202	5954.865500	1934.013672	128.677109
3068.679202	5954.865500	1933.037109	79.595543
3068.679202	5954.865500	1932.060547	233.710815
3068.679202	5954.865500	1931.083984	-55.098312
3068.679202	5954.865500	1930.107422	35.462715
3068.679202	5954.865500	1929.129883	130.925262
3068.679202	5954.865500	1928.153320	-59.730217
3068.679202	5954.865500	1927.175781	216.768219
3068.679202	5954.865500	1926.198242	-259.755005
3068.679202	5954.865500	1925.219727	-181.194763
3068.679202	5954.865500	1924.242188	39.145012
3068.679202	5954.865500	1923.263672	83.543861
3068.679202	5954.865500	1922.285156	389.383881
3068.679202	5954.865500	1921.306641	104.106537
3068.679202	5954.865500	1920.328125	204.844467
3068.679202	5954.865500	1919.349609	102.968475
3068.679202	5954.865500	1918.370117	1.204110
3068.679202	5954.865500	1917.391602	24.028513
3068.679202	5954.865500	1916.412109	-58.007378
3068.679202	5954.865500	1915.431641	-313.158142
3068.679202	5954.865500	1914.452148	5.097374
3068.679202	5954.865500	1913.472656	-81.529541
3068.679202	5954.865500	1912.492188	95.297592
3068.679202	5954.865500	1911.511719	306.270905
3068.679202	5954.865500	1910.531250	119.945389
3068.679202	5954.865500	1909.550781	-161.270508
3068.679202	5954.865500	1908.569336	-223.013168
3068.679202	5954.865500	1907.588867	129.484482
3068.679202	5954.865500	1906.607422	-90.439209
3068.679202	5954.865500	1905.625977	-132.433273
3068.679202	5954.865500	1904.644531	-145.111389
3068.679202	5954.865500	1903.662109	-296.457794
3068.679202	5954.865500	1902.680664	-279.732208
3068.679202	5954.865500	1901.698242	-131.535553
3068.679202	5954.865500	1900.715820	96.970467
3068.679202	5954.865500	1899.733398	43.308319
3068.679202	5954.865500	1898.750000	-214.543503
3068.679202	5954.865500	1897.767578	-260.680054
3068.679202	5954.865500	1896.784180	-175.448090
3068.679202	5954.865500	1895.800781	-92.603951
3068.679202	5954.865500	1894.817383	-226.002670
3068.679202	5954.865500	1893.833984	-36.132164
3068.679202	5954.865500	1892.850586	-43.031212
3068.679202	5954.865500	1891.866211	-166.442184
3068.679202	5954.865500	1890.881836	-185.325439
3068.679202	5954.865500	1889.897461	-228.415329
3068.679202	5954.865500	1888.913086	-38.393574
3068.679202	5954.865500	1887.927734	-246.408890
3068.679202	5954.865500	1886.943359	-78.178017
3068.679202	5954.865500	1885.958008	-414.576447
3068.679202	5954.865500	1884.972656	-112.860336
3068.679202	5954.865500	1883.987305	-364.143402
3068.679202	5954.865500	1883.001953	100.005440
3068.679202	5954.865500	1882.015625	-20.220871
3068.679202	5954.865500	1881.029297	-113.696144
3068.679202	5954.865500	1880.042969	6.158942
3068.679202	5954.865500	1879.056641	-70.250160
3068.679202	5954.865500	1878.070313	-354.924316
3068.679202	5954.865500	1877.083984	36.274189
3068.679202	5954.865500	1876.096680	98.026451
3068.679202	5954.865500	1875.109375	-67.799797
3068.679202	5954.865500	1874.122070	56.934982
3068.679202	5954.865500	1873.134766	-48.274277
3068.679202	5954.865500	1872.146484	132.099045
3068.679202	5954.865500	1871.159180	82.587921
3068.679202	5954.865500	1870.170898	-58.807980
3068.679202	5954.865500	1869.182617	-79.225250
3068.679202	5954.865500	1868.194336	144.574951
3068.679202	5954.865500	1867.205078	-388.369232
3068.679202	5954.865500	1866.216797	-46.163807
3068.679202	5954.865500	1865.227539	220.993469
3068.679202	5954.865500	1864.238281	-33.835022
3068.679202	5954.865500	1863.249023	88.257347
3068.679202	5954.865500	1862.259766	376.933014
3068.679202	5954.865500	1861.269531	-68.596321
3068.679202	5954.865500	1860.279297	-21.469570
3068.679202	5954.865500	1859.290039	228.369781
3068.679202	5954.865500	1858.298828	145.040283
3068.679202	5954.865500	1857.308594	-51.701229
3068.679202	5954.865500	1856.318359	272.682922
3068.679202	5954.865500	1855.327148	-184.590103
3068.679202	5954.865500	1854.335938	158.899429
3068.679202	5954.865500	1853.344727	34.456299
3068.679202	5954.865500	1852.353516	143.836441
3068.679202	5954.865500	1851.362305	31.379751
3068.679202	5954.865500	1850.370117	374.344055
3068.679202	5954.865500	1849.377930	201.524246
3068.679202	5954.865500	1848.385742	84.101959
3068.679202	5954.865500	1847.393555	94.293991
3068.679202	5954.865500	1846.401367	142.930420
3068.679202	5954.865500	1845.408203	198.686615
3068.679202	5954.865500	1844.415039	379.504211
3068.679202	5954.865500	1843.421875	66.812828
3068.679202	5954.865500	1842.428711	180.030441
3068.679202	5954.865500	1841.435547	192.067139
3068.679202	5954.865500	1840.441406	276.152496
3068.679202	5954.865500	1839.448242	280.743195
3068.679202	5954.865500	1838.454102	362.159607
3068.679202	5954.865500	1837.459961	263.142792
3068.679202	5954.865500	1836.464844	96.746056
3068.679202	5954.865500	1835.470703	317.165283
3068.679202	5954.865500	1834.475586	285.112488
3068.679202	5954.865500	1833.480469	144.848740
3068.679202	5954.865500	1832.485352	395.961914
3068.679202	5954.865500	1831.490234	51.360168
3068.679202	5954.865500	1830.495117	98.057213
3068.679202	5954.865500	1829.499023	317.404297
3068.679202	5954.865500	1828.502930	262.942474
3068.679202	5954.865500	1827.506836	309.119019
3068.679202	5954.865500	1826.510742	268.758209
3068.679202	5954.865500	1825.513672	379.349426
3068.679202	5954.865500	1824.517578	506.521332
3068.679202	5954.865500	1823.520508	559.147034
3068.679202	5954.865500	1822.523438	376.667023
3068.679202	5954.865500	1821.526367	563.155579
3068.679202	5954.865500	1820.529297	516.962524
3068.679202	5954.865500	1819.531250	477.785278
3068.679202	5954.865500	1818.533203	469.568909
3068.679202	5954.865500	1817.535156	530.612488
3068.679202	5954.865500	1816.537109	268.197449
3068.679202	5954.865500	1815.539063	391.097534
3068.679202	5954.865500	1814.540039	717.187012
3068.679202	5954.865500	1813.541992	482.983551
3068.679202	5954.865500	1812.542969	574.040039
3068.679202	5954.865500	1811.543945	530.885071
3068.679202	5954.865500	1810.543945	688.421631
3068.679202	5954.865500	1809.544922	826.547913
3068.679202	5954.865500	1808.544922	799.428589
3068.679202	5954.865500	1807.544922	499.595184
3068.679202	5954.865500	1806.544922	534.218079
3068.679202	5954.865500	1805.544922	475.401398
3068.679202	5954.865500	1804.544922	292.141724
3068.679202	5954.865500	1803.543945	672.381592
3068.679202	5954.865500	1802.542969	491.040588
3068.679202	5954.865500	1801.541992	622.289246
3068.679202	5954.865500	1800.541016	373.677063
3068.679202	5954.865500	1799.539063	222.747330
3068.679202	5954.865500	1798.538086	527.388184
3068.679202	5954.865500	1797.536133	340.171478
3068.679202	5954.865500	1796.534180	608.352478
3068.679202	5954.865500	1795.532227	356.258179
3068.679202	5954.865500	1794.529297	552.243225
3068.679202	5954.865500	1793.527344	528.561829
3068.679202	5954.865500	1792.524414	623.773682
3068.679202	5954.865500	1791.521484	566.147156
3068.679202	5954.865500	1790.518555	455.837677
3068.679202	5954.865500	1789.514648	385.765137
3068.679202	5954.865500	1788.511719	60.592819
3068.679202	5954.865500	1787.507813	321.026398
3068.679202	5954.865500	1786.503906	233.462769
3068.679202	5954.865500	1785.500000	169.432541
3068.679202	5954.865500	1784.496094	162.239761
3068.679202	5954.865500	1783.491211	207.076279
3068.679202	5954.865500	1782.486328	313.439941
3068.679202	5954.865500	1781.481445	635.898621
3068.679202	5954.865500	1780.476563	99.422531
3068.679202	5954.865500	1779.471680	368.855072
3068.679202	5954.865500	1778.465820	252.744217
3068.679202	5954.865500	1777.460938	162.510254
3068.679202	5954.865500	1776.455078	487.823486
3068.679202	5954.865500	1775.449219	156.951767
3068.679202	5954.865500	1774.442383	338.943970
3068.679202	5954.865500	1773.436523	302.053192
3068.679202	5954.865500	1772.429688	36.873154
3068.679202	5954.865500	1771.422852	-55.238934
3068.679202	5954.865500	1770.416016	317.568512
3068.679202	5954.865500	1769.409180	46.772144
3068.679202	5954.865500	1768.402344	-105.631828
3068.679202	5954.865500	1767.394531	194.755096
3068.679202	5954.865500	1766.386719	141.284180
3068.679202	5954.865500	1765.378906	56.654881
3068.679202	5954.865500	1764.371094	87.879272
3068.679202	5954.865500	1763.362305	109.235580
3068.679202	5954.865500	1762.354492	206.090057
3068.679202	5954.865500	1761.345703	378.354034
3068.679202	5954.865500	1760.336914	119.019691
3068.679202	5954.865500	1759.328125	302.357178
3068.679202	5954.865500	1758.318359	144.223343
3068.679202	5954.865500	1757.308594	286.488525
3068.679202	5954.865500	1756.299805	153.751022
3068.679202	5954.865500	1755.290039	122.447693
3068.679202	5954.865500	1754.279297	-103.277138
3068.679202	5954.865500	1753.269531	-76.107231
3068.679202	5954.865500	1752.258789	42.911850
3068.679202	5954.865500	1751.249023	182.820496
3068.679202	5954.865500	1750.238281	149.665634
3068.679202	5954.865500	1749.226563	132.673859
3068.679202	5954.865500	1748.215820	96.426880
3068.679202	5954.865500	1747.204102	-188.344788
3068.679202	5954.865500	1746.193359	318.168671
3068.679202	5954.865500	1745.181641	297.288208
3068.679202	5954.865500	1744.168945	-111.339378
3068.679202	5954.865500	1743.157227	249.660522
3068.679202	5954.865500	1742.144531	64.731911
3068.679202	5954.865500	1741.132813	-247.952225
3068.679202	5954.865500	1740.120117	-6.306587
3068.679202	5954.865500	1739.106445	-34.162647
3068.679202	5954.865500	1738.093750	-409.161530
3068.679202	5954.865500	1737.080078	-93.323433
3068.679202	5954.865500	1736.067383	-68.028183
3068.679202	5954.865500	1735.053711	48.796429
3068.679202	5954.865500	1734.040039	42.610130
3068.679202	5954.865500	1733.025391	-51.194759
3068.679202	5954.865500	1732.011719	163.378082
3068.679202	5954.865500	1730.997070	-60.767803
3068.679202	5954.865500	1729.982422	-96.766762
3068.679202	5954.865500	1728.967773	-227.345123
3068.679202	5954.865500	1727.952148	-214.655060
3068.679202	5954.865500	1726.937500	26.036032
3068.679202	5954.865500	1725.921875	115.575623
3068.679202	5954.865500	1724.906250	251.761124
3068.679202	5954.865500	1723.890625	142.811783
3068.679202	5954.865500	1722.875000	-208.781631
3068.679202	5954.865500	1721.858398	217.844482
3068.679202	5954.865500	1720.841797	-7.450297
3068.679202	5954.865500	1719.825195	65.543724
3068.679202	5954.865500	1718.808594	-235.621918
3068.679202	5954.865500	1717.791992	-266.786285
3068.679202	5954.865500	1716.774414	157.488907
3068.679202	5954.865500	1715.756836	-62.479645
3068.679202	5954.865500	1714.739258	-24.376535
3068.679202	5954.865500	1713.721680	22.725033
3068.679202	5954.865500	1712.704102	48.298779
3068.679202	5954.865500	1711.685547	38.232632
3068.679202	5954.865500	1710.667969	-244.423965
3068.679202	5954.865500	1709.649414	-224.677765
3068.679202	5954.865500	1708.630859	-273.355713
3068.679202	5954.865500	1707.611328	-228.598419
3068.679202	5954.865500	1706.592773	-125.566353
3068.679202	5954.865500	1705.573242	-74.569595
3068.679202	5954.865500	1704.553711	-26.308531
3068.679202	5954.865500	1703.534180	-353.455475
3068.679202	5954.865500	1702.513672	-305.939575
3068.679202	5954.865500	1701.494141	-83.046570
3068.679202	5954.865500	1700.473633	-76.158043
3068.679202	5954.865500	1699.453125	122.412331
3068.679202	5954.865500	1698.432617	-253.155960
3068.679202	5954.865500	1697.412109	-207.529083
3068.679202	5954.865500	1696.390625	97.496887
3068.679202	5954.865500	1695.369141	-96.431221
3068.679202	5954.865500	1694.347656	186.680725
3068.679202	5954.865500	1693.326172	45.903069
3068.679202	5954.865500	1692.304688	157.429260
3068.679202	5954.865500	1691.282227	83.776314
3068.679202	5954.865500	1690.260742	98.691566
3068.679202	5954.865500	1689.238281	47.757519
3068.679202	5954.865500	1688.214844	29.170755
3068.679202	5954.865500	1687.192383	-57.473640
3068.679202	5954.865500	1686.168945	37.756645
3068.679202	5954.865500	1685.146484	251.778320
3068.679202	5954.865500	1684.123047	236.471802
3068.679202	5954.865500	1683.099609	398.287048
3068.679202	5954.865500	1682.075195	300.537598
3068.679202	5954.865500	1681.051758	524.630981
3068.679202	5954.865500	1680.027344	500.908295
3068.679202	5954.865500	1679.002930	537.527893
3068.679202	5954.865500	1677.978516	620.461304
3068.679202	5954.865500	1676.953125	614.370239
3068.679202	5954.865500	1675.928711	603.347107
3068.679202	5954.865500	1674.903320	710.857178
3068.679202	5954.865500	1673.877930	582.599670
3068.679202	5954.865500	1672.852539	670.803955
3068.679202	5954.865500	1671.826172	784.245972
3068.679202	5954.865500	1670.800781	743.640137
3068.679202	5954.865500	1669.774414	996.158203
3068.679202	5954.865500	1668.748047	1085.274292
3068.679202	5954.865500	1667.721680	729.384155
3068.679202	5954.865500	1666.694336	1260.137451
3068.679202	5954.865500	1665.667969	1504.190918
3068.679202	5954.865500	1664.640625	1289.434692
3068.679202	5954.865500	1663.613281	1267.559204
3068.679202	5954.865500	1662.585938	1257.040283
3068.679202	5954.865500	1661.557617	1434.554077
3068.679202	5954.865500	1660.530273	1739.646729
3068.679202	5954.865500	1659.501953	1860.658936
3068.679202	5954.865500	1658.473633	1793.099365
3068.679202	5954.865500	1657.444336	2310.806885
3068.679202	5954.865500	1656.416016	2419.218750
3068.679202	5954.865500	1655.386719	2506.369141
3068.679202	5954.865500	1654.358398	2407.496826
3068.679202	5954.865500	1653.328125	2373.313965
3068.679202	5954.865500	1652.298828	2362.160400
3068.679202	5954.865500	1651.269531	2798.707031
3068.679202	5954.865500	1650.239258	2837.981201
3068.679202	5954.865500	1649.208984	2835.237793
3068.679202	5954.865500	1648.178711	3010.866943
3068.679202	5954.865500	1647.148438	3510.876709
3068.679202	5954.865500	1646.117188	3157.123535
3068.679202	5954.865500	1645.086914	3459.403076
3068.679202	5954.865500	1644.055664	3946.710205
3068.679202	5954.865500	1643.024414	4116.131348
3068.679202	5954.865500	1641.992188	4187.905273
3068.679202	5954.865500	1640.960938	3997.735352
3068.679202	5954.865500	1639.928711	4462.806641
3068.679202	5954.865500	1638.896484	5052.532715
3068.679202	5954.865500	1637.864258	4919.514648
3068.679202	5954.865500	1636.832031	4920.600586
3068.679202	5954.865500	1635.798828	5409.735352
3068.679202	5954.865500	1634.766602	5734.271484
3068.679202	5954.865500	1633.733398	5734.575195
3068.679202	5954.865500	1632.699219	5998.306152
3068.679202	5954.865500	1631.666016	6462.994141
3068.679202	5954.865500	1630.632813	6478.807617
3068.679202	5954.865500	1629.598633	6829.560547
3068.679202	5954.865500	1628.564453	6988.189941
3068.679202	5954.865500	1627.530273	7442.355957
3068.679202	5954.865500	1626.495117	7572.703613
3068.679202	5954.865500	1625.460938	7841.494629
3068.679202	5954.865500	1624.425781	7971.412598
3068.679202	5954.865500	1623.390625	8357.416016
3068.679202	5954.865500	1622.355469	8249.135742
3068.679202	5954.865500	1621.319336	8473.042969
3068.679202	5954.865500	1620.284180	8888.309570
3068.679202	5954.865500	1619.248047	9305.537109
3068.679202	5954.865500	1618.211914	9212.721680
3068.679202	5954.865500	1617.174805	8852.250000
3068.679202	5954.865500	1616.138672	9238.909180
3068.679202	5954.865500	1615.101563	9526.117188
3068.679202	5954.865500	1614.065430	9589.604492
3068.679202	5954.865500	1613.027344	9735.800781
3068.679202	5954.865500	1611.990234	10559.246094
3068.679202	5954.865500	1610.953125	10543.820313
3068.679202	5954.865500	1609.915039	10426.924805
3068.679202	5954.865500	1608.876953	10791.218750
3068.679202	5954.865500	1607.838867	10611.993164
3068.679202	5954.865500	1606.800781	11061.113281
3068.679202	5954.865500	1605.761719	11381.059570
3068.679202	5954.865500	1604.723633	11606.541016
3068.679202	5954.865500	1603.684570	11459.162109
3068.679202	5954.865500	1602.644531	11723.398438
3068.679202	5954.865500	1601.605469	12049.622070
3068.679202	5954.865500	1600.566406	12274.510742
3068.679202	5954.865500	1599.526367	12014.224609
3068.679202	5954.865500	1598.486328	11558.659180
3068.679202	5954.865500	1597.446289	12132.570313
3068.679202	5954.865500	1596.405273	12219.164063
3068.679202	5954.865500	1595.365234	11717.802734
3068.679202	5954.865500	1594.324219	11751.579102
3068.679202	5954.865500	1593.283203	11537.379883
3068.679202	5954.865500	1592.242188	11520.652344
3068.679202	5954.865500	1591.200195	11575.000977
3068.679202	5954.865500	1590.159180	11652.332031
3068.679202	5954.865500	1589.117188	11238.650391
3068.679202	5954.865500	1588.075195	11166.880859
3068.679202	5954.865500	1587.032227	11136.366211
3068.679202	5954.865500	1585.990234	11142.617188
3068.679202	5954.865500	1584.947266	10720.175781
3068.679202	5954.865500	1583.904297	10836.496094
3068.679202	5954.865500	1582.861328	10833.645508
3068.679202	5954.865500	1581.818359	10228.329102
3068.679202	5954.865500	1580.775391	10344.775391
3068.679202	5954.865500	1579.731445	10119.947266
3068.679202	5954.865500	1578.687500	10197.474609
3068.679202	5954.865500	1577.643555	10050.689453
3068.679202	5954.865500	1576.598633	9681.960938
3068.679202	5954.865500	1575.554688	10267.670898
3068.679202	5954.865500	1574.509766	9910.611328
3068.679202	5954.865500	1573.464844	9896.850586
3068.679202	5954.865500	1572.419922	9885.458008
3068.679202	5954.865500	1571.374023	9492.260742
3068.679202	5954.865500	1570.329102	9563.409180
3068.679202	5954.865500	1569.283203	9342.012695
3068.679202	5954.865500	1568.237305	9132.220703
3068.679202	5954.865500	1567.191406	8879.201172
3068.679202	5954.865500	1566.144531	8729.112305
3068.679202	5954.865500	1565.098633	8768.792969
3068.679202	5954.865500	1564.051758	8742.295898
3068.679202	5954.865500	1563.004883	9033.238281
3068.679202	5954.865500	1561.957031	8920.144531
3068.679202	5954.865500	1560.910156	8896.276367
3068.679202	5954.865500	1559.862305	9255.776367
3068.679202	5954.865500	1558.814453	9202.402344
3068.679202	5954.865500	1557.766602	9146.907227
3068.679202	5954.865500	1556.718750	8674.312500
3068.679202	5954.865500	1555.669922	9134.385742
3068.679202	5954.865500	1554.621094	8944.843750
3068.679202	5954.865500	1553.573242	9072.342773
3068.679202	5954.865500	1552.523438	9632.720703
3068.679202	5954.865500	1551.474609	9890.138672
3068.679202	5954.865500	1550.424805	9234.323242
3068.679202	5954.865500	1549.375000	9494.281250
3068.679202	5954.865500	1548.325195	9697.405273
3068.679202	5954.865500	1547.275391	9625.226563
3068.679202	5954.865500	1546.225586	9050.342773
3068.679202	5954.865500	1545.174805	9060.547852
3068.679202	5954.865500	1544.124023	9250.651367
3068.679202	5954.865500	1543.073242	9495.460938
3068.679202	5954.865500	1542.022461	9397.028320
3068.679202	5954.865500	1540.970703	9132.831055
3068.679202	5954.865500	1539.919922	9128.118164
3068.679202	5954.865500	1538.868164	9153.114258
3068.679202	5954.865500	1537.815430	8898.807617
3068.679202	5954.865500	1536.763672	9169.623047
3068.679202	5954.865500	1535.710938	8752.343750
3068.679202	5954.865500	1534.659180	8871.405273
3068.679202	5954.865500	1533.606445	8182.391602
3068.679202	5954.865500	1532.552734	8308.704102
3068.679202	5954.865500	1531.500000	8249.179688
3068.679202	5954.865500	1530.446289	7652.142090
3068.679202	5954.865500	1529.393555	7559.248047
3068.679202	5954.865500	1528.338867	7289.641113
3068.679202	5954.865500	1527.285156	6997.779785
3068.679202	5954.865500	1526.231445	6493.187012
3068.679202	5954.865500	1525.176758	6392.487793
3068.679202	5954.865500	1524.122070	5870.584961
3068.679202	5954.865500	1523.067383	5831.778809
3068.679202	5954.865500	1522.012695	5546.350098
3068.679202	5954.865500	1520.957031	5392.632813
3068.679202	5954.865500	1519.901367	5049.059082
3068.679202	5954.865500	1518.845703	4721.761719
3068.679202	5954.865500	1517.790039	5103.384766
3068.679202	5954.865500	1516.734375	4790.388184
3068.679202	5954.865500	1515.677734	4898.627441
3068.679202	5954.865500	1514.621094	4937.005371
3068.679202	5954.865500	1513.564453	4597.967285
3068.679202	5954.865500	1512.507813	4573.707031
3068.679202	5954.865500	1511.450195	4545.206543
3068.679202	5954.865500	1510.393555	4562.299316
3068.679202	5954.865500	1509.335938	4308.475098
3068.679202	5954.865500	1508.278320	4186.131348
3068.679202	5954.865500	1507.219727	4131.901855
3068.679202	5954.865500	1506.162109	4071.302246
3068.679202	5954.865500	1505.103516	3850.695313
3068.679202	5954.865500	1504.044922	3650.844238
3068.679202	5954.865500	1502.986328	3516.881348
3068.679202	5954.865500	1501.926758	3502.895020
3068.679202	5954.865500	1500.868164	3223.061279
3068.679202	5954.865500	1499.808594	3176.019775
3068.679202	5954.865500	1498.749023	2924.110107
3068.679202	5954.865500	1497.688477	3067.257813
3068.679202	5954.865500	1496.628906	2800.429199
3068.679202	5954.865500	1495.568359	2655.758789
3068.679202	5954.865500	1494.507813	2781.966797
3068.679202	5954.865500	1493.447266	2642.626709
3068.679202	5954.865500	1492.386719	2654.659180
3068.679202	5954.865500	1491.325195	2730.098145
3068.679202	5954.865500	1490.263672	2209.146484
3068.679202	5954.865500	1489.202148	2602.885254
3068.679202	5954.865500	1488.140625	2116.719727
3068.679202	5954.865500	1487.079102	1673.906006
3068.679202	5954.865500	1486.016602	1591.651611
3068.679202	5954.865500	1484.954102	1419.849243
3068.679202	5954.865500	1483.891602	935.880066
3068.679202	5954.865500	1482.829102	1133.899292
3068.679202	5954.865500	1481.765625	974.736389
3068.679202	5954.865500	1480.702148	766.618408
3068.679202	5954.865500	1479.638672	412.953827
3068.679202	5954.865500	1478.575195	715.924866
3068.679202	5954.865500	1477.511719	877.690063
3068.679202	5954.865500	1476.447266	741.225586
3068.679202	5954.865500	1475.382813	737.572388
3068.679202	5954.865500	1474.318359	225.029648
3068.679202	5954.865500	1473.253906	435.736237
3068.679202	5954.865500	1472.189453	630.932617
3068.679202	5954.865500	1471.124023	353.526520
3068.679202	5954.865500	1470.058594	749.349609
3068.679202	5954.865500	1468.993164	640.849304
3068.679202	5954.865500	1467.927734	773.039246
3068.679202	5954.865500	1466.861328	566.488953
3068.679202	5954.865500	1465.794922	909.563354
3068.679202	5954.865500	1464.728516	805.186279
3068.679202	5954.865500	1463.662109	1037.472778
3068.679202	5954.865500	1462.594727	976.216553
3068.679202	5954.865500	1461.528320	1196.015869
3068.679202	5954.865500	1460.460938	925.471985
3068.679202	5954.865500	1459.393555	1172.853516
3068.679202	5954.865500	1458.326172	1041.033203
3068.679202	5954.865500	1457.257813	1600.025391
3068.679202	5954.865500	1456.189453	1808.085327
3068.679202	5954.865500	1455.121094	1821.359009
3068.679202	5954.865500	1454.052734	1634.562988
3068.679202	5954.865500	1452.984375	1948.358643
3068.679202	5954.865500	1451.915039	2742.239014
3068.679202	5954.865500	1450.845703	1986.683472
3068.679202	5954.865500	1449.776367	2559.244141
3068.679202	5954.865500	1448.707031	2802.461426
3068.679202	5954.865500	1447.636719	2860.986084
3068.679202	5954.865500	1446.567383	3439.016602
3068.679202	5954.865500	1445.497070	3589.670410
3068.679202	5954.865500	1444.425781	3605.773926
3068.679202	5954.865500	1443.355469	3855.038574
3068.679202	5954.865500	1442.285156	3563.381348
3068.679202	5954.865500	1441.213867	3591.081055
3068.679202	5954.865500	1440.142578	3863.744385
3068.679202	5954.865500	1439.070313	3523.732666
3068.679202	5954.865500	1437.999023	3709.514404
3068.679202	5954.865500	1436.926758	3507.783936
3068.679202	5954.865500	1435.854492	3513.447510
3068.679202	5954.865500	1434.782227	2857.786621
3068.679202	5954.865500	1433.709961	2839.216553
3068.679202	5954.865500	1432.636719	2535.596924
3068.679202	5954.865500	1431.563477	2178.675293
3068.679202	5954.865500	1430.490234	2021.987793
3068.679202	5954.865500	1429.416992	1854.831421
3068.679202	5954.865500	1428.343750	1273.906006
3068.679202	5954.865500	1427.269531	1481.358765
3068.679202	5954.865500	1426.195313	1027.622314
3068.679202	5954.865500	1425.121094	1196.564087
3068.679202	5954.865500	1424.046875	1155.579102
3068.679202	5954.865500	1422.971680	1102.862915
3068.679202	5954.865500	1421.896484	1045.303345
3068.679202	5954.865500	1420.821289	610.533325
3068.679202	5954.865500	1419.746094	558.189575
3068.679202	5954.865500	1418.669922	293.915009
3068.679202	5954.865500	1417.594727	399.143372
3068.679202	5954.865500	1416.518555	114.578560
3068.679202	5954.865500	1415.442383	-52.976891
3068.679202	5954.865500	1414.365234	211.141052
3068.679202	5954.865500	1413.289063	-282.879944
3068.679202	5954.865500	1412.211914	-21.953480
3068.679202	5954.865500	1411.134766	-155.794724
3068.679202	5954.865500	1410.057617	-12.982063
3068.679202	5954.865500	1408.979492	-24.290712
3068.679202	5954.865500	1407.902344	-64.768417
3068.679202	5954.865500	1406.824219	116.730415
3068.679202	5954.865500	1405.746094	14.898214
3068.679202	5954.865500	1404.666992	565.785706
3068.679202	5954.865500	1403.588867	462.431030
3068.679202	5954.865500	1402.509766	636.745117
3068.679202	5954.865500	1401.430664	739.297241
3068.679202	5954.865500	1400.351563	760.176575
3068.679202	5954.865500	1399.271484	759.787598
3068.679202	5954.865500	1398.192383	854.159607
3068.679202	5954.865500	1397.112305	810.172791
3068.679202	5954.865500	1396.031250	1042.906006
3068.679202	5954.865500	1394.951172	800.604309
3068.679202	5954.865500	1393.871094	1092.938477
3068.679202	5954.865500	1392.790039	1162.831177
3068.679202	5954.865500	1391.708984	1255.339111
3068.679202	5954.865500	1390.626953	927.257080
3068.679202	5954.865500	1389.545898	1273.715820
3068.679202	5954.865500	1388.463867	1099.891846
3068.679202	5954.865500	1387.381836	1217.816528
3068.679202	5954.865500	1386.299805	1063.934082
3068.679202	5954.865500	1385.217773	1063.817383
3068.679202	5954.865500	1384.134766	749.993958
3068.679202	5954.865500	1383.051758	867.368286
3068.679202	5954.865500	1381.968750	1029.298462
3068.679202	5954.865500	1380.885742	944.618835
3068.679202	5954.865500	1379.802734	876.839905
3068.679202	5954.865500	1378.718750	648.428650
3068.679202	5954.865500	1377.634766	972.341736
3068.679202	5954.865500	1376.550781	802.288574
3068.679202	5954.865500	1375.465820	742.788208
3068.679202	5954.865500	1374.381836	289.739594
3068.679202	5954.865500	1373.296875	519.932800
3068.679202	5954.865500	1372.211914	239.275238
3068.679202	5954.865500	1371.126953	8.046344
3068.679202	5954.865500	1370.041016	432.298523
3068.679202	5954.865500	1368.955078	401.031403
3068.679202	5954.865500	1367.869141	565.539978
3068.679202	5954.865500	1366.783203	172.623169
3068.679202	5954.865500	1365.697266	592.825928
3068.679202	5954.865500	1364.610352	497.304230
3068.679202	5954.865500	1363.523438	284.352142
3068.679202	5954.865500	1362.436523	119.737167
3068.679202	5954.865500	1361.349609	484.433807
3068.679202	5954.865500	1360.261719	510.068329
3068.679202	5954.865500	1359.174805	742.433105
3068.679202	5954.865500	1358.086914	790.880737
3068.679202	5954.865500	1356.998047	1001.593872
3068.679202	5954.865500	1355.910156	1061.288086
3068.679202	5954.865500	1354.821289	1280.763550
3068.679202	5954.865500	1353.732422	1063.669800
3068.679202	5954.865500	1352.643555	1207.402832
3068.679202	5954.865500	1351.554688	1397.968018
3068.679202	5954.865500	1350.464844	1312.877930
3068.679202	5954.865500	1349.375000	1770.631714
3068.679202	5954.865500	1348.285156	2000.898682
3068.679202	5954.865500	1347.195313	2110.207520
3068.679202	5954.865500	1346.105469	2280.153564
3068.679202	5954.865500	1345.014648	2584.055420
3068.679202	5954.865500	1343.923828	2540.656738
3068.679202	5954.865500	1342.833008	2809.727539
3068.679202	5954.865500	1341.741211	3159.920654
3068.679202	5954.865500	1340.650391	2524.986328
3068.679202	5954.865500	1339.558594	2733.517090
3068.679202	5954.865500	1338.466797	2624.234131
3068.679202	5954.865500	1337.374023	2775.814453
3068.679202	5954.865500	1336.282227	2239.568115
3068.679202	5954.865500	1335.189453	2391.902832
3068.679202	5954.865500	1334.096680	2087.291992
3068.679202	5954.865500	1333.003906	1860.920776
3068.679202	5954.865500	1331.910156	1638.619751
3068.679202	5954.865500	1330.817383	1749.402100
3068.679202	5954.865500	1329.723633	1639.382324
3068.679202	5954.865500	1328.629883	1753.039795
3068.679202	5954.865500	1327.535156	1287.148438
3068.679202	5954.865500	1326.441406	1667.843262
3068.679202	5954.865500	1325.346680	1730.604614
3068.679202	5954.865500	1324.251953	1889.637207
3068.679202	5954.865500	1323.156250	1572.606689
3068.679202	5954.865500	1322.061523	2210.918457
3068.679202	5954.865500	1320.965820	2410.637939
3068.679202	5954.865500	1319.870117	2520.839111
3068.679202	5954.865500	1318.774414	2692.049805
3068.679202	5954.865500	1317.678711	2281.423340
3068.679202	5954.865500	1316.582031	2414.568359
3068.679202	5954.865500	1315.485352	2373.209961
3068.679202	5954.865500	1314.388672	2621.262939
3068.679202	5954.865500	1313.291016	2397.012451
3068.679202	5954.865500	1312.194336	1978.244751
3068.679202	5954.865500	1311.096680	1960.070068
3068.679202	5954.865500	1309.999023	1760.086548
3068.679202	5954.865500	1308.901367	1577.048340
3068.679202	5954.865500	1307.802734	1732.063110
3068.679202	5954.865500	1306.705078	1770.507324
3068.679202	5954.865500	1305.606445	1381.197021
3068.679202	5954.865500	1304.506836	1441.411133
3068.679202	5954.865500	1303.408203	1703.016235
3068.679202	5954.865500	1302.308594	1461.951538
3068.679202	5954.865500	1301.208984	1994.640747
3068.679202	5954.865500	1300.109375	1684.970703
3068.679202	5954.865500	1299.009766	1592.473022
3068.679202	5954.865500	1297.909180	1587.636475
3068.679202	5954.865500	1296.808594	1820.219360
3068.679202	5954.865500	1295.708008	1797.792236
3068.679202	5954.865500	1294.607422	1931.519287
3068.679202	5954.865500	1293.506836	1526.017944
3068.679202	5954.865500	1292.405273	1279.442261
3068.679202	5954.865500	1291.303711	1481.435791
3068.679202	5954.865500	1290.202148	1305.244995
3068.679202	5954.865500	1289.099609	1148.645508
3068.679202	5954.865500	1287.998047	1272.144775
3068.679202	5954.865500	1286.895508	1212.954956
3068.679202	5954.865500	1285.792969	765.276733
3068.679202	5954.865500	1284.689453	1017.203430
3068.679202	5954.865500	1283.586914	1061.927979
3068.679202	5954.865500	1282.483398	1223.117188
3068.679202	5954.865500	1281.379883	982.592224
3068.679202	5954.865500	1280.276367	844.403748
3068.679202	5954.865500	1279.171875	649.778870
3068.679202	5954.865500	1278.067383	795.619873
3068.679202	5954.865500	1276.962891	663.555603
3068.679202	5954.865500	1275.858398	725.023499
3068.679202	5954.865500	1274.753906	435.363373
3068.679202	5954.865500	1273.648438	379.940002
3068.679202	5954.865500	1272.542969	429.369385
3068.679202	5954.865500	1271.437500	450.049866
3068.679202	5954.865500	1270.331055	357.163177
3068.679202	5954.865500	1269.225586	109.017670
3068.679202	5954.865500	1268.119141	293.613770
3068.679202	5954.865500	1267.012695	307.921906
3068.679202	5954.865500	1265.906250	295.125549
3068.679202	5954.865500	1264.798828	-9.268465
3068.679202	5954.865500	1263.691406	157.123764
3068.679202	5954.865500	1262.583984	79.606781
3068.679202	5954.865500	1261.476563	-19.010956
3068.679202	5954.865500	1260.368164	6.867875
3068.679202	5954.865500	1259.260742	-133.396942
3068.679202	5954.865500	1258.152344	-13.032354
3068.679202	5954.865500	1257.043945	-200.163330
3068.679202	5954.865500	1255.934570	-87.660698
3068.679202	5954.865500	1254.825195	54.549477
3068.679202	5954.865500	1253.716797	219.356964
3068.679202	5954.865500	1252.606445	-81.564468
3068.679202	5954.865500	1251.497070	176.587646
3068.679202	5954.865500	1250.387695	83.477898
3068.679202	5954.865500	1249.277344	79.829979
3068.679202	5954.865500	1248.166992	121.084175
3068.679202	5954.865500	1247.055664	460.323792
3068.679202	5954.865500	1245.945313	123.456055
3068.679202	5954.865500	1244.833984	568.155640
3068.679202	5954.865500	1243.722656	607.967896
3068.679202	5954.865500	1242.611328	552.072266
3068.679202	5954.865500	1241.499023	760.767395
3068.679202	5954.865500	1240.387695	656.834595
3068.679202	5954.865500	1239.275391	764.191650
3068.679202	5954.865500	1238.162109	798.280212
3068.679202	5954.865500	1237.049805	995.208862
3068.679202	5954.865500	1235.936523	640.697021
3068.679202	5954.865500	1234.823242	885.253967
3068.679202	5954.865500	1233.709961	1000.207642
3068.679202	5954.865500	1232.596680	983.202515
3068.679202	5954.865500	1231.482422	1117.873901
3068.679202	5954.865500	1230.369141	1033.497681
3068.679202	5954.865500	1229.253906	874.000000
3068.679202	5954.865500	1228.139648	828.098877
3068.679202	5954.865500	1227.025391	971.754211
3068.679202	5954.865500	1225.910156	797.570313
3068.679202	5954.865500	1224.794922	786.056030
3068.679202	5954.865500	1223.679688	746.762024
3068.679202	5954.865500	1222.563477	759.343750
3068.679202	5954.865500	1221.447266	695.981567
3068.679202	5954.865500	1220.331055	485.490021
3068.679202	5954.865500	1219.214844	404.402191
3068.679202	5954.865500	1218.098633	201.223938
3068.679202	5954.865500	1216.981445	454.146027
3068.679202	5954.865500	1215.864258	221.458191
3068.679202	5954.865500	1214.747070	176.105743
3068.679202	5954.865500	1213.629883	25.578915
3068.679202	5954.865500	1212.511719	-5.866926
3068.679202	5954.865500	1211.393555	136.827408
3068.679202	5954.865500	1210.275391	-100.187630
3068.679202	5954.865500	1209.157227	-13.583851
3068.679202	5954.865500	1208.038086	69.476181
3068.679202	5954.865500	1206.918945	-91.358475
3068.679202	5954.865500	1205.799805	-154.499817
3068.679202	5954.865500	1204.680664	85.823776
3068.679202	5954.865500	1203.560547	-38.886204
3068.679202	5954.865500	1202.441406	-32.321800
3068.679202	5954.865500	1201.321289	-171.323868
3068.679202	5954.865500	1200.200195	-429.511444
3068.679202	5954.865500	1199.080078	-250.793182
3068.679202	5954.865500	1197.958984	-174.732727
3068.679202	5954.865500	1196.837891	-48.135796
3068.679202	5954.865500	1195.716797	158.863083
3068.679202	5954.865500	1194.594727	-35.025723
3068.679202	5954.865500	1193.473633	-80.165512
3068.679202	5954.865500	1192.351563	-34.612389
3068.679202	5954.865500	1191.229492	-144.960876
3068.679202	5954.865500	1190.106445	115.690666
3068.679202	5954.865500	1188.984375	-31.991308
3068.679202	5954.865500	1187.861328	-14.045644
3068.679202	5954.865500	1186.738281	10.204878
3068.679202	5954.865500	1185.614258	-298.517944
3068.679202	5954.865500	1184.491211	17.724403
3068.679202	5954.865500	1183.367188	-89.974556
3068.679202	5954.865500	1182.243164	-46.913830
3068.679202	5954.865500	1181.119141	49.194210
3068.679202	5954.865500	1179.994141	-73.171089
3068.679202	5954.865500	1178.869141	226.339996
3068.679202	5954.865500	1177.744141	-83.193848
3068.679202	5954.865500	1176.619141	303.349091
3068.679202	5954.865500	1175.493164	308.846313
3068.679202	5954.865500	1174.368164	425.277069
3068.679202	5954.865500	1173.242188	362.112488
3068.679202	5954.865500	1172.115234	712.919373
3068.679202	5954.865500	1170.989258	779.033081
3068.679202	5954.865500	1169.862305	784.656616
3068.679202	5954.865500	1168.735352	1314.734497
3068.679202	5954.865500	1167.608398	1096.078125
3068.679202	5954.865500	1166.481445	1140.117920
3068.679202	5954.865500	1165.353516	1004.345947
3068.679202	5954.865500	1164.225586	1197.154541
3068.679202	5954.865500	1163.097656	628.290649
3068.679202	5954.865500	1161.968750	641.220581
3068.679202	5954.865500	1160.840820	608.530090
3068.679202	5954.865500	1159.711914	433.281647
3068.679202	5954.865500	1158.583008	58.811653
3068.679202	5954.865500	1157.453125	24.490294
3068.679202	5954.865500	1156.324219	-1.824085
3068.679202	5954.865500	1155.194336	-79.634399
3068.679202	5954.865500	1154.064453	-132.494217
3068.679202	5954.865500	1152.933594	-7.166619
3068.679202	5954.865500	1151.803711	18.065407
3068.679202	5954.865500	1150.672852	-340.983734
3068.679202	5954.865500	1149.541992	-473.558319
3068.679202	5954.865500	1148.411133	-100.655159
3068.679202	5954.865500	1147.279297	-385.795715
3068.679202	5954.865500	1146.147461	32.875889
3068.679202	5954.865500	1145.015625	89.915672
3068.679202	5954.865500	1143.883789	-10.817529
3068.679202	5954.865500	1142.750977	-186.861359
3068.679202	5954.865500	1141.619141	427.955414
3068.679202	5954.865500	1140.486328	133.733734
3068.679202	5954.865500	1139.352539	-29.509811
3068.679202	5954.865500	1138.219727	-209.872360
3068.679202	5954.865500	1137.085938	-278.371124
3068.679202	5954.865500	1135.952148	-223.787201
3068.679202	5954.865500	1134.818359	-353.152100
3068.679202	5954.865500	1133.683594	-222.487061
3068.679202	5954.865500	1132.549805	-53.152916
3068.679202	5954.865500	1131.415039	52.413486
3068.679202	5954.865500	1130.279297	256.924316
3068.679202	5954.865500	1129.144531	359.058990
3068.679202	5954.865500	1128.008789	143.397263
3068.679202	5954.865500	1126.873047	368.985931
3068.679202	5954.865500	1125.737305	226.506622
3068.679202	5954.865500	1124.601563	62.209343
3068.679202	5954.865500	1123.464844	101.532364
3068.679202	5954.865500	1122.328125	111.128914
3068.679202	5954.865500	1121.191406	114.668999
3068.679202	5954.865500	1120.054688	511.906677
3068.679202	5954.865500	1118.916992	413.420197
3068.679202	5954.865500	1117.779297	54.996494
3068.679202	5954.865500	1116.641602	152.561615
3068.679202	5954.865500	1115.503906	59.313080
3068.679202	5954.865500	1114.365234	199.303055
3068.679202	5954.865500	1113.226563	20.522594
3068.679202	5954.865500	1112.087891	-59.666603
3068.679202	5954.865500	1110.949219	163.710495
3068.679202	5954.865500	1109.809570	-75.739998
3068.679202	5954.865500	1108.669922	-79.908844
3068.679202	5954.865500	1107.530273	255.901749
3068.679202	5954.865500	1106.390625	491.383728
3068.679202	5954.865500	1105.250000	69.667877
3068.679202	5954.865500	1104.109375	219.645691
3068.679202	5954.865500	1102.968750	103.073692
3068.679202	5954.865500	1101.828125	347.089294
3068.679202	5954.865500	1100.686523	558.834229
3068.679202	5954.865500	1099.544922	514.136658
3068.679202	5954.865500	1098.403320	907.149597
3068.679202	5954.865500	1097.261719	797.340759
3068.679202	5954.865500	1096.120117	761.462952
3068.679202	5954.865500	1094.977539	648.317139
3068.679202	5954.865500	1093.834961	1033.736572
3068.679202	5954.865500	1092.691406	640.529724
3068.679202	5954.865500	1091.548828	806.645020
3068.679202	5954.865500	1090.405273	920.432434
3068.679202	5954.865500	1089.261719	415.988037
3068.679202	5954.865500	1088.118164	413.199738
3068.679202	5954.865500	1086.973633	809.941284
3068.679202	5954.865500	1085.829102	936.698181
3068.679202	5954.865500	1084.684570	537.237366
3068.679202	5954.865500	1083.540039	608.780823
3068.679202	5954.865500	1082.395508	624.935303
3068.679202	5954.865500	1081.250000	802.390015
3068.679202	5954.865500	1080.104492	567.752930
3068.679202	5954.865500	1078.958984	649.119202
3068.679202	5954.865500	1077.812500	701.290771
3068.679202	5954.865500	1076.666016	726.696716
3068.679202	5954.865500	1075.519531	913.781921
3068.679202	5954.865500	1074.373047	1040.684814
3068.679202	5954.865500	1073.226563	924.957581
3068.679202	5954.865500	1072.079102	1315.871826
3068.679202	5954.865500	1070.931641	1106.401123
3068.679202	5954.865500	1069.784180	1114.896729
3068.679202	5954.865500	1068.635742	1156.760376
3068.679202	5954.865500	1067.487305	1310.792603
3068.679202	5954.865500	1066.338867	1199.803833
3068.679202	5954.865500	1065.190430	972.965881
3068.679202	5954.865500	1064.041992	1058.630249
3068.679202	5954.865500	1062.892578	1001.676086
3068.679202	5954.865500	1061.743164	1146.872192
3068.679202	5954.865500	1060.593750	829.808289
3068.679202	5954.865500	1059.443359	788.152283
3068.679202	5954.865500	1058.292969	442.103210
3068.679202	5954.865500	1057.142578	438.778534
3068.679202	5954.865500	1055.992188	264.315063
3068.679202	5954.865500	1054.841797	219.925980
3068.679202	5954.865500	1053.690430	178.811066
3068.679202	5954.865500	1052.539063	386.688538
3068.679202	5954.865500	1051.387695	87.545052
3068.679202	5954.865500	1050.235352	118.999695
3068.679202	5954.865500	1049.083984	324.363953
3068.679202	5954.865500	1047.931641	193.127472
3068.679202	5954.865500	1046.778320	-181.227615
3068.679202	5954.865500	1045.625977	147.609787
3068.679202	5954.865500	1044.472656	228.629898
3068.679202	5954.865500	1043.319336	551.672302
3068.679202	5954.865500	1042.166016	103.968025
3068.679202	5954.865500	1041.012695	387.238434
3068.679202	5954.865500	1039.858398	348.780396
3068.679202	5954.865500	1038.704102	364.124084
3068.679202	5954.865500	1037.549805	631.883484
3068.679202	5954.865500	1036.394531	352.222046
3068.679202	5954.865500	1035.239258	696.157043
3068.679202	5954.865500	1034.083984	550.355347
3068.679202	5954.865500	1032.928711	927.686890
3068.679202	5954.865500	1031.773438	858.068542
3068.679202	5954.865500	1030.617188	389.494904
3068.679202	5954.865500	1029.460938	458.355591
3068.679202	5954.865500	1028.304688	455.007050
3068.679202	5954.865500	1027.147461	820.673645
3068.679202	5954.865500	1025.991211	1011.981689
3068.679202	5954.865500	1024.833984	1151.382690
3068.679202	5954.865500	1023.675781	907.861389
3068.679202	5954.865500	1022.518555	1244.367798
3068.679202	5954.865500	1021.360352	1089.117798
3068.679202	5954.865500	1020.202148	1282.069580
3068.679202	5954.865500	1019.043945	871.470398
3068.679202	5954.865500	1017.884766	1119.746216
3068.679202	5954.865500	1016.726563	782.720398
3068.679202	5954.865500	1015.567383	893.489685
3068.679202	5954.865500	1014.407227	816.179626
3068.679202	5954.865500	1013.248047	1332.511597
3068.679202	5954.865500	1012.087891	1196.030273
3068.679202	5954.865500	1010.927734	1544.807007
3068.679202	5954.865500	1009.767578	1618.558105
3068.679202	5954.865500	1008.606445	1440.731323
3068.679202	5954.865500	1007.446289	1834.353271
3068.679202	5954.865500	1006.285156	1957.036621
3068.679202	5954.865500	1005.123047	1841.711914
3068.679202	5954.865500	1003.961914	2130.633789
3068.679202	5954.865500	1002.799805	1941.210205
3068.679202	5954.865500	1001.637695	2255.815918
3068.679202	5954.865500	1000.475586	1902.788086
3068.679202	5954.865500	999.312500	1938.102539
3068.679202	5954.865500	998.149414	1772.876343
3068.679202	5954.865500	996.986328	1589.363037
3068.679202	5954.865500	995.823242	1359.853516
3068.679202	5954.865500	994.659180	791.162537
3068.679202	5954.865500	993.496094	1034.427246
3068.679202	5954.865500	992.332031	1111.829834
3068.679202	5954.865500	991.166992	1151.484985
3068.679202	5954.865500	990.002930	1527.593628
3068.679202	5954.865500	988.837891	1402.071289
3068.679202	5954.865500	987.672852	844.236206
3068.679202	5954.865500	986.506836	899.261353
3068.679202	5954.865500	985.341797	647.013428
3068.679202	5954.865500	984.175781	499.760010
3068.679202	5954.865500	983.009766	924.515564
3068.679202	5954.865500	981.843750	796.534058
3068.679202	5954.865500	980.676758	657.579224
3068.679202	5954.865500	979.509766	528.070618
3068.679202	5954.865500	978.342773	352.273743
3068.679202	5954.865500	977.175781	814.003235
3068.679202	5954.865500	976.007813	378.414764
3068.679202	5954.865500	974.839844	322.379791
3068.679202	5954.865500	973.671875	628.878845
3068.679202	5954.865500	972.503906	605.544861
3068.679202	5954.865500	971.334961	438.409912
3068.679202	5954.865500	970.166016	499.064911
3068.679202	5954.865500	968.997070	140.763901
3068.679202	5954.865500	967.828125	125.210175
3068.679202	5954.865500	966.658203	504.523132
3068.679202	5954.865500	965.488281	640.370544
3068.679202	5954.865500	964.318359	348.850250
3068.679202	5954.865500	963.148438	479.292572
3068.679202	5954.865500	961.977539	637.390503
3068.679202	5954.865500	960.806641	504.267609
3068.679202	5954.865500	959.635742	414.670166
3068.679202	5954.865500	958.463867	445.531097
3068.679202	5954.865500	957.292969	640.237244
3068.679202	5954.865500	956.121094	476.900024
3068.679202	5954.865500	954.948242	-50.230732
3068.679202	5954.865500	953.776367	235.490570
3068.679202	5954.865500	952.603516	384.830780
3068.679202	5954.865500	951.430664	174.668533
3068.679202	5954.865500	950.257813	506.949493
3068.679202	5954.865500	949.084961	519.121216
3068.679202	5954.865500	947.911133	749.916138
3068.679202	5954.865500	946.737305	494.871765
3068.679202	5954.865500	945.563477	640.812622
3068.679202	5954.865500	944.388672	391.287170
3068.679202	5954.865500	943.213867	649.487610
3068.679202	5954.865500	942.039063	525.386902
3068.679202	5954.865500	940.864258	413.473663
3068.679202	5954.865500	939.688477	405.020569
3068.679202	5954.865500	938.513672	528.182495
3068.679202	5954.865500	937.337891	334.398712
3068.679202	5954.865500	936.161133	626.747375
3068.679202	5954.865500	934.985352	752.350891
3068.679202	5954.865500	933.808594	711.546265
3068.679202	5954.865500	932.631836	1276.001465
3068.679202	5954.865500	931.454102	1209.953125
3068.679202	5954.865500	930.277344	1331.579102
3068.679202	5954.865500	929.099609	1180.381714
3068.679202	5954.865500	927.921875	1185.880859
3068.679202	5954.865500	926.743164	893.428040
3068.679202	5954.865500	925.565430	1287.383545
3068.679202	5954.865500	924.386719	1624.676636
3068.679202	5954.865500	923.208008	862.114563
3068.679202	5954.865500	922.028320	729.343384
3068.679202	5954.865500	920.849609	643.509460
3068.679202	5954.865500	919.669922	647.132935
3068.679202	5954.865500	919.474609	752.334717
3068.679202	5954.865500	918.309570	456.530518
3068.679202	5954.865500	917.143555	614.581299
3068.679202	5954.865500	915.977539	450.158234
3068.679202	5954.865500	914.810547	535.998413
3068.679202	5954.865500	913.644531	471.563599
3068.679202	5954.865500	912.477539	338.267303
3068.679202	5954.865500	911.310547	464.448853
3068.679202	5954.865500	910.143555	512.340881
3068.679202	5954.865500	908.975586	372.607880
3068.679202	5954.865500	907.807617	382.835510
3068.679202	5954.865500	906.639648	-113.130386
3068.679202	5954.865500	905.471680	209.384140
3068.679202	5954.865500	904.303711	7.047183
3068.679202	5954.865500	903.134766	45.132248
3068.679202	5954.865500	901.965820	173.654953
3068.679202	5954.865500	900.796875	108.554848
3068.679202	5954.865500	899.626953	-9.631105
3068.679202	5954.865500	898.457031	6.310127
3068.679202	5954.865500	897.287109	-186.797195
3068.679202	5954.865500	896.117188	-192.785080
3068.679202	5954.865500	894.947266	577.494934
3068.679202	5954.865500	893.776367	84.962303
3068.679202	5954.865500	892.605469	552.455261
3068.679202	5954.865500	891.434570	779.780396
3068.679202	5954.865500	890.262695	545.907776
3068.679202	5954.865500	889.091797	333.877533
3068.679202	5954.865500	887.919922	520.471558
3068.679202	5954.865500	886.748047	439.194305
3068.679202	5954.865500	885.575195	438.835846
3068.679202	5954.865500	884.403320	556.690491
3068.679202	5954.865500	883.230469	416.205811
3068.679202	5954.865500	882.057617	110.866692
3068.679202	5954.865500	880.883789	269.025635
3068.679202	5954.865500	879.710938	184.539566
3068.679202	5954.865500	878.537109	218.189697
3068.679202	5954.865500	877.362305	230.034286
3068.679202	5954.865500	876.188477	8.772219
3068.679202	5954.865500	875.013672	203.901245
3068.679202	5954.865500	873.839844	103.819534
3068.679202	5954.865500	872.664063	460.291229
3068.679202	5954.865500	871.489258	-124.245415
3068.679202	5954.865500	870.313477	89.271576
3068.679202	5954.865500	869.138672	519.941589
3068.679202	5954.865500	867.962891	16.363600
3068.679202	5954.865500	866.786133	260.681580
3068.679202	5954.865500	865.610352	228.811417
3068.679202	5954.865500	864.433594	283.771790
3068.679202	5954.865500	863.256836	6.928525
3068.679202	5954.865500	862.079102	21.582640
3068.679202	5954.865500	860.902344	253.171463
3068.679202	5954.865500	859.724609	397.889282
3068.679202	5954.865500	858.546875	381.437805
3068.679202	5954.865500	857.368164	145.065155
3068.679202	5954.865500	856.190430	23.364908
3068.679202	5954.865500	855.011719	211.322174
3068.679202	5954.865500	853.833008	129.888626
3068.679202	5954.865500	852.654297	33.006847
3068.679202	5954.865500	851.474609	22.803715
3068.679202	5954.865500	850.294922	-222.515274
3068.679202	5954.865500	849.115234	-3.784948
3068.679202	5954.865500	847.935547	-60.363609
3068.679202	5954.865500	846.754883	-123.101044
3068.679202	5954.865500	845.575195	-9.618774
3068.679202	5954.865500	844.393555	-131.052292
3068.679202	5954.865500	843.212891	-48.506351
3068.679202	5954.865500	842.032227	-43.219513
3068.679202	5954.865500	840.850586	-108.963570
3068.679202	5954.865500	839.668945	-183.935654
3068.679202	5954.865500	838.486328	-255.784531
3068.679202	5954.865500	837.304688	175.528122
3068.679202	5954.865500	836.122070	-115.452400
3068.679202	5954.865500	834.939453	-289.058136
3068.679202	5954.865500	833.756836	-154.110641
3068.679202	5954.865500	832.573242	-293.688507
3068.679202	5954.865500	831.389648	-158.770355
3068.679202	5954.865500	830.206055	-252.023544
3068.679202	5954.865500	829.022461	-92.484612
3068.679202	5954.865500	827.838867	-56.262352
3068.679202	5954.865500	826.654297	-57.007717
3068.679202	5954.865500	825.469727	327.294556
3068.679202	5954.865500	824.284180	212.554062
3068.679202	5954.865500	823.099609	48.611202
3068.679202	5954.865500	821.914063	-253.773987
3068.679202	5954.865500	820.728516	-319.031708
3068.679202	5954.865500	819.542969	-159.616745
3068.679202	5954.865500	818.356445	332.009308
3068.679202	5954.865500	817.169922	85.250053
3068.679202	5954.865500	815.983398	-219.818100
3068.679202	5954.865500	814.796875	-131.198868
3068.679202	5954.865500	813.609375	-322.324615
3068.679202	5954.865500	812.422852	-3.185604
3068.679202	5954.865500	811.235352	-255.674133
3068.679202	5954.865500	810.046875	-176.260818
3068.679202	5954.865500	808.859375	-121.434113
3068.679202	5954.865500	807.670898	-11.336354
3068.679202	5954.865500	806.482422	-30.210863
3068.679202	5954.865500	805.293945	-73.614357
3068.679202	5954.865500	804.104492	214.456192
3068.679202	5954.865500	802.915039	-298.379395
3068.679202	5954.865500	801.725586	78.613045
3068.679202	5954.865500	800.536133	-197.791275
3068.679202	5954.865500	799.345703	310.914490
3068.679202	5954.865500	798.155273	-5.239879
3068.679202	5954.865500	796.964844	-76.043770
3068.679202	5954.865500	795.774414	-122.286583
3068.679202	5954.865500	794.583008	67.419319
3068.679202	5954.865500	793.392578	-40.063820
3068.679202	5954.865500	792.200195	262.890533
3068.679202	5954.865500	791.008789	-37.454441
3068.679202	5954.865500	789.816406	344.997162
3068.679202	5954.865500	788.625000	90.697144
3068.679202	5954.865500	787.432617	277.153564
3068.679202	5954.865500	786.239258	120.902893
3068.679202	5954.865500	785.046875	19.781620
3068.679202	5954.865500	783.853516	420.241058
3068.679202	5954.865500	782.660156	7.267380
3068.679202	5954.865500	781.465820	156.927689
3068.679202	5954.865500	780.272461	68.151962
3068.679202	5954.865500	779.078125	300.254761
3068.679202	5954.865500	777.883789	-167.301361
3068.679202	5954.865500	776.688477	64.771324
3068.679202	5954.865500	775.494141	-295.652100
3068.679202	5954.865500	774.298828	-167.440750
3068.679202	5954.865500	773.103516	116.391266
3068.679202	5954.865500	771.907227	189.541672
3068.679202	5954.865500	770.711914	412.166656
3068.679202	5954.865500	769.515625	192.385300
3068.679202	5954.865500	768.318359	292.928925
3068.679202	5954.865500	767.122070	414.772034
3068.679202	5954.865500	765.924805	161.592178
3068.679202	5954.865500	764.727539	149.298798
3068.679202	5954.865500	763.530273	322.890717
3068.679202	5954.865500	762.333008	365.397980
3068.679202	5954.865500	761.134766	-3.327715
3068.679202	5954.865500	759.936523	5.716777
3068.679202	5954.865500	758.738281	127.405128
3068.679202	5954.865500	757.540039	635.632507
3068.679202	5954.865500	756.340820	486.246552
3068.679202	5954.865500	755.141602	555.994507
3068.679202	5954.865500	753.942383	628.740173
3068.679202	5954.865500	752.742188	354.700195
3068.679202	5954.865500	751.541992	223.680389
3068.679202	5954.865500	750.341797	512.257324
3068.679202	5954.865500	749.141602	639.591614
3068.679202	5954.865500	747.941406	779.003906
3068.679202	5954.865500	746.740234	994.296814
3068.679202	5954.865500	745.539063	465.219177
3068.679202	5954.865500	744.337891	224.863235
3068.679202	5954.865500	743.135742	327.705139
3068.679202	5954.865500	741.933594	72.239952
3068.679202	5954.865500	740.731445	256.956238
3068.679202	5954.865500	739.529297	429.424591
3068.679202	5954.865500	738.326172	313.558411
3068.679202	5954.865500	737.124023	194.668182
3068.679202	5954.865500	735.919922	551.925354
3068.679202	5954.865500	734.716797	627.006409
3068.679202	5954.865500	733.513672	768.705627
3068.679202	5954.865500	732.309570	983.039795
3068.679202	5954.865500	731.105469	1169.966797
3068.679202	5954.865500	729.900391	1768.784668
3068.679202	5954.865500	728.696289	1470.743652
3068.679202	5954.865500	727.491211	1351.442993
3068.679202	5954.865500	726.286133	1235.165283
3068.679202	5954.865500	725.080078	1146.124023
3068.679202	5954.865500	723.874023	1144.824341
3068.679202	5954.865500	722.668945	1113.207031
3068.679202	5954.865500	721.461914	993.814941
3068.679202	5954.865500	720.255859	435.857178
3068.679202	5954.865500	719.048828	885.004700
3068.679202	5954.865500	717.841797	662.745239
3068.679202	5954.865500	716.634766	425.395050
3068.679202	5954.865500	715.427734	623.229553
3068.679202	5954.865500	714.219727	823.928589
3068.679202	5954.865500	713.011719	716.356995
3068.679202	5954.865500	711.803711	536.270508
3068.679202	5954.865500	710.594727	359.196442
3068.679202	5954.865500	709.385742	607.763489
3068.679202	5954.865500	708.176758	376.252716
3068.679202	5954.865500	706.967773	636.607483
3068.679202	5954.865500	705.758789	39.970184
3068.679202	5954.865500	704.548828	339.315094
3068.679202	5954.865500	703.338867	511.784790
3068.679202	5954.865500	702.127930	467.007660
3068.679202	5954.865500	700.917969	642.199219
3068.679202	5954.865500	699.707031	57.758862
3068.679202	5954.865500	698.496094	350.268890
3068.679202	5954.865500	697.285156	398.543671
3068.679202	5954.865500	696.073242	332.240448
3068.679202	5954.865500	694.861328	714.521912
3068.679202	5954.865500	693.649414	551.622375
3068.679202	5954.865500	692.436523	1011.730103
3068.679202	5954.865500	691.224609	580.782654
3068.679202	5954.865500	690.011719	778.705444
3068.679202	5954.865500	688.798828	681.638123
3068.679202	5954.865500	687.584961	548.401367
3068.679202	5954.865500	686.372070	760.875122
3068.679202	5954.865500	685.158203	888.960510
3068.679202	5954.865500	683.943359	1037.899292
3068.679202	5954.865500	682.729492	997.343506
3068.679202	5954.865500	681.514648	1010.744446
3068.679202	5954.865500	680.299805	1144.150879
3068.679202	5954.865500	679.084961	1145.232788
3068.679202	5954.865500	677.869141	993.058044
3068.679202	5954.865500	676.653320	981.884766
3068.679202	5954.865500	675.437500	1273.679932
3068.679202	5954.865500	674.221680	920.117310
3068.679202	5954.865500	673.004883	1016.524414
3068.679202	5954.865500	671.789063	1232.711548
3068.679202	5954.865500	670.571289	1253.748169
3068.679202	5954.865500	669.354492	1409.531860
3068.679202	5954.865500	668.136719	1241.386963
3068.679202	5954.865500	666.919922	1690.468262
3068.679202	5954.865500	665.701172	1276.348022
3068.679202	5954.865500	664.483398	1257.634277
3068.679202	5954.865500	663.264648	1463.369141
3068.679202	5954.865500	662.045898	884.398193
3068.679202	5954.865500	660.827148	748.542114
3068.679202	5954.865500	659.608398	1091.432129
3068.679202	5954.865500	658.388672	1206.597534
3068.679202	5954.865500	657.168945	1031.361206
3068.679202	5954.865500	655.949219	1053.430786
3068.679202	5954.865500	654.728516	1479.005127
3068.679202	5954.865500	653.507813	1665.052124
3068.679202	5954.865500	652.287109	1632.642578
3068.679202	5954.865500	651.066406	1346.054565
3068.679202	5954.865500	649.844727	1627.084229
3068.679202	5954.865500	648.623047	1382.073242
3068.679202	5954.865500	647.401367	889.104431
3068.679202	5954.865500	646.179688	1247.141235
3068.679202	5954.865500	644.957031	1180.928955
3068.679202	5954.865500	643.734375	1684.626099
3068.679202	5954.865500	642.511719	1062.952393
3068.679202	5954.865500	641.289063	1061.897095
3068.679202	5954.865500	640.065430	923.439209
3068.679202	5954.865500	638.841797	1232.167847
3068.679202	5954.865500	637.618164	968.130981
3068.679202	5954.865500	636.393555	984.207642
3068.679202	5954.865500	635.168945	1032.866577
3068.679202	5954.865500	633.944336	1012.780762
3068.679202	5954.865500	632.719727	1376.793335
3068.679202	5954.865500	631.494141	1141.806396
3068.679202	5954.865500	630.269531	1040.728638
3068.679202	5954.865500	629.042969	778.718445
3068.679202	5954.865500	627.817383	1296.454224
3068.679202	5954.865500	626.590820	1340.613525
3068.679202	5954.865500	625.365234	1090.022217
3068.679202	5954.865500	624.137695	1374.739502
3068.679202	5954.865500	622.911133	1058.414673
3068.679202	5954.865500	621.683594	1256.392090
3068.679202	5954.865500	620.456055	1076.560791
3068.679202	5954.865500	619.228516	745.031982
3068.679202	5954.865500	618.000977	1497.999023
3068.679202	5954.865500	616.772461	1127.491821
3068.679202	5954.865500	615.543945	869.806519
3068.679202	5954.865500	614.314453	793.158203
3068.679202	5954.865500	613.085938	754.949036
3068.679202	5954.865500	611.856445	348.484161
3068.679202	5954.865500	610.626953	523.640686
3068.679202	5954.865500	609.397461	565.010864
3068.679202	5954.865500	608.166992	493.430420
3068.679202	5954.865500	606.936523	845.779175
3068.679202	5954.865500	605.706055	530.635864
3068.679202	5954.865500	604.474609	185.773514
3068.679202	5954.865500	603.244141	442.526825
3068.679202	5954.865500	602.012695	236.704926
3068.679202	5954.865500	600.780273	803.989868
3068.679202	5954.865500	599.548828	547.434265
3068.679202	5954.865500	598.316406	536.567200
3068.679202	5954.865500	597.083984	102.137421
3068.679202	5954.865500	595.851563	490.589355
3068.679202	5954.865500	594.618164	345.980591
3068.679202	5954.865500	593.384766	221.953033
3068.679202	5954.865500	592.151367	254.568573
3068.679202	5954.865500	590.917969	171.641113
3068.679202	5954.865500	589.683594	227.522903
3068.679202	5954.865500	588.449219	-39.035934
3068.679202	5954.865500	587.214844	40.142036
3068.679202	5954.865500	585.979492	201.830688
3068.679202	5954.865500	584.745117	239.200195
3068.679202	5954.865500	583.509766	367.927460
3068.679202	5954.865500	582.273438	452.111664
3068.679202	5954.865500	581.038086	270.375183
3068.679202	5954.865500	579.801758	256.782990
3068.679202	5954.865500	578.565430	508.635742
3068.679202	5954.865500	577.329102	285.168091
3068.679202	5954.865500	576.091797	194.360428
3068.679202	5954.865500	574.854492	-2.749636
3068.679202	5954.865500	573.617188	148.010223
3068.679202	5954.865500	572.378906	490.153473
3068.679202	5954.865500	571.141602	401.680054
3068.679202	5954.865500	569.903320	787.512878
3068.679202	5954.865500	568.664063	398.164154
3068.679202	5954.865500	567.425781	804.148254
3068.679202	5954.865500	566.186523	650.258850
3068.679202	5954.865500	564.947266	216.581802
3068.679202	5954.865500	563.708008	398.172852
3068.679202	5954.865500	562.467773	417.666229
3068.679202	5954.865500	561.227539	339.914032
3068.679202	5954.865500	559.987305	503.288574
3068.679202	5954.865500	558.747070	69.408226
3068.679202	5954.865500	557.505859	279.547760
3068.679202	5954.865500	556.264648	33.786507
3068.679202	5954.865500	555.023438	-12.118275
3068.679202	5954.865500	553.781250	-263.843079
3068.679202	5954.865500	552.539063	-77.810097
3068.679202	5954.865500	551.296875	-74.084137
3068.679202	5954.865500	550.054688	-49.909630
3068.679202	5954.865500	548.811523	88.642303
3068.679202	5954.865500	547.569336	-48.882557
3068.679202	5954.865500	546.325195	-121.912010
3068.679202	5954.865500	545.082031	221.676819
3068.679202	5954.865500	543.837891	494.605103
3068.679202	5954.865500	542.593750	268.727051
3068.679202	5954.865500	541.349609	649.861084
3068.679202	5954.865500	540.105469	403.364746
3068.679202	5954.865500	538.860352	552.582764
3068.679202	5954.865500	537.615234	118.504593
3068.679202	5954.865500	536.369141	135.726959
3068.679202	5954.865500	535.124023	217.342133
3068.679202	5954.865500	533.877930	178.773911
3068.679202	5954.865500	532.631836	605.717041
3068.679202	5954.865500	531.384766	177.631653
3068.679202	5954.865500	530.138672	396.502869
3068.679202	5954.865500	528.891602	18.305202
3068.679202	5954.865500	527.643555	-181.330185
3068.679202	5954.865500	526.396484	98.775520
3068.679202	5954.865500	525.148438	-279.225586
3068.679202	5954.865500	523.900391	-332.571960
3068.679202	5954.865500	522.652344	-394.683075
3068.679202	5954.865500	521.403320	-424.651611
3068.679202	5954.865500	520.154297	-267.628143
3068.679202	5954.865500	518.905273	-364.809387
3068.679202	5954.865500	517.656250	-464.870758
3068.679202	5954.865500	516.406250	-270.000519
3068.679202	5954.865500	515.156250	-142.349304
3068.679202	5954.865500	513.906250	116.595039
3068.679202	5954.865500	512.655273	-27.244465
3068.679202	5954.865500	511.404297	161.569382
3068.679202	5954.865500	510.153320	79.077972
3068.679202	5954.865500	508.902344	203.689835
3068.679202	5954.865500	507.650391	278.704926
3068.679202	5954.865500	506.398438	-71.834290
3068.679202	5954.865500	505.146484	128.595840
3068.679202	5954.865500	503.893555	-297.441071
3068.679202	5954.865500	502.641602	-201.817871
3068.679202	5954.865500	501.388672	-315.880188
3068.679202	5954.865500	500.134766	-19.309517
3068.679202	5954.865500	498.881836	160.772720
3068.679202	5954.865500	497.627930	-107.377388
3068.679202	5954.865500	496.374023	-311.325653
3068.679202	5954.865500	495.119141	-262.031982
3068.679202	5954.865500	493.865234	-363.911560
3068.679202	5954.865500	492.610352	-110.919060
3068.679202	5954.865500	491.355469	-163.214706
3068.679202	5954.865500	490.099609	-142.750626
3068.679202	5954.865500	488.843750	-177.417862
3068.679202	5954.865500	487.587891	151.196716
3068.679202	5954.865500	486.332031	166.049057
3068.679202	5954.865500	485.075195	201.309921
3068.679202	5954.865500	483.818359	1.470228
3068.679202	5954.865500	482.561523	495.614441
3068.679202	5954.865500	481.304688	533.994812
3068.679202	5954.865500	480.046875	456.387329
3068.679202	5954.865500	478.789063	465.953796
3068.679202	5954.865500	477.531250	513.332703
3068.679202	5954.865500	476.272461	323.012634
3068.679202	5954.865500	475.013672	506.877289
3068.679202	5954.865500	473.754883	-30.949141
3068.679202	5954.865500	472.496094	364.694489
3068.679202	5954.865500	471.236328	232.968201
3068.679202	5954.865500	469.976563	107.213417
3068.679202	5954.865500	468.716797	418.930420
3068.679202	5954.865500	467.456055	342.636261
3068.679202	5954.865500	466.196289	321.511658
3068.679202	5954.865500	464.935547	71.863647
3068.679202	5954.865500	463.673828	282.496521
3068.679202	5954.865500	462.413086	232.810181
3068.679202	5954.865500	461.151367	443.552917
3068.679202	5954.865500	459.889648	-135.096939
3068.679202	5954.865500	458.626953	217.509140
3068.679202	5954.865500	457.364258	616.320129
3068.679202	5954.865500	456.101563	185.704483
3068.679202	5954.865500	454.838867	743.467834
3068.679202	5954.865500	453.575195	477.851532
3068.679202	5954.865500	452.312500	481.038483
3068.679202	5954.865500	451.047852	686.399353
3068.679202	5954.865500	449.784180	236.508087
3068.679202	5954.865500	448.519531	277.507629
3068.679202	5954.865500	447.254883	364.735809
3068.679202	5954.865500	445.990234	-93.219383
3068.679202	5954.865500	444.725586	144.173035
3068.679202	5954.865500	443.459961	-56.785877
3068.679202	5954.865500	442.194336	171.952484
3068.679202	5954.865500	440.927734	268.039886
3068.679202	5954.865500	439.662109	208.530441
3068.679202	5954.865500	438.395508	223.972580
3068.679202	5954.865500	437.127930	613.868958
3068.679202	5954.865500	435.861328	479.502441
3068.679202	5954.865500	434.593750	687.804688
3068.679202	5954.865500	433.326172	363.478485
3068.679202	5954.865500	432.058594	583.198059
3068.679202	5954.865500	430.790039	627.263062
3068.679202	5954.865500	429.521484	935.917603
3068.679202	5954.865500	428.252930	585.767456
3068.679202	5954.865500	426.984375	428.351501
3068.679202	5954.865500	425.714844	426.142456
3068.679202	5954.865500	424.445313	484.190399
3068.679202	5954.865500	423.174805	309.323883
3068.679202	5954.865500	421.905273	335.518616
3068.679202	5954.865500	420.634766	611.426697
3068.679202	5954.865500	419.364258	608.489990
3068.679202	5954.865500	418.092773	553.674255
3068.679202	5954.865500	416.822266	527.390564
3068.679202	5954.865500	415.550781	268.419525
3068.679202	5954.865500	414.278320	344.991150
3068.679202	5954.865500	413.006836	134.411484
3068.679202	5954.865500	411.734375	629.125427
3068.679202	5954.865500	410.461914	466.685333
3068.679202	5954.865500	409.188477	410.022003
3068.679202	5954.865500	407.916016	479.131104
3068.679202	5954.865500	406.642578	831.475281
3068.679202	5954.865500	405.368164	882.412415
3068.679202	5954.865500	404.094727	738.118652
3068.679202	5954.865500	402.820313	412.977356
3068.679202	5954.865500	401.545898	605.654968
3068.679202	5954.865500	400.270508	382.637238
3068.679202	5954.865500	398.996094	800.173218
3068.679202	5954.865500	397.720703	824.918091
3068.679202	5954.865500	396.444336	88.086868
3068.679202	5954.865500	395.168945	520.584229
3068.679202	5954.865500	393.892578	371.714996
3068.679202	5954.865500	392.616211	179.257690
3068.679202	5954.865500	391.339844	14.652410
3068.679202	5954.865500	390.062500	89.257645
3068.679202	5954.865500	388.785156	-74.177666
3068.679202	5954.865500	387.507813	-138.524017
3068.679202	5954.865500	386.229492	-112.479919
3068.679202	5954.865500	384.951172	212.275635
3068.679202	5954.865500	383.672852	-106.409424
3068.679202	5954.865500	382.394531	-52.268654
3068.679202	5954.865500	381.115234	29.160158
3068.679202	5954.865500	379.835938	625.593689
3068.679202	5954.865500	378.556641	239.450073
3068.679202	5954.865500	377.277344	513.587280
3068.679202	5954.865500	375.997070	193.242279
3068.679202	5954.865500	374.716797	14.053005
3068.679202	5954.865500	373.435547	-126.741417
3068.679202	5954.865500	372.155273	-226.317032
3068.679202	5954.865500	370.874023	130.985748
3068.679202	5954.865500	369.591797	383.848724
3068.679202	5954.865500	368.310547	236.271820
3068.679202	5954.865500	367.028320	368.616180
3068.679202	5954.865500	365.746094	447.728394
3068.679202	5954.865500	364.463867	240.280762
3068.679202	5954.865500	363.180664	-213.843658
3068.679202	5954.865500	361.897461	-52.864296
3068.679202	5954.865500	360.614258	3.422224
3068.679202	5954.865500	359.330078	-47.887775
3068.679202	5954.865500	358.045898	-30.567905
3068.679202	5954.865500	356.761719	-4.417252
3068.679202	5954.865500	355.477539	-20.664783
3068.679202	5954.865500	354.192383	-65.228767
3068.679202	5954.865500	352.907227	26.549255
3068.679202	5954.865500	351.622070	265.839691
3068.679202	5954.865500	350.336914	47.920044
3068.679202	5954.865500	349.050781	-297.925629
3068.679202	5954.865500	347.764648	45.378021
3068.679202	5954.865500	346.477539	-142.410583
3068.679202	5954.865500	345.191406	-35.727726
3068.679202	5954.865500	343.904297	-199.201584
3068.679202	5954.865500	342.616211	-46.048656
3068.679202	5954.865500	341.329102	-151.705063
3068.679202	5954.865500	340.041016	268.516327
3068.679202	5954.865500	338.752930	30.203775
3068.679202	5954.865500	337.463867	399.461548
3068.679202	5954.865500	336.175781	144.303574
3068.679202	5954.865500	334.886719	309.363556
3068.679202	5954.865500	333.596680	591.393433
3068.679202	5954.865500	332.307617	237.734421
3068.679202	5954.865500	331.017578	167.842163
3068.679202	5954.865500	329.727539	138.253403
3068.679202	5954.865500	328.436523	126.057518
3068.679202	5954.865500	327.146484	216.131912
3068.679202	5954.865500	325.855469	-482.302185
3068.679202	5954.865500	324.563477	-194.300690
3068.679202	5954.865500	323.272461	175.526108
3068.679202	5954.865500	321.980469	25.063293
3068.679202	5954.865500	320.688477	-26.943619
3068.679202	5954.865500	319.395508	-218.039825
3068.679202	5954.865500	318.103516	27.814947
3068.679202	5954.865500	316.810547	292.182983
3068.679202	5954.865500	315.516602	-68.445282
3068.679202	5954.865500	314.223633	7.115679
3068.679202	5954.865500	312.929688	-124.959625
3068.679202	5954.865500	311.635742	-546.338806
3068.679202	5954.865500	310.340820	-2.750194
3068.679202	5954.865500	309.045898	-109.810135
3068.679202	5954.865500	307.750977	-13.504074
3068.679202	5954.865500	306.456055	66.076897
3068.679202	5954.865500	305.160156	196.116409
3068.679202	5954.865500	303.865234	289.474121
3068.679202	5954.865500	302.568359	474.804230
3068.679202	5954.865500	301.272461	136.044342
3068.679202	5954.865500	299.975586	395.671844
3068.679202	5954.865500	298.678711	369.842102
