#X		#Y		#Wave		#Intensity
2927.074149	5603.299833	1999.980469	-34.186878
2927.074149	5603.299833	1999.016602	84.529701
2927.074149	5603.299833	1998.052734	-103.489151
2927.074149	5603.299833	1997.087891	-90.866074
2927.074149	5603.299833	1996.123047	23.186228
2927.074149	5603.299833	1995.158203	139.527374
2927.074149	5603.299833	1994.193359	30.301035
2927.074149	5603.299833	1993.228516	-31.968443
2927.074149	5603.299833	1992.262695	-59.680492
2927.074149	5603.299833	1991.297852	-35.523380
2927.074149	5603.299833	1990.332031	-164.936813
2927.074149	5603.299833	1989.366211	-86.559235
2927.074149	5603.299833	1988.399414	33.739208
2927.074149	5603.299833	1987.433594	116.788239
2927.074149	5603.299833	1986.466797	-15.448964
2927.074149	5603.299833	1985.500977	-6.790968
2927.074149	5603.299833	1984.534180	214.381012
2927.074149	5603.299833	1983.567383	279.670624
2927.074149	5603.299833	1982.599609	-23.358004
2927.074149	5603.299833	1981.632813	73.917175
2927.074149	5603.299833	1980.665039	-1.838312
2927.074149	5603.299833	1979.697266	129.836456
2927.074149	5603.299833	1978.729492	73.723763
2927.074149	5603.299833	1977.761719	143.488525
2927.074149	5603.299833	1976.792969	124.306114
2927.074149	5603.299833	1975.825195	28.570187
2927.074149	5603.299833	1974.856445	186.980011
2927.074149	5603.299833	1973.887695	51.699356
2927.074149	5603.299833	1972.918945	-76.173744
2927.074149	5603.299833	1971.949219	47.512836
2927.074149	5603.299833	1970.980469	72.489624
2927.074149	5603.299833	1970.010742	8.672714
2927.074149	5603.299833	1969.041016	-3.389620
2927.074149	5603.299833	1968.071289	198.925522
2927.074149	5603.299833	1967.101563	56.193119
2927.074149	5603.299833	1966.130859	260.837982
2927.074149	5603.299833	1965.161133	41.752529
2927.074149	5603.299833	1964.190430	49.283615
2927.074149	5603.299833	1963.219727	86.342407
2927.074149	5603.299833	1962.249023	113.527817
2927.074149	5603.299833	1961.277344	10.250512
2927.074149	5603.299833	1960.306641	-38.861076
2927.074149	5603.299833	1959.334961	-60.899109
2927.074149	5603.299833	1958.363281	-53.415672
2927.074149	5603.299833	1957.391602	148.349854
2927.074149	5603.299833	1956.419922	143.493942
2927.074149	5603.299833	1955.447266	8.342769
2927.074149	5603.299833	1954.474609	-38.269333
2927.074149	5603.299833	1953.501953	74.877907
2927.074149	5603.299833	1952.529297	106.906059
2927.074149	5603.299833	1951.556641	141.384857
2927.074149	5603.299833	1950.583984	-52.561329
2927.074149	5603.299833	1949.610352	146.481140
2927.074149	5603.299833	1948.636719	28.736786
2927.074149	5603.299833	1947.663086	38.694981
2927.074149	5603.299833	1946.689453	65.842117
2927.074149	5603.299833	1945.715820	105.262177
2927.074149	5603.299833	1944.741211	105.426178
2927.074149	5603.299833	1943.767578	110.512909
2927.074149	5603.299833	1942.792969	164.662628
2927.074149	5603.299833	1941.818359	42.262386
2927.074149	5603.299833	1940.842773	98.889481
2927.074149	5603.299833	1939.868164	-96.949547
2927.074149	5603.299833	1938.892578	-150.560822
2927.074149	5603.299833	1937.916992	168.297882
2927.074149	5603.299833	1936.941406	11.807678
2927.074149	5603.299833	1935.965820	-95.618950
2927.074149	5603.299833	1934.990234	-46.259979
2927.074149	5603.299833	1934.013672	-124.215111
2927.074149	5603.299833	1933.037109	25.536823
2927.074149	5603.299833	1932.060547	35.747959
2927.074149	5603.299833	1931.083984	-83.713394
2927.074149	5603.299833	1930.107422	163.872574
2927.074149	5603.299833	1929.129883	66.488075
2927.074149	5603.299833	1928.153320	-150.673965
2927.074149	5603.299833	1927.175781	-3.403133
2927.074149	5603.299833	1926.198242	2.040966
2927.074149	5603.299833	1925.219727	49.057449
2927.074149	5603.299833	1924.242188	83.857468
2927.074149	5603.299833	1923.263672	8.713914
2927.074149	5603.299833	1922.285156	21.564228
2927.074149	5603.299833	1921.306641	-143.868240
2927.074149	5603.299833	1920.328125	-128.511551
2927.074149	5603.299833	1919.349609	-64.310387
2927.074149	5603.299833	1918.370117	-0.113805
2927.074149	5603.299833	1917.391602	176.346405
2927.074149	5603.299833	1916.412109	11.135186
2927.074149	5603.299833	1915.431641	-112.520378
2927.074149	5603.299833	1914.452148	-14.140348
2927.074149	5603.299833	1913.472656	115.925110
2927.074149	5603.299833	1912.492188	150.862015
2927.074149	5603.299833	1911.511719	-70.175995
2927.074149	5603.299833	1910.531250	-86.372162
2927.074149	5603.299833	1909.550781	80.225967
2927.074149	5603.299833	1908.569336	83.528969
2927.074149	5603.299833	1907.588867	-125.094986
2927.074149	5603.299833	1906.607422	211.950317
2927.074149	5603.299833	1905.625977	-101.306732
2927.074149	5603.299833	1904.644531	-234.268280
2927.074149	5603.299833	1903.662109	-118.876350
2927.074149	5603.299833	1902.680664	-176.316727
2927.074149	5603.299833	1901.698242	4.739232
2927.074149	5603.299833	1900.715820	32.464283
2927.074149	5603.299833	1899.733398	103.968857
2927.074149	5603.299833	1898.750000	-65.313148
2927.074149	5603.299833	1897.767578	-27.847975
2927.074149	5603.299833	1896.784180	46.072884
2927.074149	5603.299833	1895.800781	195.319321
2927.074149	5603.299833	1894.817383	48.030979
2927.074149	5603.299833	1893.833984	19.855305
2927.074149	5603.299833	1892.850586	15.982687
2927.074149	5603.299833	1891.866211	-148.190201
2927.074149	5603.299833	1890.881836	37.377365
2927.074149	5603.299833	1889.897461	215.588623
2927.074149	5603.299833	1888.913086	15.048937
2927.074149	5603.299833	1887.927734	69.411774
2927.074149	5603.299833	1886.943359	-63.093948
2927.074149	5603.299833	1885.958008	-1.471809
2927.074149	5603.299833	1884.972656	-53.885254
2927.074149	5603.299833	1883.987305	148.352112
2927.074149	5603.299833	1883.001953	98.333870
2927.074149	5603.299833	1882.015625	-38.949718
2927.074149	5603.299833	1881.029297	155.864273
2927.074149	5603.299833	1880.042969	149.453415
2927.074149	5603.299833	1879.056641	4.924930
2927.074149	5603.299833	1878.070313	119.634125
2927.074149	5603.299833	1877.083984	-44.244389
2927.074149	5603.299833	1876.096680	17.120327
2927.074149	5603.299833	1875.109375	49.390076
2927.074149	5603.299833	1874.122070	11.427938
2927.074149	5603.299833	1873.134766	-99.148125
2927.074149	5603.299833	1872.146484	-8.869580
2927.074149	5603.299833	1871.159180	-87.999329
2927.074149	5603.299833	1870.170898	33.637177
2927.074149	5603.299833	1869.182617	-67.289368
2927.074149	5603.299833	1868.194336	59.076302
2927.074149	5603.299833	1867.205078	25.812920
2927.074149	5603.299833	1866.216797	113.381485
2927.074149	5603.299833	1865.227539	-72.184357
2927.074149	5603.299833	1864.238281	49.128014
2927.074149	5603.299833	1863.249023	42.332077
2927.074149	5603.299833	1862.259766	-104.577271
2927.074149	5603.299833	1861.269531	-60.706036
2927.074149	5603.299833	1860.279297	4.839401
2927.074149	5603.299833	1859.290039	101.699898
2927.074149	5603.299833	1858.298828	-13.892627
2927.074149	5603.299833	1857.308594	155.239685
2927.074149	5603.299833	1856.318359	-146.164536
2927.074149	5603.299833	1855.327148	-136.351166
2927.074149	5603.299833	1854.335938	66.338310
2927.074149	5603.299833	1853.344727	150.760193
2927.074149	5603.299833	1852.353516	15.732655
2927.074149	5603.299833	1851.362305	249.468430
2927.074149	5603.299833	1850.370117	83.046631
2927.074149	5603.299833	1849.377930	-133.957947
2927.074149	5603.299833	1848.385742	46.523884
2927.074149	5603.299833	1847.393555	214.842590
2927.074149	5603.299833	1846.401367	192.816406
2927.074149	5603.299833	1845.408203	161.112076
2927.074149	5603.299833	1844.415039	201.572296
2927.074149	5603.299833	1843.421875	13.335633
2927.074149	5603.299833	1842.428711	-20.897814
2927.074149	5603.299833	1841.435547	-112.915230
2927.074149	5603.299833	1840.441406	276.082703
2927.074149	5603.299833	1839.448242	111.777367
2927.074149	5603.299833	1838.454102	53.258633
2927.074149	5603.299833	1837.459961	-29.341290
2927.074149	5603.299833	1836.464844	-61.506485
2927.074149	5603.299833	1835.470703	160.987900
2927.074149	5603.299833	1834.475586	83.017456
2927.074149	5603.299833	1833.480469	149.129684
2927.074149	5603.299833	1832.485352	56.642982
2927.074149	5603.299833	1831.490234	81.775139
2927.074149	5603.299833	1830.495117	200.452957
2927.074149	5603.299833	1829.499023	275.807190
2927.074149	5603.299833	1828.502930	291.064453
2927.074149	5603.299833	1827.506836	123.891861
2927.074149	5603.299833	1826.510742	26.273840
2927.074149	5603.299833	1825.513672	96.503029
2927.074149	5603.299833	1824.517578	111.477814
2927.074149	5603.299833	1823.520508	210.279388
2927.074149	5603.299833	1822.523438	-43.405128
2927.074149	5603.299833	1821.526367	177.456635
2927.074149	5603.299833	1820.529297	50.709576
2927.074149	5603.299833	1819.531250	-88.053276
2927.074149	5603.299833	1818.533203	-128.641525
2927.074149	5603.299833	1817.535156	-6.449493
2927.074149	5603.299833	1816.537109	84.483986
2927.074149	5603.299833	1815.539063	-37.758812
2927.074149	5603.299833	1814.540039	86.480232
2927.074149	5603.299833	1813.541992	59.829906
2927.074149	5603.299833	1812.542969	71.379585
2927.074149	5603.299833	1811.543945	137.855499
2927.074149	5603.299833	1810.543945	103.763130
2927.074149	5603.299833	1809.544922	7.427335
2927.074149	5603.299833	1808.544922	61.650726
2927.074149	5603.299833	1807.544922	77.517357
2927.074149	5603.299833	1806.544922	229.507080
2927.074149	5603.299833	1805.544922	108.957230
2927.074149	5603.299833	1804.544922	9.859407
2927.074149	5603.299833	1803.543945	204.486191
2927.074149	5603.299833	1802.542969	69.394806
2927.074149	5603.299833	1801.541992	65.577888
2927.074149	5603.299833	1800.541016	-19.496307
2927.074149	5603.299833	1799.539063	76.749176
2927.074149	5603.299833	1798.538086	98.892296
2927.074149	5603.299833	1797.536133	147.169418
2927.074149	5603.299833	1796.534180	288.359100
2927.074149	5603.299833	1795.532227	240.991226
2927.074149	5603.299833	1794.529297	88.622810
2927.074149	5603.299833	1793.527344	-54.245296
2927.074149	5603.299833	1792.524414	167.515015
2927.074149	5603.299833	1791.521484	141.251205
2927.074149	5603.299833	1790.518555	83.923874
2927.074149	5603.299833	1789.514648	-13.985499
2927.074149	5603.299833	1788.511719	114.310097
2927.074149	5603.299833	1787.507813	273.405670
2927.074149	5603.299833	1786.503906	-36.679840
2927.074149	5603.299833	1785.500000	43.628506
2927.074149	5603.299833	1784.496094	-95.148041
2927.074149	5603.299833	1783.491211	113.420723
2927.074149	5603.299833	1782.486328	19.673523
2927.074149	5603.299833	1781.481445	37.651184
2927.074149	5603.299833	1780.476563	38.871120
2927.074149	5603.299833	1779.471680	30.475763
2927.074149	5603.299833	1778.465820	-73.113876
2927.074149	5603.299833	1777.460938	-76.939514
2927.074149	5603.299833	1776.455078	144.875122
2927.074149	5603.299833	1775.449219	124.163689
2927.074149	5603.299833	1774.442383	150.856644
2927.074149	5603.299833	1773.436523	236.815460
2927.074149	5603.299833	1772.429688	113.674484
2927.074149	5603.299833	1771.422852	59.322525
2927.074149	5603.299833	1770.416016	-68.695496
2927.074149	5603.299833	1769.409180	-144.561188
2927.074149	5603.299833	1768.402344	16.766495
2927.074149	5603.299833	1767.394531	-142.332367
2927.074149	5603.299833	1766.386719	32.946648
2927.074149	5603.299833	1765.378906	113.199333
2927.074149	5603.299833	1764.371094	65.289078
2927.074149	5603.299833	1763.362305	-41.976635
2927.074149	5603.299833	1762.354492	82.960365
2927.074149	5603.299833	1761.345703	-62.390617
2927.074149	5603.299833	1760.336914	-15.895355
2927.074149	5603.299833	1759.328125	134.697311
2927.074149	5603.299833	1758.318359	-160.099487
2927.074149	5603.299833	1757.308594	-40.533997
2927.074149	5603.299833	1756.299805	220.926208
2927.074149	5603.299833	1755.290039	-145.035843
2927.074149	5603.299833	1754.279297	-132.350815
2927.074149	5603.299833	1753.269531	24.556969
2927.074149	5603.299833	1752.258789	-15.043050
2927.074149	5603.299833	1751.249023	28.054142
2927.074149	5603.299833	1750.238281	23.731874
2927.074149	5603.299833	1749.226563	26.390602
2927.074149	5603.299833	1748.215820	47.864868
2927.074149	5603.299833	1747.204102	137.752335
2927.074149	5603.299833	1746.193359	-133.989990
2927.074149	5603.299833	1745.181641	-18.319485
2927.074149	5603.299833	1744.168945	26.339201
2927.074149	5603.299833	1743.157227	-33.011383
2927.074149	5603.299833	1742.144531	-71.202179
2927.074149	5603.299833	1741.132813	126.585190
2927.074149	5603.299833	1740.120117	-102.986404
2927.074149	5603.299833	1739.106445	56.757084
2927.074149	5603.299833	1738.093750	-19.564583
2927.074149	5603.299833	1737.080078	40.838882
2927.074149	5603.299833	1736.067383	-165.352798
2927.074149	5603.299833	1735.053711	88.203064
2927.074149	5603.299833	1734.040039	44.535145
2927.074149	5603.299833	1733.025391	17.275732
2927.074149	5603.299833	1732.011719	74.774261
2927.074149	5603.299833	1730.997070	-169.425079
2927.074149	5603.299833	1729.982422	24.509523
2927.074149	5603.299833	1728.967773	-132.636108
2927.074149	5603.299833	1727.952148	-4.912690
2927.074149	5603.299833	1726.937500	-100.969849
2927.074149	5603.299833	1725.921875	-8.791523
2927.074149	5603.299833	1724.906250	73.845230
2927.074149	5603.299833	1723.890625	-121.278610
2927.074149	5603.299833	1722.875000	45.854294
2927.074149	5603.299833	1721.858398	-92.934135
2927.074149	5603.299833	1720.841797	90.399750
2927.074149	5603.299833	1719.825195	57.276638
2927.074149	5603.299833	1718.808594	92.247108
2927.074149	5603.299833	1717.791992	-37.395088
2927.074149	5603.299833	1716.774414	-4.955300
2927.074149	5603.299833	1715.756836	10.941635
2927.074149	5603.299833	1714.739258	-46.065765
2927.074149	5603.299833	1713.721680	49.508690
2927.074149	5603.299833	1712.704102	-40.521660
2927.074149	5603.299833	1711.685547	-24.976152
2927.074149	5603.299833	1710.667969	42.129173
2927.074149	5603.299833	1709.649414	8.212349
2927.074149	5603.299833	1708.630859	18.805399
2927.074149	5603.299833	1707.611328	-52.796997
2927.074149	5603.299833	1706.592773	-14.210851
2927.074149	5603.299833	1705.573242	-224.275482
2927.074149	5603.299833	1704.553711	13.429147
2927.074149	5603.299833	1703.534180	-142.803040
2927.074149	5603.299833	1702.513672	195.398514
2927.074149	5603.299833	1701.494141	1.555251
2927.074149	5603.299833	1700.473633	-126.708900
2927.074149	5603.299833	1699.453125	26.052853
2927.074149	5603.299833	1698.432617	21.796589
2927.074149	5603.299833	1697.412109	17.471550
2927.074149	5603.299833	1696.390625	-87.585220
2927.074149	5603.299833	1695.369141	158.371231
2927.074149	5603.299833	1694.347656	121.047005
2927.074149	5603.299833	1693.326172	-136.229706
2927.074149	5603.299833	1692.304688	36.889786
2927.074149	5603.299833	1691.282227	-54.383667
2927.074149	5603.299833	1690.260742	216.723755
2927.074149	5603.299833	1689.238281	-40.642750
2927.074149	5603.299833	1688.214844	-43.237148
2927.074149	5603.299833	1687.192383	73.293839
2927.074149	5603.299833	1686.168945	149.990616
2927.074149	5603.299833	1685.146484	-30.320667
2927.074149	5603.299833	1684.123047	130.324051
2927.074149	5603.299833	1683.099609	253.492706
2927.074149	5603.299833	1682.075195	108.086220
2927.074149	5603.299833	1681.051758	46.719227
2927.074149	5603.299833	1680.027344	227.997025
2927.074149	5603.299833	1679.002930	206.175308
2927.074149	5603.299833	1677.978516	198.306976
2927.074149	5603.299833	1676.953125	120.413834
2927.074149	5603.299833	1675.928711	385.280914
2927.074149	5603.299833	1674.903320	186.059021
2927.074149	5603.299833	1673.877930	180.328323
2927.074149	5603.299833	1672.852539	179.214981
2927.074149	5603.299833	1671.826172	166.394958
2927.074149	5603.299833	1670.800781	493.657562
2927.074149	5603.299833	1669.774414	224.503891
2927.074149	5603.299833	1668.748047	386.203735
2927.074149	5603.299833	1667.721680	536.161621
2927.074149	5603.299833	1666.694336	457.895172
2927.074149	5603.299833	1665.667969	586.761414
2927.074149	5603.299833	1664.640625	594.535645
2927.074149	5603.299833	1663.613281	541.787537
2927.074149	5603.299833	1662.585938	658.817139
2927.074149	5603.299833	1661.557617	831.565918
2927.074149	5603.299833	1660.530273	927.507324
2927.074149	5603.299833	1659.501953	723.501282
2927.074149	5603.299833	1658.473633	940.207642
2927.074149	5603.299833	1657.444336	608.408386
2927.074149	5603.299833	1656.416016	834.293152
2927.074149	5603.299833	1655.386719	871.910217
2927.074149	5603.299833	1654.358398	830.545776
2927.074149	5603.299833	1653.328125	696.271118
2927.074149	5603.299833	1652.298828	708.291016
2927.074149	5603.299833	1651.269531	926.852295
2927.074149	5603.299833	1650.239258	1115.129517
2927.074149	5603.299833	1649.208984	1041.150024
2927.074149	5603.299833	1648.178711	1138.834717
2927.074149	5603.299833	1647.148438	1113.553223
2927.074149	5603.299833	1646.117188	1127.669556
2927.074149	5603.299833	1645.086914	1285.517090
2927.074149	5603.299833	1644.055664	1097.924072
2927.074149	5603.299833	1643.024414	1327.519287
2927.074149	5603.299833	1641.992188	1411.036987
2927.074149	5603.299833	1640.960938	1427.352417
2927.074149	5603.299833	1639.928711	1441.326172
2927.074149	5603.299833	1638.896484	1281.622192
2927.074149	5603.299833	1637.864258	1710.017212
2927.074149	5603.299833	1636.832031	1466.990845
2927.074149	5603.299833	1635.798828	1529.519653
2927.074149	5603.299833	1634.766602	1376.860718
2927.074149	5603.299833	1633.733398	1476.399048
2927.074149	5603.299833	1632.699219	1721.598877
2927.074149	5603.299833	1631.666016	1488.051392
2927.074149	5603.299833	1630.632813	1601.396851
2927.074149	5603.299833	1629.598633	1439.618530
2927.074149	5603.299833	1628.564453	1717.016113
2927.074149	5603.299833	1627.530273	1723.973755
2927.074149	5603.299833	1626.495117	1758.645508
2927.074149	5603.299833	1625.460938	1509.235596
2927.074149	5603.299833	1624.425781	1555.508179
2927.074149	5603.299833	1623.390625	1747.234497
2927.074149	5603.299833	1622.355469	1682.672729
2927.074149	5603.299833	1621.319336	1814.311890
2927.074149	5603.299833	1620.284180	1957.471436
2927.074149	5603.299833	1619.248047	1789.130615
2927.074149	5603.299833	1618.211914	1948.412842
2927.074149	5603.299833	1617.174805	2052.291748
2927.074149	5603.299833	1616.138672	1904.850464
2927.074149	5603.299833	1615.101563	1955.726318
2927.074149	5603.299833	1614.065430	1992.795776
2927.074149	5603.299833	1613.027344	1933.065796
2927.074149	5603.299833	1611.990234	1983.989990
2927.074149	5603.299833	1610.953125	2269.875244
2927.074149	5603.299833	1609.915039	2062.825195
2927.074149	5603.299833	1608.876953	2159.825439
2927.074149	5603.299833	1607.838867	2038.121460
2927.074149	5603.299833	1606.800781	2043.090576
2927.074149	5603.299833	1605.761719	1886.995605
2927.074149	5603.299833	1604.723633	1940.382568
2927.074149	5603.299833	1603.684570	2159.394531
2927.074149	5603.299833	1602.644531	1911.476318
2927.074149	5603.299833	1601.605469	1817.770020
2927.074149	5603.299833	1600.566406	2018.409912
2927.074149	5603.299833	1599.526367	2012.135010
2927.074149	5603.299833	1598.486328	2038.080933
2927.074149	5603.299833	1597.446289	1882.550415
2927.074149	5603.299833	1596.405273	1759.274780
2927.074149	5603.299833	1595.365234	1553.427979
2927.074149	5603.299833	1594.324219	1641.619751
2927.074149	5603.299833	1593.283203	1817.068359
2927.074149	5603.299833	1592.242188	1841.006470
2927.074149	5603.299833	1591.200195	1486.313110
2927.074149	5603.299833	1590.159180	1781.161377
2927.074149	5603.299833	1589.117188	1495.549438
2927.074149	5603.299833	1588.075195	1671.113281
2927.074149	5603.299833	1587.032227	1440.770020
2927.074149	5603.299833	1585.990234	1412.344971
2927.074149	5603.299833	1584.947266	1569.648926
2927.074149	5603.299833	1583.904297	1594.028687
2927.074149	5603.299833	1582.861328	1313.714844
2927.074149	5603.299833	1581.818359	1512.368408
2927.074149	5603.299833	1580.775391	1335.378418
2927.074149	5603.299833	1579.731445	1595.896851
2927.074149	5603.299833	1578.687500	1611.399658
2927.074149	5603.299833	1577.643555	1480.463379
2927.074149	5603.299833	1576.598633	1207.738159
2927.074149	5603.299833	1575.554688	1459.200073
2927.074149	5603.299833	1574.509766	1511.587036
2927.074149	5603.299833	1573.464844	1417.639771
2927.074149	5603.299833	1572.419922	1412.988892
2927.074149	5603.299833	1571.374023	1440.412109
2927.074149	5603.299833	1570.329102	1737.655151
2927.074149	5603.299833	1569.283203	1820.007690
2927.074149	5603.299833	1568.237305	1758.447754
2927.074149	5603.299833	1567.191406	1607.889648
2927.074149	5603.299833	1566.144531	1658.465820
2927.074149	5603.299833	1565.098633	1729.666992
2927.074149	5603.299833	1564.051758	1755.244751
2927.074149	5603.299833	1563.004883	1760.349609
2927.074149	5603.299833	1561.957031	1843.125000
2927.074149	5603.299833	1560.910156	1572.267456
2927.074149	5603.299833	1559.862305	1746.476196
2927.074149	5603.299833	1558.814453	1694.881714
2927.074149	5603.299833	1557.766602	1556.734131
2927.074149	5603.299833	1556.718750	1418.728638
2927.074149	5603.299833	1555.669922	1390.279663
2927.074149	5603.299833	1554.621094	1457.660278
2927.074149	5603.299833	1553.573242	1376.995483
2927.074149	5603.299833	1552.523438	1590.338135
2927.074149	5603.299833	1551.474609	1427.848999
2927.074149	5603.299833	1550.424805	1235.900635
2927.074149	5603.299833	1549.375000	1194.404297
2927.074149	5603.299833	1548.325195	1189.443726
2927.074149	5603.299833	1547.275391	1170.925903
2927.074149	5603.299833	1546.225586	1209.403564
2927.074149	5603.299833	1545.174805	1222.926636
2927.074149	5603.299833	1544.124023	1077.310913
2927.074149	5603.299833	1543.073242	1079.682373
2927.074149	5603.299833	1542.022461	1000.294495
2927.074149	5603.299833	1540.970703	991.505371
2927.074149	5603.299833	1539.919922	814.632507
2927.074149	5603.299833	1538.868164	669.738892
2927.074149	5603.299833	1537.815430	899.885071
2927.074149	5603.299833	1536.763672	984.672119
2927.074149	5603.299833	1535.710938	867.389221
2927.074149	5603.299833	1534.659180	909.217102
2927.074149	5603.299833	1533.606445	1007.882751
2927.074149	5603.299833	1532.552734	918.213318
2927.074149	5603.299833	1531.500000	851.389893
2927.074149	5603.299833	1530.446289	920.828491
2927.074149	5603.299833	1529.393555	665.966614
2927.074149	5603.299833	1528.338867	692.533386
2927.074149	5603.299833	1527.285156	553.675781
2927.074149	5603.299833	1526.231445	535.143494
2927.074149	5603.299833	1525.176758	734.323242
2927.074149	5603.299833	1524.122070	500.687012
2927.074149	5603.299833	1523.067383	496.100586
2927.074149	5603.299833	1522.012695	323.996124
2927.074149	5603.299833	1520.957031	460.090820
2927.074149	5603.299833	1519.901367	428.678497
2927.074149	5603.299833	1518.845703	377.019409
2927.074149	5603.299833	1517.790039	330.024170
2927.074149	5603.299833	1516.734375	323.900269
2927.074149	5603.299833	1515.677734	437.809784
2927.074149	5603.299833	1514.621094	316.523468
2927.074149	5603.299833	1513.564453	324.323883
2927.074149	5603.299833	1512.507813	83.497665
2927.074149	5603.299833	1511.450195	71.225807
2927.074149	5603.299833	1510.393555	156.283325
2927.074149	5603.299833	1509.335938	87.743889
2927.074149	5603.299833	1508.278320	32.909668
2927.074149	5603.299833	1507.219727	278.669128
2927.074149	5603.299833	1506.162109	145.011185
2927.074149	5603.299833	1505.103516	117.656830
2927.074149	5603.299833	1504.044922	-26.965307
2927.074149	5603.299833	1502.986328	34.006416
2927.074149	5603.299833	1501.926758	153.748123
2927.074149	5603.299833	1500.868164	217.163467
2927.074149	5603.299833	1499.808594	240.066406
2927.074149	5603.299833	1498.749023	278.873169
2927.074149	5603.299833	1497.688477	-9.195724
2927.074149	5603.299833	1496.628906	156.153000
2927.074149	5603.299833	1495.568359	175.037888
2927.074149	5603.299833	1494.507813	-38.089184
2927.074149	5603.299833	1493.447266	84.729996
2927.074149	5603.299833	1492.386719	232.406769
2927.074149	5603.299833	1491.325195	-92.845558
2927.074149	5603.299833	1490.263672	-46.276814
2927.074149	5603.299833	1489.202148	236.803604
2927.074149	5603.299833	1488.140625	87.706367
2927.074149	5603.299833	1487.079102	-34.196293
2927.074149	5603.299833	1486.016602	-140.175873
2927.074149	5603.299833	1484.954102	206.197815
2927.074149	5603.299833	1483.891602	325.392609
2927.074149	5603.299833	1482.829102	-14.080619
2927.074149	5603.299833	1481.765625	-2.554462
2927.074149	5603.299833	1480.702148	-44.850254
2927.074149	5603.299833	1479.638672	77.047684
2927.074149	5603.299833	1478.575195	-30.158455
2927.074149	5603.299833	1477.511719	42.556751
2927.074149	5603.299833	1476.447266	241.076126
2927.074149	5603.299833	1475.382813	111.914566
2927.074149	5603.299833	1474.318359	104.112129
2927.074149	5603.299833	1473.253906	332.100403
2927.074149	5603.299833	1472.189453	223.541519
2927.074149	5603.299833	1471.124023	435.933075
2927.074149	5603.299833	1470.058594	417.418243
2927.074149	5603.299833	1468.993164	650.025208
2927.074149	5603.299833	1467.927734	788.383911
2927.074149	5603.299833	1466.861328	700.632935
2927.074149	5603.299833	1465.794922	467.421753
2927.074149	5603.299833	1464.728516	585.803955
2927.074149	5603.299833	1463.662109	762.896667
2927.074149	5603.299833	1462.594727	687.245239
2927.074149	5603.299833	1461.528320	825.868042
2927.074149	5603.299833	1460.460938	931.386230
2927.074149	5603.299833	1459.393555	1016.988586
2927.074149	5603.299833	1458.326172	1118.305786
2927.074149	5603.299833	1457.257813	1231.896484
2927.074149	5603.299833	1456.189453	1065.842407
2927.074149	5603.299833	1455.121094	1053.766479
2927.074149	5603.299833	1454.052734	1234.967285
2927.074149	5603.299833	1452.984375	1292.262085
2927.074149	5603.299833	1451.915039	1076.506836
2927.074149	5603.299833	1450.845703	1481.074585
2927.074149	5603.299833	1449.776367	1124.050293
2927.074149	5603.299833	1448.707031	1179.614136
2927.074149	5603.299833	1447.636719	1177.665649
2927.074149	5603.299833	1446.567383	750.759766
2927.074149	5603.299833	1445.497070	1058.966064
2927.074149	5603.299833	1444.425781	977.631409
2927.074149	5603.299833	1443.355469	1129.964111
2927.074149	5603.299833	1442.285156	1040.241821
2927.074149	5603.299833	1441.213867	835.647827
2927.074149	5603.299833	1440.142578	815.490479
2927.074149	5603.299833	1439.070313	822.637878
2927.074149	5603.299833	1437.999023	875.500305
2927.074149	5603.299833	1436.926758	983.954041
2927.074149	5603.299833	1435.854492	1008.596008
2927.074149	5603.299833	1434.782227	912.220825
2927.074149	5603.299833	1433.709961	965.858276
2927.074149	5603.299833	1432.636719	1046.757935
2927.074149	5603.299833	1431.563477	1025.151001
2927.074149	5603.299833	1430.490234	909.362183
2927.074149	5603.299833	1429.416992	755.446838
2927.074149	5603.299833	1428.343750	846.982422
2927.074149	5603.299833	1427.269531	751.851013
2927.074149	5603.299833	1426.195313	891.724548
2927.074149	5603.299833	1425.121094	861.300781
2927.074149	5603.299833	1424.046875	618.547913
2927.074149	5603.299833	1422.971680	784.028015
2927.074149	5603.299833	1421.896484	514.469238
2927.074149	5603.299833	1420.821289	586.533142
2927.074149	5603.299833	1419.746094	699.704468
2927.074149	5603.299833	1418.669922	578.526245
2927.074149	5603.299833	1417.594727	534.402222
2927.074149	5603.299833	1416.518555	405.994049
2927.074149	5603.299833	1415.442383	538.261597
2927.074149	5603.299833	1414.365234	762.648499
2927.074149	5603.299833	1413.289063	231.583176
2927.074149	5603.299833	1412.211914	495.885254
2927.074149	5603.299833	1411.134766	523.239746
2927.074149	5603.299833	1410.057617	386.572723
2927.074149	5603.299833	1408.979492	564.701477
2927.074149	5603.299833	1407.902344	293.076630
2927.074149	5603.299833	1406.824219	343.524719
2927.074149	5603.299833	1405.746094	394.906982
2927.074149	5603.299833	1404.666992	466.026276
2927.074149	5603.299833	1403.588867	390.265106
2927.074149	5603.299833	1402.509766	338.072815
2927.074149	5603.299833	1401.430664	563.452759
2927.074149	5603.299833	1400.351563	284.754822
2927.074149	5603.299833	1399.271484	561.861450
2927.074149	5603.299833	1398.192383	443.787933
2927.074149	5603.299833	1397.112305	464.172028
2927.074149	5603.299833	1396.031250	511.527954
2927.074149	5603.299833	1394.951172	598.516846
2927.074149	5603.299833	1393.871094	508.111115
2927.074149	5603.299833	1392.790039	417.617645
2927.074149	5603.299833	1391.708984	245.301529
2927.074149	5603.299833	1390.626953	425.415039
2927.074149	5603.299833	1389.545898	440.803894
2927.074149	5603.299833	1388.463867	584.781189
2927.074149	5603.299833	1387.381836	427.221893
2927.074149	5603.299833	1386.299805	368.352814
2927.074149	5603.299833	1385.217773	269.031525
2927.074149	5603.299833	1384.134766	352.833099
2927.074149	5603.299833	1383.051758	277.111694
2927.074149	5603.299833	1381.968750	204.245361
2927.074149	5603.299833	1380.885742	265.008667
2927.074149	5603.299833	1379.802734	421.716217
2927.074149	5603.299833	1378.718750	459.471802
2927.074149	5603.299833	1377.634766	206.253128
2927.074149	5603.299833	1376.550781	337.015381
2927.074149	5603.299833	1375.465820	389.361603
2927.074149	5603.299833	1374.381836	424.510925
2927.074149	5603.299833	1373.296875	300.706543
2927.074149	5603.299833	1372.211914	177.985245
2927.074149	5603.299833	1371.126953	295.946747
2927.074149	5603.299833	1370.041016	485.138794
2927.074149	5603.299833	1368.955078	608.498352
2927.074149	5603.299833	1367.869141	348.978607
2927.074149	5603.299833	1366.783203	485.256439
2927.074149	5603.299833	1365.697266	584.724426
2927.074149	5603.299833	1364.610352	424.839905
2927.074149	5603.299833	1363.523438	414.239594
2927.074149	5603.299833	1362.436523	441.706757
2927.074149	5603.299833	1361.349609	321.631104
2927.074149	5603.299833	1360.261719	398.713348
2927.074149	5603.299833	1359.174805	379.805176
2927.074149	5603.299833	1358.086914	403.541473
2927.074149	5603.299833	1356.998047	447.215485
2927.074149	5603.299833	1355.910156	628.881470
2927.074149	5603.299833	1354.821289	491.675812
2927.074149	5603.299833	1353.732422	691.130005
2927.074149	5603.299833	1352.643555	580.853394
2927.074149	5603.299833	1351.554688	462.161499
2927.074149	5603.299833	1350.464844	591.913818
2927.074149	5603.299833	1349.375000	618.523499
2927.074149	5603.299833	1348.285156	755.080261
2927.074149	5603.299833	1347.195313	396.204315
2927.074149	5603.299833	1346.105469	575.827271
2927.074149	5603.299833	1345.014648	695.237732
2927.074149	5603.299833	1343.923828	520.631592
2927.074149	5603.299833	1342.833008	627.693420
2927.074149	5603.299833	1341.741211	584.938416
2927.074149	5603.299833	1340.650391	604.059875
2927.074149	5603.299833	1339.558594	334.618530
2927.074149	5603.299833	1338.466797	848.540527
2927.074149	5603.299833	1337.374023	438.584503
2927.074149	5603.299833	1336.282227	401.758606
2927.074149	5603.299833	1335.189453	382.420959
2927.074149	5603.299833	1334.096680	536.789429
2927.074149	5603.299833	1333.003906	633.171692
2927.074149	5603.299833	1331.910156	512.281616
2927.074149	5603.299833	1330.817383	546.122925
2927.074149	5603.299833	1329.723633	431.391174
2927.074149	5603.299833	1328.629883	519.346008
2927.074149	5603.299833	1327.535156	434.228912
2927.074149	5603.299833	1326.441406	351.797058
2927.074149	5603.299833	1325.346680	380.691742
2927.074149	5603.299833	1324.251953	396.454590
2927.074149	5603.299833	1323.156250	474.225739
2927.074149	5603.299833	1322.061523	625.284424
2927.074149	5603.299833	1320.965820	479.876801
2927.074149	5603.299833	1319.870117	297.017944
2927.074149	5603.299833	1318.774414	341.937317
2927.074149	5603.299833	1317.678711	458.152435
2927.074149	5603.299833	1316.582031	192.588837
2927.074149	5603.299833	1315.485352	213.584671
2927.074149	5603.299833	1314.388672	252.336212
2927.074149	5603.299833	1313.291016	143.672348
2927.074149	5603.299833	1312.194336	295.111969
2927.074149	5603.299833	1311.096680	350.709412
2927.074149	5603.299833	1309.999023	358.258759
2927.074149	5603.299833	1308.901367	191.776611
2927.074149	5603.299833	1307.802734	415.289276
2927.074149	5603.299833	1306.705078	393.282074
2927.074149	5603.299833	1305.606445	396.831207
2927.074149	5603.299833	1304.506836	478.340057
2927.074149	5603.299833	1303.408203	326.364105
2927.074149	5603.299833	1302.308594	373.188690
2927.074149	5603.299833	1301.208984	663.311707
2927.074149	5603.299833	1300.109375	423.790802
2927.074149	5603.299833	1299.009766	652.482361
2927.074149	5603.299833	1297.909180	427.627777
2927.074149	5603.299833	1296.808594	516.954407
2927.074149	5603.299833	1295.708008	490.323639
2927.074149	5603.299833	1294.607422	450.732422
2927.074149	5603.299833	1293.506836	443.506958
2927.074149	5603.299833	1292.405273	576.495178
2927.074149	5603.299833	1291.303711	486.326752
2927.074149	5603.299833	1290.202148	513.382507
2927.074149	5603.299833	1289.099609	294.131470
2927.074149	5603.299833	1287.998047	395.507599
2927.074149	5603.299833	1286.895508	448.076996
2927.074149	5603.299833	1285.792969	280.309082
2927.074149	5603.299833	1284.689453	330.820496
2927.074149	5603.299833	1283.586914	181.829102
2927.074149	5603.299833	1282.483398	410.824127
2927.074149	5603.299833	1281.379883	393.346130
2927.074149	5603.299833	1280.276367	266.762329
2927.074149	5603.299833	1279.171875	437.496063
2927.074149	5603.299833	1278.067383	237.750046
2927.074149	5603.299833	1276.962891	223.910049
2927.074149	5603.299833	1275.858398	279.688019
2927.074149	5603.299833	1274.753906	279.738281
2927.074149	5603.299833	1273.648438	208.124847
2927.074149	5603.299833	1272.542969	302.466431
2927.074149	5603.299833	1271.437500	137.553116
2927.074149	5603.299833	1270.331055	317.830750
2927.074149	5603.299833	1269.225586	203.981049
2927.074149	5603.299833	1268.119141	302.047028
2927.074149	5603.299833	1267.012695	324.931610
2927.074149	5603.299833	1265.906250	315.441467
2927.074149	5603.299833	1264.798828	244.609421
2927.074149	5603.299833	1263.691406	90.350090
2927.074149	5603.299833	1262.583984	118.611794
2927.074149	5603.299833	1261.476563	-17.295795
2927.074149	5603.299833	1260.368164	71.466743
2927.074149	5603.299833	1259.260742	69.084122
2927.074149	5603.299833	1258.152344	-99.771736
2927.074149	5603.299833	1257.043945	30.245502
2927.074149	5603.299833	1255.934570	67.985985
2927.074149	5603.299833	1254.825195	-94.874825
2927.074149	5603.299833	1253.716797	-67.290344
2927.074149	5603.299833	1252.606445	-27.387144
2927.074149	5603.299833	1251.497070	-57.392868
2927.074149	5603.299833	1250.387695	90.245766
2927.074149	5603.299833	1249.277344	-4.612343
2927.074149	5603.299833	1248.166992	114.063835
2927.074149	5603.299833	1247.055664	-51.506466
2927.074149	5603.299833	1245.945313	-85.950699
2927.074149	5603.299833	1244.833984	-34.658680
2927.074149	5603.299833	1243.722656	-30.137396
2927.074149	5603.299833	1242.611328	-121.481384
2927.074149	5603.299833	1241.499023	6.904504
2927.074149	5603.299833	1240.387695	-132.572800
2927.074149	5603.299833	1239.275391	-208.034698
2927.074149	5603.299833	1238.162109	-113.732018
2927.074149	5603.299833	1237.049805	-121.304573
2927.074149	5603.299833	1235.936523	-132.478378
2927.074149	5603.299833	1234.823242	-148.243607
2927.074149	5603.299833	1233.709961	-233.157623
2927.074149	5603.299833	1232.596680	40.494633
2927.074149	5603.299833	1231.482422	-102.616615
2927.074149	5603.299833	1230.369141	-38.063473
2927.074149	5603.299833	1229.253906	-14.097606
2927.074149	5603.299833	1228.139648	-46.338882
2927.074149	5603.299833	1227.025391	-5.128812
2927.074149	5603.299833	1225.910156	-67.063889
2927.074149	5603.299833	1224.794922	66.744896
2927.074149	5603.299833	1223.679688	12.651356
2927.074149	5603.299833	1222.563477	-97.867821
2927.074149	5603.299833	1221.447266	-57.342476
2927.074149	5603.299833	1220.331055	88.804871
2927.074149	5603.299833	1219.214844	-8.159830
2927.074149	5603.299833	1218.098633	-60.632725
2927.074149	5603.299833	1216.981445	-96.281784
2927.074149	5603.299833	1215.864258	28.430737
2927.074149	5603.299833	1214.747070	-13.481134
2927.074149	5603.299833	1213.629883	74.287659
2927.074149	5603.299833	1212.511719	-64.343063
2927.074149	5603.299833	1211.393555	-123.088333
2927.074149	5603.299833	1210.275391	10.817868
2927.074149	5603.299833	1209.157227	-36.982456
2927.074149	5603.299833	1208.038086	93.289764
2927.074149	5603.299833	1206.918945	77.680428
2927.074149	5603.299833	1205.799805	-65.399887
2927.074149	5603.299833	1204.680664	104.571701
2927.074149	5603.299833	1203.560547	39.634903
2927.074149	5603.299833	1202.441406	21.296564
2927.074149	5603.299833	1201.321289	58.142452
2927.074149	5603.299833	1200.200195	-50.172791
2927.074149	5603.299833	1199.080078	-60.352982
2927.074149	5603.299833	1197.958984	106.111252
2927.074149	5603.299833	1196.837891	-30.418344
2927.074149	5603.299833	1195.716797	2.209113
2927.074149	5603.299833	1194.594727	47.415874
2927.074149	5603.299833	1193.473633	111.671425
2927.074149	5603.299833	1192.351563	46.585354
2927.074149	5603.299833	1191.229492	35.109493
2927.074149	5603.299833	1190.106445	87.868103
2927.074149	5603.299833	1188.984375	78.264641
2927.074149	5603.299833	1187.861328	50.204285
2927.074149	5603.299833	1186.738281	55.709381
2927.074149	5603.299833	1185.614258	14.122792
2927.074149	5603.299833	1184.491211	-57.492447
2927.074149	5603.299833	1183.367188	14.341747
2927.074149	5603.299833	1182.243164	72.410645
2927.074149	5603.299833	1181.119141	42.969730
2927.074149	5603.299833	1179.994141	-55.563129
2927.074149	5603.299833	1178.869141	120.480309
2927.074149	5603.299833	1177.744141	-66.026268
2927.074149	5603.299833	1176.619141	-9.963093
2927.074149	5603.299833	1175.493164	197.058258
2927.074149	5603.299833	1174.368164	-11.004706
2927.074149	5603.299833	1173.242188	101.003059
2927.074149	5603.299833	1172.115234	148.286194
2927.074149	5603.299833	1170.989258	45.802513
2927.074149	5603.299833	1169.862305	59.464622
2927.074149	5603.299833	1168.735352	27.577013
2927.074149	5603.299833	1167.608398	129.265396
2927.074149	5603.299833	1166.481445	187.188690
2927.074149	5603.299833	1165.353516	256.467377
2927.074149	5603.299833	1164.225586	58.650307
2927.074149	5603.299833	1163.097656	124.578079
2927.074149	5603.299833	1161.968750	149.087830
2927.074149	5603.299833	1160.840820	136.792679
2927.074149	5603.299833	1159.711914	179.383667
2927.074149	5603.299833	1158.583008	147.999817
2927.074149	5603.299833	1157.453125	-38.117622
2927.074149	5603.299833	1156.324219	13.404686
2927.074149	5603.299833	1155.194336	8.284761
2927.074149	5603.299833	1154.064453	146.302475
2927.074149	5603.299833	1152.933594	156.578812
2927.074149	5603.299833	1151.803711	77.907455
2927.074149	5603.299833	1150.672852	87.226753
2927.074149	5603.299833	1149.541992	-92.874573
2927.074149	5603.299833	1148.411133	124.709793
2927.074149	5603.299833	1147.279297	-45.329086
2927.074149	5603.299833	1146.147461	147.523483
2927.074149	5603.299833	1145.015625	-105.176949
2927.074149	5603.299833	1143.883789	49.304909
2927.074149	5603.299833	1142.750977	-130.281479
2927.074149	5603.299833	1141.619141	-127.140396
2927.074149	5603.299833	1140.486328	4.307204
2927.074149	5603.299833	1139.352539	-55.742584
2927.074149	5603.299833	1138.219727	41.975037
2927.074149	5603.299833	1137.085938	-172.677963
2927.074149	5603.299833	1135.952148	-75.226372
2927.074149	5603.299833	1134.818359	-80.161438
2927.074149	5603.299833	1133.683594	74.300148
2927.074149	5603.299833	1132.549805	85.457947
2927.074149	5603.299833	1131.415039	61.532799
2927.074149	5603.299833	1130.279297	212.367340
2927.074149	5603.299833	1129.144531	248.996826
2927.074149	5603.299833	1128.008789	220.770737
2927.074149	5603.299833	1126.873047	232.027039
2927.074149	5603.299833	1125.737305	246.496262
2927.074149	5603.299833	1124.601563	236.174576
2927.074149	5603.299833	1123.464844	157.433716
2927.074149	5603.299833	1122.328125	221.653915
2927.074149	5603.299833	1121.191406	201.876282
2927.074149	5603.299833	1120.054688	338.315765
2927.074149	5603.299833	1118.916992	202.035278
2927.074149	5603.299833	1117.779297	183.237640
2927.074149	5603.299833	1116.641602	172.494217
2927.074149	5603.299833	1115.503906	149.076614
2927.074149	5603.299833	1114.365234	164.912872
2927.074149	5603.299833	1113.226563	136.104401
2927.074149	5603.299833	1112.087891	160.007813
2927.074149	5603.299833	1110.949219	62.786327
2927.074149	5603.299833	1109.809570	141.318970
2927.074149	5603.299833	1108.669922	16.598032
2927.074149	5603.299833	1107.530273	235.210602
2927.074149	5603.299833	1106.390625	155.869751
2927.074149	5603.299833	1105.250000	190.259003
2927.074149	5603.299833	1104.109375	298.443176
2927.074149	5603.299833	1102.968750	93.686096
2927.074149	5603.299833	1101.828125	467.129639
2927.074149	5603.299833	1100.686523	343.199280
2927.074149	5603.299833	1099.544922	436.596802
2927.074149	5603.299833	1098.403320	273.594879
2927.074149	5603.299833	1097.261719	307.763092
2927.074149	5603.299833	1096.120117	193.851700
2927.074149	5603.299833	1094.977539	65.383652
2927.074149	5603.299833	1093.834961	271.168427
2927.074149	5603.299833	1092.691406	199.724976
2927.074149	5603.299833	1091.548828	307.923340
2927.074149	5603.299833	1090.405273	241.504288
2927.074149	5603.299833	1089.261719	341.378082
2927.074149	5603.299833	1088.118164	139.446426
2927.074149	5603.299833	1086.973633	260.150879
2927.074149	5603.299833	1085.829102	114.748596
2927.074149	5603.299833	1084.684570	349.369751
2927.074149	5603.299833	1083.540039	328.024414
2927.074149	5603.299833	1082.395508	282.290070
2927.074149	5603.299833	1081.250000	187.350296
2927.074149	5603.299833	1080.104492	188.333588
2927.074149	5603.299833	1078.958984	113.418976
2927.074149	5603.299833	1077.812500	287.131744
2927.074149	5603.299833	1076.666016	397.782166
2927.074149	5603.299833	1075.519531	359.693817
2927.074149	5603.299833	1074.373047	235.497940
2927.074149	5603.299833	1073.226563	419.556213
2927.074149	5603.299833	1072.079102	532.789185
2927.074149	5603.299833	1070.931641	414.870728
2927.074149	5603.299833	1069.784180	451.106842
2927.074149	5603.299833	1068.635742	528.969788
2927.074149	5603.299833	1067.487305	572.631470
2927.074149	5603.299833	1066.338867	491.740845
2927.074149	5603.299833	1065.190430	533.589233
2927.074149	5603.299833	1064.041992	688.613586
2927.074149	5603.299833	1062.892578	598.344543
2927.074149	5603.299833	1061.743164	519.869385
2927.074149	5603.299833	1060.593750	397.342773
2927.074149	5603.299833	1059.443359	352.012054
2927.074149	5603.299833	1058.292969	332.305481
2927.074149	5603.299833	1057.142578	253.091644
2927.074149	5603.299833	1055.992188	347.427582
2927.074149	5603.299833	1054.841797	363.052032
2927.074149	5603.299833	1053.690430	187.251160
2927.074149	5603.299833	1052.539063	150.088196
2927.074149	5603.299833	1051.387695	129.508926
2927.074149	5603.299833	1050.235352	261.360931
2927.074149	5603.299833	1049.083984	64.405380
2927.074149	5603.299833	1047.931641	130.312592
2927.074149	5603.299833	1046.778320	5.137569
2927.074149	5603.299833	1045.625977	86.056801
2927.074149	5603.299833	1044.472656	132.385864
2927.074149	5603.299833	1043.319336	199.840683
2927.074149	5603.299833	1042.166016	89.141449
2927.074149	5603.299833	1041.012695	94.231010
2927.074149	5603.299833	1039.858398	235.358994
2927.074149	5603.299833	1038.704102	-141.534866
2927.074149	5603.299833	1037.549805	167.151428
2927.074149	5603.299833	1036.394531	21.842247
2927.074149	5603.299833	1035.239258	-103.180794
2927.074149	5603.299833	1034.083984	-110.671127
2927.074149	5603.299833	1032.928711	73.512360
2927.074149	5603.299833	1031.773438	32.445343
2927.074149	5603.299833	1030.617188	51.910400
2927.074149	5603.299833	1029.460938	95.489136
2927.074149	5603.299833	1028.304688	111.535561
2927.074149	5603.299833	1027.147461	228.530396
2927.074149	5603.299833	1025.991211	30.813427
2927.074149	5603.299833	1024.833984	122.465714
2927.074149	5603.299833	1023.675781	123.562843
2927.074149	5603.299833	1022.518555	-118.901886
2927.074149	5603.299833	1021.360352	-19.729435
2927.074149	5603.299833	1020.202148	37.205036
2927.074149	5603.299833	1019.043945	84.306313
2927.074149	5603.299833	1017.884766	189.207245
2927.074149	5603.299833	1016.726563	119.747108
2927.074149	5603.299833	1015.567383	-28.587246
2927.074149	5603.299833	1014.407227	42.929207
2927.074149	5603.299833	1013.248047	116.956223
2927.074149	5603.299833	1012.087891	32.624046
2927.074149	5603.299833	1010.927734	48.961056
2927.074149	5603.299833	1009.767578	99.963837
2927.074149	5603.299833	1008.606445	89.162498
2927.074149	5603.299833	1007.446289	73.609612
2927.074149	5603.299833	1006.285156	-52.160522
2927.074149	5603.299833	1005.123047	259.409149
2927.074149	5603.299833	1003.961914	128.731705
2927.074149	5603.299833	1002.799805	96.390129
2927.074149	5603.299833	1001.637695	-135.326279
2927.074149	5603.299833	1000.475586	122.861305
2927.074149	5603.299833	999.312500	80.180038
2927.074149	5603.299833	998.149414	69.403687
2927.074149	5603.299833	996.986328	342.760254
2927.074149	5603.299833	995.823242	235.516861
2927.074149	5603.299833	994.659180	111.545097
2927.074149	5603.299833	993.496094	200.802353
2927.074149	5603.299833	992.332031	-76.818222
2927.074149	5603.299833	991.166992	-34.685360
2927.074149	5603.299833	990.002930	55.593006
2927.074149	5603.299833	988.837891	-94.974869
2927.074149	5603.299833	987.672852	75.974770
2927.074149	5603.299833	986.506836	-81.366280
2927.074149	5603.299833	985.341797	-21.804071
2927.074149	5603.299833	984.175781	-125.200615
2927.074149	5603.299833	983.009766	67.893852
2927.074149	5603.299833	981.843750	9.117462
2927.074149	5603.299833	980.676758	-166.064636
2927.074149	5603.299833	979.509766	112.083481
2927.074149	5603.299833	978.342773	118.712646
2927.074149	5603.299833	977.175781	-113.074165
2927.074149	5603.299833	976.007813	-154.395859
2927.074149	5603.299833	974.839844	60.289204
2927.074149	5603.299833	973.671875	-221.812515
2927.074149	5603.299833	972.503906	-40.360718
2927.074149	5603.299833	971.334961	-102.450958
2927.074149	5603.299833	970.166016	-103.777901
2927.074149	5603.299833	968.997070	-49.239552
2927.074149	5603.299833	967.828125	-105.524971
2927.074149	5603.299833	966.658203	116.301506
2927.074149	5603.299833	965.488281	19.114582
2927.074149	5603.299833	964.318359	-9.127338
2927.074149	5603.299833	963.148438	15.158170
2927.074149	5603.299833	961.977539	-125.650917
2927.074149	5603.299833	960.806641	66.605293
2927.074149	5603.299833	959.635742	39.014091
2927.074149	5603.299833	958.463867	-77.654984
2927.074149	5603.299833	957.292969	20.338415
2927.074149	5603.299833	956.121094	-144.384979
2927.074149	5603.299833	954.948242	13.628273
2927.074149	5603.299833	953.776367	39.240643
2927.074149	5603.299833	952.603516	-52.962372
2927.074149	5603.299833	951.430664	-136.343323
2927.074149	5603.299833	950.257813	68.705566
2927.074149	5603.299833	949.084961	92.602570
2927.074149	5603.299833	947.911133	-31.466841
2927.074149	5603.299833	946.737305	-64.763657
2927.074149	5603.299833	945.563477	-10.020963
2927.074149	5603.299833	944.388672	11.986699
2927.074149	5603.299833	943.213867	-64.472359
2927.074149	5603.299833	942.039063	26.252560
2927.074149	5603.299833	940.864258	-219.807007
2927.074149	5603.299833	939.688477	33.108524
2927.074149	5603.299833	938.513672	233.368530
2927.074149	5603.299833	937.337891	-107.685860
2927.074149	5603.299833	936.161133	32.978832
2927.074149	5603.299833	934.985352	-10.213356
2927.074149	5603.299833	933.808594	47.104080
2927.074149	5603.299833	932.631836	194.735565
2927.074149	5603.299833	931.454102	149.278519
2927.074149	5603.299833	930.277344	189.723389
2927.074149	5603.299833	929.099609	139.534302
2927.074149	5603.299833	927.921875	103.696304
2927.074149	5603.299833	926.743164	217.816559
2927.074149	5603.299833	925.565430	108.138451
2927.074149	5603.299833	924.386719	-6.267530
2927.074149	5603.299833	923.208008	157.813171
2927.074149	5603.299833	922.028320	107.679085
2927.074149	5603.299833	920.849609	36.143864
2927.074149	5603.299833	919.669922	37.905918
2927.074149	5603.299833	919.474609	-37.454132
2927.074149	5603.299833	918.309570	-68.531349
2927.074149	5603.299833	917.143555	-23.509180
2927.074149	5603.299833	915.977539	-280.411377
2927.074149	5603.299833	914.810547	35.583923
2927.074149	5603.299833	913.644531	21.150736
2927.074149	5603.299833	912.477539	-74.051666
2927.074149	5603.299833	911.310547	-154.964081
2927.074149	5603.299833	910.143555	15.885282
2927.074149	5603.299833	908.975586	-121.994209
2927.074149	5603.299833	907.807617	-79.405670
2927.074149	5603.299833	906.639648	-81.928116
2927.074149	5603.299833	905.471680	3.346736
2927.074149	5603.299833	904.303711	-13.424794
2927.074149	5603.299833	903.134766	-125.063454
2927.074149	5603.299833	901.965820	2.857104
2927.074149	5603.299833	900.796875	-184.608398
2927.074149	5603.299833	899.626953	97.354057
2927.074149	5603.299833	898.457031	-11.841921
2927.074149	5603.299833	897.287109	47.240215
2927.074149	5603.299833	896.117188	-2.674900
2927.074149	5603.299833	894.947266	-14.673193
2927.074149	5603.299833	893.776367	-85.864525
2927.074149	5603.299833	892.605469	74.993782
2927.074149	5603.299833	891.434570	174.243515
2927.074149	5603.299833	890.262695	105.428123
2927.074149	5603.299833	889.091797	230.659866
2927.074149	5603.299833	887.919922	36.483654
2927.074149	5603.299833	886.748047	-18.068823
2927.074149	5603.299833	885.575195	222.984329
2927.074149	5603.299833	884.403320	-89.277863
2927.074149	5603.299833	883.230469	-4.310519
2927.074149	5603.299833	882.057617	-9.179632
2927.074149	5603.299833	880.883789	148.982391
2927.074149	5603.299833	879.710938	47.233097
2927.074149	5603.299833	878.537109	-47.387581
2927.074149	5603.299833	877.362305	-35.711765
2927.074149	5603.299833	876.188477	-163.327469
2927.074149	5603.299833	875.013672	-116.227943
2927.074149	5603.299833	873.839844	-194.219986
2927.074149	5603.299833	872.664063	-62.195782
2927.074149	5603.299833	871.489258	-104.782936
2927.074149	5603.299833	870.313477	97.918816
2927.074149	5603.299833	869.138672	-133.317261
2927.074149	5603.299833	867.962891	71.662994
2927.074149	5603.299833	866.786133	-72.265594
2927.074149	5603.299833	865.610352	3.011052
2927.074149	5603.299833	864.433594	108.885330
2927.074149	5603.299833	863.256836	101.650520
2927.074149	5603.299833	862.079102	-35.106186
2927.074149	5603.299833	860.902344	37.740997
2927.074149	5603.299833	859.724609	49.352985
2927.074149	5603.299833	858.546875	53.897045
2927.074149	5603.299833	857.368164	93.733780
2927.074149	5603.299833	856.190430	-42.893845
2927.074149	5603.299833	855.011719	11.052961
2927.074149	5603.299833	853.833008	55.567623
2927.074149	5603.299833	852.654297	-17.495617
2927.074149	5603.299833	851.474609	-156.350418
2927.074149	5603.299833	850.294922	228.935089
2927.074149	5603.299833	849.115234	97.127266
2927.074149	5603.299833	847.935547	103.971909
2927.074149	5603.299833	846.754883	45.045361
2927.074149	5603.299833	845.575195	-96.051994
2927.074149	5603.299833	844.393555	225.413284
2927.074149	5603.299833	843.212891	72.590935
2927.074149	5603.299833	842.032227	-89.562836
2927.074149	5603.299833	840.850586	83.867104
2927.074149	5603.299833	839.668945	-14.896349
2927.074149	5603.299833	838.486328	-22.156834
2927.074149	5603.299833	837.304688	-43.492645
2927.074149	5603.299833	836.122070	-97.648430
2927.074149	5603.299833	834.939453	77.913155
2927.074149	5603.299833	833.756836	75.293312
2927.074149	5603.299833	832.573242	63.295784
2927.074149	5603.299833	831.389648	-89.254005
2927.074149	5603.299833	830.206055	348.425812
2927.074149	5603.299833	829.022461	111.567284
2927.074149	5603.299833	827.838867	172.103638
2927.074149	5603.299833	826.654297	3.234031
2927.074149	5603.299833	825.469727	178.408920
2927.074149	5603.299833	824.284180	58.717094
2927.074149	5603.299833	823.099609	-4.801454
2927.074149	5603.299833	821.914063	-28.548855
2927.074149	5603.299833	820.728516	-42.946720
2927.074149	5603.299833	819.542969	290.953766
2927.074149	5603.299833	818.356445	94.172974
2927.074149	5603.299833	817.169922	2.609605
2927.074149	5603.299833	815.983398	41.895092
2927.074149	5603.299833	814.796875	-124.391891
2927.074149	5603.299833	813.609375	113.366615
2927.074149	5603.299833	812.422852	28.818186
2927.074149	5603.299833	811.235352	-48.708099
2927.074149	5603.299833	810.046875	-93.545731
2927.074149	5603.299833	808.859375	41.280109
2927.074149	5603.299833	807.670898	-89.905518
2927.074149	5603.299833	806.482422	14.509094
2927.074149	5603.299833	805.293945	-7.056581
2927.074149	5603.299833	804.104492	45.971325
2927.074149	5603.299833	802.915039	131.590286
2927.074149	5603.299833	801.725586	54.026405
2927.074149	5603.299833	800.536133	-21.195364
2927.074149	5603.299833	799.345703	-45.159443
2927.074149	5603.299833	798.155273	-41.186657
2927.074149	5603.299833	796.964844	69.870972
2927.074149	5603.299833	795.774414	145.940720
2927.074149	5603.299833	794.583008	194.027954
2927.074149	5603.299833	793.392578	-193.081604
2927.074149	5603.299833	792.200195	108.601639
2927.074149	5603.299833	791.008789	91.465111
2927.074149	5603.299833	789.816406	160.358749
2927.074149	5603.299833	788.625000	108.293053
2927.074149	5603.299833	787.432617	139.909882
2927.074149	5603.299833	786.239258	8.799510
2927.074149	5603.299833	785.046875	5.515561
2927.074149	5603.299833	783.853516	-95.364708
2927.074149	5603.299833	782.660156	-10.417739
2927.074149	5603.299833	781.465820	65.178970
2927.074149	5603.299833	780.272461	-82.170212
2927.074149	5603.299833	779.078125	-122.709480
2927.074149	5603.299833	777.883789	45.604931
2927.074149	5603.299833	776.688477	132.612030
2927.074149	5603.299833	775.494141	105.881432
2927.074149	5603.299833	774.298828	113.921677
2927.074149	5603.299833	773.103516	165.984634
2927.074149	5603.299833	771.907227	30.209049
2927.074149	5603.299833	770.711914	35.846359
2927.074149	5603.299833	769.515625	155.000626
2927.074149	5603.299833	768.318359	125.790474
2927.074149	5603.299833	767.122070	15.484129
2927.074149	5603.299833	765.924805	213.208923
2927.074149	5603.299833	764.727539	21.821430
2927.074149	5603.299833	763.530273	13.360292
2927.074149	5603.299833	762.333008	48.842667
2927.074149	5603.299833	761.134766	24.110186
2927.074149	5603.299833	759.936523	-100.129860
2927.074149	5603.299833	758.738281	-78.632767
2927.074149	5603.299833	757.540039	104.695801
2927.074149	5603.299833	756.340820	102.945412
2927.074149	5603.299833	755.141602	89.598892
2927.074149	5603.299833	753.942383	-23.158600
2927.074149	5603.299833	752.742188	53.564198
2927.074149	5603.299833	751.541992	-19.944134
2927.074149	5603.299833	750.341797	35.879520
2927.074149	5603.299833	749.141602	225.572891
2927.074149	5603.299833	747.941406	82.692245
2927.074149	5603.299833	746.740234	309.147308
2927.074149	5603.299833	745.539063	106.224854
2927.074149	5603.299833	744.337891	198.675568
2927.074149	5603.299833	743.135742	74.207870
2927.074149	5603.299833	741.933594	53.533520
2927.074149	5603.299833	740.731445	108.915878
2927.074149	5603.299833	739.529297	69.714020
2927.074149	5603.299833	738.326172	-172.342239
2927.074149	5603.299833	737.124023	-165.468323
2927.074149	5603.299833	735.919922	242.234711
2927.074149	5603.299833	734.716797	85.387901
2927.074149	5603.299833	733.513672	209.518906
2927.074149	5603.299833	732.309570	209.220688
2927.074149	5603.299833	731.105469	6.305027
2927.074149	5603.299833	729.900391	187.774979
2927.074149	5603.299833	728.696289	97.606102
2927.074149	5603.299833	727.491211	156.962982
2927.074149	5603.299833	726.286133	161.047195
2927.074149	5603.299833	725.080078	183.478882
2927.074149	5603.299833	723.874023	118.489044
2927.074149	5603.299833	722.668945	313.222870
2927.074149	5603.299833	721.461914	328.572266
2927.074149	5603.299833	720.255859	42.879398
2927.074149	5603.299833	719.048828	170.745926
2927.074149	5603.299833	717.841797	156.116913
2927.074149	5603.299833	716.634766	233.294998
2927.074149	5603.299833	715.427734	50.976387
2927.074149	5603.299833	714.219727	293.303467
2927.074149	5603.299833	713.011719	92.594604
2927.074149	5603.299833	711.803711	24.989365
2927.074149	5603.299833	710.594727	23.882034
2927.074149	5603.299833	709.385742	-66.710655
2927.074149	5603.299833	708.176758	-35.794563
2927.074149	5603.299833	706.967773	27.152779
2927.074149	5603.299833	705.758789	76.274948
2927.074149	5603.299833	704.548828	-19.029989
2927.074149	5603.299833	703.338867	-91.435471
2927.074149	5603.299833	702.127930	-37.886253
2927.074149	5603.299833	700.917969	4.144086
2927.074149	5603.299833	699.707031	32.370449
2927.074149	5603.299833	698.496094	-74.513199
2927.074149	5603.299833	697.285156	-23.493057
2927.074149	5603.299833	696.073242	25.168636
2927.074149	5603.299833	694.861328	114.936508
2927.074149	5603.299833	693.649414	90.266808
2927.074149	5603.299833	692.436523	287.357178
2927.074149	5603.299833	691.224609	324.291412
2927.074149	5603.299833	690.011719	420.587646
2927.074149	5603.299833	688.798828	260.861206
2927.074149	5603.299833	687.584961	194.824280
2927.074149	5603.299833	686.372070	293.230988
2927.074149	5603.299833	685.158203	281.931244
2927.074149	5603.299833	683.943359	345.934082
2927.074149	5603.299833	682.729492	446.390320
2927.074149	5603.299833	681.514648	544.474915
2927.074149	5603.299833	680.299805	418.860291
2927.074149	5603.299833	679.084961	450.661987
2927.074149	5603.299833	677.869141	395.733704
2927.074149	5603.299833	676.653320	461.642487
2927.074149	5603.299833	675.437500	698.469849
2927.074149	5603.299833	674.221680	586.409546
2927.074149	5603.299833	673.004883	542.718628
2927.074149	5603.299833	671.789063	489.892426
2927.074149	5603.299833	670.571289	498.547424
2927.074149	5603.299833	669.354492	370.512543
2927.074149	5603.299833	668.136719	358.614624
2927.074149	5603.299833	666.919922	444.573975
2927.074149	5603.299833	665.701172	282.367126
2927.074149	5603.299833	664.483398	377.327362
2927.074149	5603.299833	663.264648	319.778412
2927.074149	5603.299833	662.045898	278.138489
2927.074149	5603.299833	660.827148	377.473724
2927.074149	5603.299833	659.608398	403.974304
2927.074149	5603.299833	658.388672	266.761292
2927.074149	5603.299833	657.168945	154.570511
2927.074149	5603.299833	655.949219	249.160553
2927.074149	5603.299833	654.728516	155.124176
2927.074149	5603.299833	653.507813	285.945374
2927.074149	5603.299833	652.287109	368.995087
2927.074149	5603.299833	651.066406	218.142334
2927.074149	5603.299833	649.844727	362.391052
2927.074149	5603.299833	648.623047	252.389420
2927.074149	5603.299833	647.401367	444.158905
2927.074149	5603.299833	646.179688	186.689667
2927.074149	5603.299833	644.957031	301.227814
2927.074149	5603.299833	643.734375	386.216675
2927.074149	5603.299833	642.511719	219.520538
2927.074149	5603.299833	641.289063	363.369873
2927.074149	5603.299833	640.065430	212.562607
2927.074149	5603.299833	638.841797	274.750153
2927.074149	5603.299833	637.618164	237.232483
2927.074149	5603.299833	636.393555	269.908020
2927.074149	5603.299833	635.168945	388.583679
2927.074149	5603.299833	633.944336	285.366974
2927.074149	5603.299833	632.719727	261.384155
2927.074149	5603.299833	631.494141	221.557098
2927.074149	5603.299833	630.269531	226.978149
2927.074149	5603.299833	629.042969	286.657837
2927.074149	5603.299833	627.817383	206.113449
2927.074149	5603.299833	626.590820	107.506126
2927.074149	5603.299833	625.365234	-2.366637
2927.074149	5603.299833	624.137695	113.765488
2927.074149	5603.299833	622.911133	229.844757
2927.074149	5603.299833	621.683594	-8.754798
2927.074149	5603.299833	620.456055	59.868755
2927.074149	5603.299833	619.228516	99.109367
2927.074149	5603.299833	618.000977	-60.309883
2927.074149	5603.299833	616.772461	166.254807
2927.074149	5603.299833	615.543945	4.633187
2927.074149	5603.299833	614.314453	-100.521126
2927.074149	5603.299833	613.085938	26.683294
2927.074149	5603.299833	611.856445	20.797434
2927.074149	5603.299833	610.626953	184.004578
2927.074149	5603.299833	609.397461	0.044526
2927.074149	5603.299833	608.166992	-159.041275
2927.074149	5603.299833	606.936523	-76.974800
2927.074149	5603.299833	605.706055	-287.756409
2927.074149	5603.299833	604.474609	-140.360245
2927.074149	5603.299833	603.244141	34.012344
2927.074149	5603.299833	602.012695	-154.097137
2927.074149	5603.299833	600.780273	-49.528839
2927.074149	5603.299833	599.548828	-147.491043
2927.074149	5603.299833	598.316406	40.314751
2927.074149	5603.299833	597.083984	-35.086372
2927.074149	5603.299833	595.851563	-13.732794
2927.074149	5603.299833	594.618164	-53.063183
2927.074149	5603.299833	593.384766	-29.409899
2927.074149	5603.299833	592.151367	52.694557
2927.074149	5603.299833	590.917969	-62.917076
2927.074149	5603.299833	589.683594	-18.958698
2927.074149	5603.299833	588.449219	-35.618217
2927.074149	5603.299833	587.214844	-204.913467
2927.074149	5603.299833	585.979492	-192.264267
2927.074149	5603.299833	584.745117	33.642014
2927.074149	5603.299833	583.509766	142.811676
2927.074149	5603.299833	582.273438	-111.456566
2927.074149	5603.299833	581.038086	152.555969
2927.074149	5603.299833	579.801758	6.132186
2927.074149	5603.299833	578.565430	-88.611366
2927.074149	5603.299833	577.329102	43.132694
2927.074149	5603.299833	576.091797	-138.871521
2927.074149	5603.299833	574.854492	-114.608208
2927.074149	5603.299833	573.617188	165.071838
2927.074149	5603.299833	572.378906	90.835197
2927.074149	5603.299833	571.141602	-52.718353
2927.074149	5603.299833	569.903320	164.273926
2927.074149	5603.299833	568.664063	76.848083
2927.074149	5603.299833	567.425781	-17.183542
2927.074149	5603.299833	566.186523	112.613373
2927.074149	5603.299833	564.947266	83.618462
2927.074149	5603.299833	563.708008	18.930069
2927.074149	5603.299833	562.467773	25.887047
2927.074149	5603.299833	561.227539	75.388344
2927.074149	5603.299833	559.987305	122.711967
2927.074149	5603.299833	558.747070	185.736465
2927.074149	5603.299833	557.505859	-57.225460
2927.074149	5603.299833	556.264648	43.941612
2927.074149	5603.299833	555.023438	142.917953
2927.074149	5603.299833	553.781250	-95.159386
2927.074149	5603.299833	552.539063	37.456604
2927.074149	5603.299833	551.296875	38.450031
2927.074149	5603.299833	550.054688	6.068461
2927.074149	5603.299833	548.811523	69.705963
2927.074149	5603.299833	547.569336	325.194977
2927.074149	5603.299833	546.325195	47.802895
2927.074149	5603.299833	545.082031	40.347092
2927.074149	5603.299833	543.837891	28.535429
2927.074149	5603.299833	542.593750	105.953949
2927.074149	5603.299833	541.349609	27.505272
2927.074149	5603.299833	540.105469	-128.758621
2927.074149	5603.299833	538.860352	71.420982
2927.074149	5603.299833	537.615234	149.178467
2927.074149	5603.299833	536.369141	178.041168
2927.074149	5603.299833	535.124023	53.455757
2927.074149	5603.299833	533.877930	-28.697033
2927.074149	5603.299833	532.631836	133.970581
2927.074149	5603.299833	531.384766	-85.821533
2927.074149	5603.299833	530.138672	90.351906
2927.074149	5603.299833	528.891602	77.616257
2927.074149	5603.299833	527.643555	-59.455231
2927.074149	5603.299833	526.396484	-91.923325
2927.074149	5603.299833	525.148438	93.441208
2927.074149	5603.299833	523.900391	107.825905
2927.074149	5603.299833	522.652344	-97.509956
2927.074149	5603.299833	521.403320	-167.218338
2927.074149	5603.299833	520.154297	107.251106
2927.074149	5603.299833	518.905273	-28.809343
2927.074149	5603.299833	517.656250	-71.511818
2927.074149	5603.299833	516.406250	-9.825578
2927.074149	5603.299833	515.156250	-94.411880
2927.074149	5603.299833	513.906250	122.690155
2927.074149	5603.299833	512.655273	56.082581
2927.074149	5603.299833	511.404297	160.270599
2927.074149	5603.299833	510.153320	271.178711
2927.074149	5603.299833	508.902344	218.226410
2927.074149	5603.299833	507.650391	103.401489
2927.074149	5603.299833	506.398438	92.815834
2927.074149	5603.299833	505.146484	148.765610
2927.074149	5603.299833	503.893555	49.872341
2927.074149	5603.299833	502.641602	94.972549
2927.074149	5603.299833	501.388672	301.674255
2927.074149	5603.299833	500.134766	302.692352
2927.074149	5603.299833	498.881836	359.105682
2927.074149	5603.299833	497.627930	201.140564
2927.074149	5603.299833	496.374023	308.614319
2927.074149	5603.299833	495.119141	186.307388
2927.074149	5603.299833	493.865234	455.246643
2927.074149	5603.299833	492.610352	485.596100
2927.074149	5603.299833	491.355469	403.395752
2927.074149	5603.299833	490.099609	288.211060
2927.074149	5603.299833	488.843750	285.763275
2927.074149	5603.299833	487.587891	267.961029
2927.074149	5603.299833	486.332031	647.465759
2927.074149	5603.299833	485.075195	614.334778
2927.074149	5603.299833	483.818359	557.042297
2927.074149	5603.299833	482.561523	530.730713
2927.074149	5603.299833	481.304688	636.800110
2927.074149	5603.299833	480.046875	584.193115
2927.074149	5603.299833	478.789063	734.435669
2927.074149	5603.299833	477.531250	556.380432
2927.074149	5603.299833	476.272461	638.414001
2927.074149	5603.299833	475.013672	462.791199
2927.074149	5603.299833	473.754883	773.931396
2927.074149	5603.299833	472.496094	816.410156
2927.074149	5603.299833	471.236328	753.274536
2927.074149	5603.299833	469.976563	754.025391
2927.074149	5603.299833	468.716797	721.812866
2927.074149	5603.299833	467.456055	1023.986145
2927.074149	5603.299833	466.196289	864.241516
2927.074149	5603.299833	464.935547	748.563599
2927.074149	5603.299833	463.673828	608.775513
2927.074149	5603.299833	462.413086	897.599121
2927.074149	5603.299833	461.151367	957.794800
2927.074149	5603.299833	459.889648	886.157288
2927.074149	5603.299833	458.626953	823.327209
2927.074149	5603.299833	457.364258	1006.433716
2927.074149	5603.299833	456.101563	844.771057
2927.074149	5603.299833	454.838867	913.601807
2927.074149	5603.299833	453.575195	901.172852
2927.074149	5603.299833	452.312500	857.979553
2927.074149	5603.299833	451.047852	898.103088
2927.074149	5603.299833	449.784180	944.716064
2927.074149	5603.299833	448.519531	853.108948
2927.074149	5603.299833	447.254883	1028.875732
2927.074149	5603.299833	445.990234	759.593262
2927.074149	5603.299833	444.725586	755.434143
2927.074149	5603.299833	443.459961	1049.077759
2927.074149	5603.299833	442.194336	1013.953003
2927.074149	5603.299833	440.927734	1000.600769
2927.074149	5603.299833	439.662109	1065.908203
2927.074149	5603.299833	438.395508	1082.875732
2927.074149	5603.299833	437.127930	1042.768921
2927.074149	5603.299833	435.861328	1199.382080
2927.074149	5603.299833	434.593750	1217.931152
2927.074149	5603.299833	433.326172	1266.869873
2927.074149	5603.299833	432.058594	1075.065430
2927.074149	5603.299833	430.790039	926.818054
2927.074149	5603.299833	429.521484	1042.804321
2927.074149	5603.299833	428.252930	1005.523071
2927.074149	5603.299833	426.984375	989.813538
2927.074149	5603.299833	425.714844	1098.290771
2927.074149	5603.299833	424.445313	1199.848389
2927.074149	5603.299833	423.174805	1187.508423
2927.074149	5603.299833	421.905273	1037.318848
2927.074149	5603.299833	420.634766	1329.773682
2927.074149	5603.299833	419.364258	1119.950317
2927.074149	5603.299833	418.092773	1293.678223
2927.074149	5603.299833	416.822266	1165.976685
2927.074149	5603.299833	415.550781	1153.427246
2927.074149	5603.299833	414.278320	1112.075317
2927.074149	5603.299833	413.006836	1105.119507
2927.074149	5603.299833	411.734375	1289.379883
2927.074149	5603.299833	410.461914	1141.932373
2927.074149	5603.299833	409.188477	1351.145508
2927.074149	5603.299833	407.916016	1058.910156
2927.074149	5603.299833	406.642578	1434.484375
2927.074149	5603.299833	405.368164	1128.061890
2927.074149	5603.299833	404.094727	1434.727295
2927.074149	5603.299833	402.820313	1270.687134
2927.074149	5603.299833	401.545898	1201.713867
2927.074149	5603.299833	400.270508	1175.523560
2927.074149	5603.299833	398.996094	1315.992920
2927.074149	5603.299833	397.720703	1438.223022
2927.074149	5603.299833	396.444336	1194.505493
2927.074149	5603.299833	395.168945	1204.252808
2927.074149	5603.299833	393.892578	1382.540771
2927.074149	5603.299833	392.616211	1388.291138
2927.074149	5603.299833	391.339844	1143.421509
2927.074149	5603.299833	390.062500	1214.603882
2927.074149	5603.299833	388.785156	1171.907959
2927.074149	5603.299833	387.507813	1219.328735
2927.074149	5603.299833	386.229492	1243.959351
2927.074149	5603.299833	384.951172	1226.272827
2927.074149	5603.299833	383.672852	1422.124634
2927.074149	5603.299833	382.394531	1324.059326
2927.074149	5603.299833	381.115234	1391.701538
2927.074149	5603.299833	379.835938	1302.049316
2927.074149	5603.299833	378.556641	1349.806274
2927.074149	5603.299833	377.277344	1194.782837
2927.074149	5603.299833	375.997070	1144.553345
2927.074149	5603.299833	374.716797	1302.948364
2927.074149	5603.299833	373.435547	1355.904907
2927.074149	5603.299833	372.155273	1126.040161
2927.074149	5603.299833	370.874023	1266.860229
2927.074149	5603.299833	369.591797	1280.549805
2927.074149	5603.299833	368.310547	1167.201050
2927.074149	5603.299833	367.028320	1140.853516
2927.074149	5603.299833	365.746094	1143.063110
2927.074149	5603.299833	364.463867	1149.989746
2927.074149	5603.299833	363.180664	988.681030
2927.074149	5603.299833	361.897461	1063.212524
2927.074149	5603.299833	360.614258	1036.439697
2927.074149	5603.299833	359.330078	986.076355
2927.074149	5603.299833	358.045898	888.372192
2927.074149	5603.299833	356.761719	918.137634
2927.074149	5603.299833	355.477539	814.119507
2927.074149	5603.299833	354.192383	908.560425
2927.074149	5603.299833	352.907227	1052.478516
2927.074149	5603.299833	351.622070	1142.268066
2927.074149	5603.299833	350.336914	1005.416504
2927.074149	5603.299833	349.050781	894.167908
2927.074149	5603.299833	347.764648	696.423645
2927.074149	5603.299833	346.477539	948.639282
2927.074149	5603.299833	345.191406	896.589050
2927.074149	5603.299833	343.904297	635.056641
2927.074149	5603.299833	342.616211	739.032471
2927.074149	5603.299833	341.329102	648.602051
2927.074149	5603.299833	340.041016	609.062317
2927.074149	5603.299833	338.752930	605.308167
2927.074149	5603.299833	337.463867	525.301086
2927.074149	5603.299833	336.175781	448.742645
2927.074149	5603.299833	334.886719	388.312042
2927.074149	5603.299833	333.596680	380.468231
2927.074149	5603.299833	332.307617	343.569672
2927.074149	5603.299833	331.017578	457.918518
2927.074149	5603.299833	329.727539	560.121704
2927.074149	5603.299833	328.436523	196.763931
2927.074149	5603.299833	327.146484	268.106628
2927.074149	5603.299833	325.855469	200.303085
2927.074149	5603.299833	324.563477	259.541534
2927.074149	5603.299833	323.272461	100.299843
2927.074149	5603.299833	321.980469	117.254662
2927.074149	5603.299833	320.688477	200.886978
2927.074149	5603.299833	319.395508	-185.256287
2927.074149	5603.299833	318.103516	106.488907
2927.074149	5603.299833	316.810547	20.565191
2927.074149	5603.299833	315.516602	7.230659
2927.074149	5603.299833	314.223633	-152.005737
2927.074149	5603.299833	312.929688	-91.026108
2927.074149	5603.299833	311.635742	-84.136292
2927.074149	5603.299833	310.340820	-63.009418
2927.074149	5603.299833	309.045898	17.329493
2927.074149	5603.299833	307.750977	-134.390915
2927.074149	5603.299833	306.456055	42.591484
2927.074149	5603.299833	305.160156	62.093811
2927.074149	5603.299833	303.865234	-163.308182
2927.074149	5603.299833	302.568359	125.226830
2927.074149	5603.299833	301.272461	147.232437
2927.074149	5603.299833	299.975586	362.075714
2927.074149	5603.299833	298.678711	350.745392
