#X		#Y		#Wave		#Intensity
12480.564043	3949.770833	1999.980469	-28.467127
12480.564043	3949.770833	1999.016602	82.501244
12480.564043	3949.770833	1998.052734	-32.217556
12480.564043	3949.770833	1997.087891	-194.596268
12480.564043	3949.770833	1996.123047	48.815338
12480.564043	3949.770833	1995.158203	-8.195180
12480.564043	3949.770833	1994.193359	172.014801
12480.564043	3949.770833	1993.228516	205.505432
12480.564043	3949.770833	1992.262695	119.619339
12480.564043	3949.770833	1991.297852	72.849564
12480.564043	3949.770833	1990.332031	-157.536133
12480.564043	3949.770833	1989.366211	79.355141
12480.564043	3949.770833	1988.399414	58.406414
12480.564043	3949.770833	1987.433594	-42.140743
12480.564043	3949.770833	1986.466797	-7.056141
12480.564043	3949.770833	1985.500977	-24.329636
12480.564043	3949.770833	1984.534180	-46.934677
12480.564043	3949.770833	1983.567383	-22.954380
12480.564043	3949.770833	1982.599609	-266.242767
12480.564043	3949.770833	1981.632813	140.015808
12480.564043	3949.770833	1980.665039	234.524078
12480.564043	3949.770833	1979.697266	10.057509
12480.564043	3949.770833	1978.729492	-22.026566
12480.564043	3949.770833	1977.761719	-27.242243
12480.564043	3949.770833	1976.792969	31.438269
12480.564043	3949.770833	1975.825195	176.199677
12480.564043	3949.770833	1974.856445	39.341557
12480.564043	3949.770833	1973.887695	116.920593
12480.564043	3949.770833	1972.918945	154.763885
12480.564043	3949.770833	1971.949219	-7.399483
12480.564043	3949.770833	1970.980469	185.345718
12480.564043	3949.770833	1970.010742	74.580284
12480.564043	3949.770833	1969.041016	173.169235
12480.564043	3949.770833	1968.071289	37.417717
12480.564043	3949.770833	1967.101563	-22.079397
12480.564043	3949.770833	1966.130859	199.109207
12480.564043	3949.770833	1965.161133	23.515614
12480.564043	3949.770833	1964.190430	219.678650
12480.564043	3949.770833	1963.219727	-39.856510
12480.564043	3949.770833	1962.249023	27.966589
12480.564043	3949.770833	1961.277344	179.316528
12480.564043	3949.770833	1960.306641	153.325119
12480.564043	3949.770833	1959.334961	119.851830
12480.564043	3949.770833	1958.363281	-26.860466
12480.564043	3949.770833	1957.391602	185.449509
12480.564043	3949.770833	1956.419922	198.424606
12480.564043	3949.770833	1955.447266	221.145477
12480.564043	3949.770833	1954.474609	160.213867
12480.564043	3949.770833	1953.501953	96.779747
12480.564043	3949.770833	1952.529297	77.534935
12480.564043	3949.770833	1951.556641	75.437576
12480.564043	3949.770833	1950.583984	-17.584633
12480.564043	3949.770833	1949.610352	115.303177
12480.564043	3949.770833	1948.636719	144.984085
12480.564043	3949.770833	1947.663086	226.171280
12480.564043	3949.770833	1946.689453	231.215485
12480.564043	3949.770833	1945.715820	115.995514
12480.564043	3949.770833	1944.741211	0.797312
12480.564043	3949.770833	1943.767578	189.794113
12480.564043	3949.770833	1942.792969	-8.784147
12480.564043	3949.770833	1941.818359	126.179840
12480.564043	3949.770833	1940.842773	3.674390
12480.564043	3949.770833	1939.868164	47.893566
12480.564043	3949.770833	1938.892578	65.141800
12480.564043	3949.770833	1937.916992	-59.719162
12480.564043	3949.770833	1936.941406	-35.088428
12480.564043	3949.770833	1935.965820	217.331985
12480.564043	3949.770833	1934.990234	148.878006
12480.564043	3949.770833	1934.013672	14.362085
12480.564043	3949.770833	1933.037109	95.335579
12480.564043	3949.770833	1932.060547	51.484531
12480.564043	3949.770833	1931.083984	-53.498306
12480.564043	3949.770833	1930.107422	-48.316811
12480.564043	3949.770833	1929.129883	88.980560
12480.564043	3949.770833	1928.153320	11.048479
12480.564043	3949.770833	1927.175781	94.559258
12480.564043	3949.770833	1926.198242	168.297440
12480.564043	3949.770833	1925.219727	117.388046
12480.564043	3949.770833	1924.242188	49.433159
12480.564043	3949.770833	1923.263672	27.966242
12480.564043	3949.770833	1922.285156	57.851273
12480.564043	3949.770833	1921.306641	-124.723221
12480.564043	3949.770833	1920.328125	154.351120
12480.564043	3949.770833	1919.349609	-194.107544
12480.564043	3949.770833	1918.370117	36.144459
12480.564043	3949.770833	1917.391602	-192.477753
12480.564043	3949.770833	1916.412109	-32.982853
12480.564043	3949.770833	1915.431641	-73.557793
12480.564043	3949.770833	1914.452148	-26.253885
12480.564043	3949.770833	1913.472656	16.203377
12480.564043	3949.770833	1912.492188	134.280975
12480.564043	3949.770833	1911.511719	79.271912
12480.564043	3949.770833	1910.531250	-165.786804
12480.564043	3949.770833	1909.550781	120.555855
12480.564043	3949.770833	1908.569336	2.375112
12480.564043	3949.770833	1907.588867	-203.410950
12480.564043	3949.770833	1906.607422	-119.235710
12480.564043	3949.770833	1905.625977	96.454742
12480.564043	3949.770833	1904.644531	-14.138989
12480.564043	3949.770833	1903.662109	70.092361
12480.564043	3949.770833	1902.680664	-227.766006
12480.564043	3949.770833	1901.698242	-216.436432
12480.564043	3949.770833	1900.715820	50.386349
12480.564043	3949.770833	1899.733398	71.476814
12480.564043	3949.770833	1898.750000	-131.140839
12480.564043	3949.770833	1897.767578	-29.701534
12480.564043	3949.770833	1896.784180	-151.918686
12480.564043	3949.770833	1895.800781	-50.434841
12480.564043	3949.770833	1894.817383	9.735135
12480.564043	3949.770833	1893.833984	227.850723
12480.564043	3949.770833	1892.850586	-132.241745
12480.564043	3949.770833	1891.866211	-16.122688
12480.564043	3949.770833	1890.881836	-103.995636
12480.564043	3949.770833	1889.897461	-94.689201
12480.564043	3949.770833	1888.913086	-65.937309
12480.564043	3949.770833	1887.927734	-129.393692
12480.564043	3949.770833	1886.943359	-61.767246
12480.564043	3949.770833	1885.958008	-23.254585
12480.564043	3949.770833	1884.972656	-55.076279
12480.564043	3949.770833	1883.987305	0.441751
12480.564043	3949.770833	1883.001953	-169.540115
12480.564043	3949.770833	1882.015625	19.349669
12480.564043	3949.770833	1881.029297	-99.638008
12480.564043	3949.770833	1880.042969	108.584869
12480.564043	3949.770833	1879.056641	38.109196
12480.564043	3949.770833	1878.070313	-54.130386
12480.564043	3949.770833	1877.083984	-15.540085
12480.564043	3949.770833	1876.096680	98.108986
12480.564043	3949.770833	1875.109375	-42.492123
12480.564043	3949.770833	1874.122070	136.484680
12480.564043	3949.770833	1873.134766	-8.907911
12480.564043	3949.770833	1872.146484	17.552067
12480.564043	3949.770833	1871.159180	-21.319794
12480.564043	3949.770833	1870.170898	0.286697
12480.564043	3949.770833	1869.182617	-40.999062
12480.564043	3949.770833	1868.194336	140.167526
12480.564043	3949.770833	1867.205078	-2.684077
12480.564043	3949.770833	1866.216797	-99.571281
12480.564043	3949.770833	1865.227539	-27.281698
12480.564043	3949.770833	1864.238281	146.439041
12480.564043	3949.770833	1863.249023	177.551682
12480.564043	3949.770833	1862.259766	27.492579
12480.564043	3949.770833	1861.269531	82.715828
12480.564043	3949.770833	1860.279297	120.992462
12480.564043	3949.770833	1859.290039	173.708832
12480.564043	3949.770833	1858.298828	228.787064
12480.564043	3949.770833	1857.308594	71.475525
12480.564043	3949.770833	1856.318359	-134.061798
12480.564043	3949.770833	1855.327148	-33.235233
12480.564043	3949.770833	1854.335938	43.398270
12480.564043	3949.770833	1853.344727	192.294556
12480.564043	3949.770833	1852.353516	87.971985
12480.564043	3949.770833	1851.362305	-11.536443
12480.564043	3949.770833	1850.370117	-77.321930
12480.564043	3949.770833	1849.377930	191.758987
12480.564043	3949.770833	1848.385742	140.310623
12480.564043	3949.770833	1847.393555	-0.283410
12480.564043	3949.770833	1846.401367	49.343918
12480.564043	3949.770833	1845.408203	228.896088
12480.564043	3949.770833	1844.415039	215.758072
12480.564043	3949.770833	1843.421875	106.297897
12480.564043	3949.770833	1842.428711	102.682434
12480.564043	3949.770833	1841.435547	106.217239
12480.564043	3949.770833	1840.441406	88.033272
12480.564043	3949.770833	1839.448242	67.379997
12480.564043	3949.770833	1838.454102	46.659035
12480.564043	3949.770833	1837.459961	278.275421
12480.564043	3949.770833	1836.464844	50.673313
12480.564043	3949.770833	1835.470703	185.925140
12480.564043	3949.770833	1834.475586	71.181946
12480.564043	3949.770833	1833.480469	199.003433
12480.564043	3949.770833	1832.485352	197.004883
12480.564043	3949.770833	1831.490234	290.964630
12480.564043	3949.770833	1830.495117	216.750977
12480.564043	3949.770833	1829.499023	53.662094
12480.564043	3949.770833	1828.502930	75.323639
12480.564043	3949.770833	1827.506836	101.680077
12480.564043	3949.770833	1826.510742	262.265747
12480.564043	3949.770833	1825.513672	372.321960
12480.564043	3949.770833	1824.517578	139.327499
12480.564043	3949.770833	1823.520508	-2.579009
12480.564043	3949.770833	1822.523438	227.009033
12480.564043	3949.770833	1821.526367	202.361420
12480.564043	3949.770833	1820.529297	196.785110
12480.564043	3949.770833	1819.531250	121.620529
12480.564043	3949.770833	1818.533203	96.673210
12480.564043	3949.770833	1817.535156	-50.513508
12480.564043	3949.770833	1816.537109	34.493401
12480.564043	3949.770833	1815.539063	282.136749
12480.564043	3949.770833	1814.540039	362.022156
12480.564043	3949.770833	1813.541992	51.702366
12480.564043	3949.770833	1812.542969	26.088293
12480.564043	3949.770833	1811.543945	93.651482
12480.564043	3949.770833	1810.543945	103.662247
12480.564043	3949.770833	1809.544922	-53.836403
12480.564043	3949.770833	1808.544922	53.964085
12480.564043	3949.770833	1807.544922	281.111023
12480.564043	3949.770833	1806.544922	218.870728
12480.564043	3949.770833	1805.544922	161.301514
12480.564043	3949.770833	1804.544922	158.567230
12480.564043	3949.770833	1803.543945	-73.600578
12480.564043	3949.770833	1802.542969	-7.311055
12480.564043	3949.770833	1801.541992	77.917107
12480.564043	3949.770833	1800.541016	60.329891
12480.564043	3949.770833	1799.539063	188.190689
12480.564043	3949.770833	1798.538086	129.743851
12480.564043	3949.770833	1797.536133	85.486877
12480.564043	3949.770833	1796.534180	95.966858
12480.564043	3949.770833	1795.532227	37.138916
12480.564043	3949.770833	1794.529297	40.177052
12480.564043	3949.770833	1793.527344	-52.283207
12480.564043	3949.770833	1792.524414	-28.068825
12480.564043	3949.770833	1791.521484	124.674774
12480.564043	3949.770833	1790.518555	229.560104
12480.564043	3949.770833	1789.514648	-27.838989
12480.564043	3949.770833	1788.511719	129.135086
12480.564043	3949.770833	1787.507813	21.573082
12480.564043	3949.770833	1786.503906	-0.391258
12480.564043	3949.770833	1785.500000	203.635025
12480.564043	3949.770833	1784.496094	93.284149
12480.564043	3949.770833	1783.491211	30.402752
12480.564043	3949.770833	1782.486328	-30.230185
12480.564043	3949.770833	1781.481445	-86.236229
12480.564043	3949.770833	1780.476563	62.140041
12480.564043	3949.770833	1779.471680	-148.719955
12480.564043	3949.770833	1778.465820	-91.042450
12480.564043	3949.770833	1777.460938	61.536854
12480.564043	3949.770833	1776.455078	4.777712
12480.564043	3949.770833	1775.449219	90.434013
12480.564043	3949.770833	1774.442383	83.249771
12480.564043	3949.770833	1773.436523	-16.702377
12480.564043	3949.770833	1772.429688	13.811853
12480.564043	3949.770833	1771.422852	-38.934372
12480.564043	3949.770833	1770.416016	107.560783
12480.564043	3949.770833	1769.409180	-35.680298
12480.564043	3949.770833	1768.402344	205.349152
12480.564043	3949.770833	1767.394531	310.899200
12480.564043	3949.770833	1766.386719	10.674540
12480.564043	3949.770833	1765.378906	-52.461472
12480.564043	3949.770833	1764.371094	111.871117
12480.564043	3949.770833	1763.362305	-8.480477
12480.564043	3949.770833	1762.354492	55.923306
12480.564043	3949.770833	1761.345703	-33.887348
12480.564043	3949.770833	1760.336914	-66.965408
12480.564043	3949.770833	1759.328125	58.508705
12480.564043	3949.770833	1758.318359	-133.572479
12480.564043	3949.770833	1757.308594	176.220062
12480.564043	3949.770833	1756.299805	-84.768005
12480.564043	3949.770833	1755.290039	134.640335
12480.564043	3949.770833	1754.279297	48.530983
12480.564043	3949.770833	1753.269531	-94.472893
12480.564043	3949.770833	1752.258789	119.594971
12480.564043	3949.770833	1751.249023	-35.507801
12480.564043	3949.770833	1750.238281	29.184528
12480.564043	3949.770833	1749.226563	29.851753
12480.564043	3949.770833	1748.215820	32.738777
12480.564043	3949.770833	1747.204102	-356.839813
12480.564043	3949.770833	1746.193359	-70.656090
12480.564043	3949.770833	1745.181641	-306.823700
12480.564043	3949.770833	1744.168945	-30.542591
12480.564043	3949.770833	1743.157227	-146.502792
12480.564043	3949.770833	1742.144531	134.058182
12480.564043	3949.770833	1741.132813	88.622810
12480.564043	3949.770833	1740.120117	-100.924843
12480.564043	3949.770833	1739.106445	-224.497452
12480.564043	3949.770833	1738.093750	-256.148743
12480.564043	3949.770833	1737.080078	-87.461243
12480.564043	3949.770833	1736.067383	196.584229
12480.564043	3949.770833	1735.053711	-85.518196
12480.564043	3949.770833	1734.040039	35.451599
12480.564043	3949.770833	1733.025391	-55.909653
12480.564043	3949.770833	1732.011719	-97.879478
12480.564043	3949.770833	1730.997070	-69.311363
12480.564043	3949.770833	1729.982422	-0.852719
12480.564043	3949.770833	1728.967773	234.651840
12480.564043	3949.770833	1727.952148	74.324890
12480.564043	3949.770833	1726.937500	24.583712
12480.564043	3949.770833	1725.921875	-32.355076
12480.564043	3949.770833	1724.906250	-162.362717
12480.564043	3949.770833	1723.890625	65.180161
12480.564043	3949.770833	1722.875000	47.848045
12480.564043	3949.770833	1721.858398	-11.963642
12480.564043	3949.770833	1720.841797	43.338310
12480.564043	3949.770833	1719.825195	-258.874664
12480.564043	3949.770833	1718.808594	59.460281
12480.564043	3949.770833	1717.791992	-68.987518
12480.564043	3949.770833	1716.774414	86.784286
12480.564043	3949.770833	1715.756836	-44.240715
12480.564043	3949.770833	1714.739258	151.143967
12480.564043	3949.770833	1713.721680	-66.983063
12480.564043	3949.770833	1712.704102	-245.234619
12480.564043	3949.770833	1711.685547	-106.647850
12480.564043	3949.770833	1710.667969	64.641068
12480.564043	3949.770833	1709.649414	19.844358
12480.564043	3949.770833	1708.630859	150.906494
12480.564043	3949.770833	1707.611328	159.808563
12480.564043	3949.770833	1706.592773	112.327370
12480.564043	3949.770833	1705.573242	-101.746483
12480.564043	3949.770833	1704.553711	82.686272
12480.564043	3949.770833	1703.534180	102.867500
12480.564043	3949.770833	1702.513672	120.570831
12480.564043	3949.770833	1701.494141	131.150360
12480.564043	3949.770833	1700.473633	1.052035
12480.564043	3949.770833	1699.453125	133.211639
12480.564043	3949.770833	1698.432617	143.455093
12480.564043	3949.770833	1697.412109	15.465792
12480.564043	3949.770833	1696.390625	79.347008
12480.564043	3949.770833	1695.369141	199.273224
12480.564043	3949.770833	1694.347656	-24.894415
12480.564043	3949.770833	1693.326172	29.315628
12480.564043	3949.770833	1692.304688	-190.239380
12480.564043	3949.770833	1691.282227	55.536701
12480.564043	3949.770833	1690.260742	142.164047
12480.564043	3949.770833	1689.238281	198.264679
12480.564043	3949.770833	1688.214844	67.268959
12480.564043	3949.770833	1687.192383	95.155563
12480.564043	3949.770833	1686.168945	-157.416763
12480.564043	3949.770833	1685.146484	68.884468
12480.564043	3949.770833	1684.123047	56.797829
12480.564043	3949.770833	1683.099609	336.501801
12480.564043	3949.770833	1682.075195	296.186768
12480.564043	3949.770833	1681.051758	104.128120
12480.564043	3949.770833	1680.027344	161.740768
12480.564043	3949.770833	1679.002930	328.919281
12480.564043	3949.770833	1677.978516	465.644196
12480.564043	3949.770833	1676.953125	511.276520
12480.564043	3949.770833	1675.928711	647.787598
12480.564043	3949.770833	1674.903320	411.161194
12480.564043	3949.770833	1673.877930	549.832214
12480.564043	3949.770833	1672.852539	299.219696
12480.564043	3949.770833	1671.826172	628.784119
12480.564043	3949.770833	1670.800781	799.785400
12480.564043	3949.770833	1669.774414	658.558411
12480.564043	3949.770833	1668.748047	782.797119
12480.564043	3949.770833	1667.721680	324.908020
12480.564043	3949.770833	1666.694336	672.511475
12480.564043	3949.770833	1665.667969	768.618774
12480.564043	3949.770833	1664.640625	894.876099
12480.564043	3949.770833	1663.613281	704.665161
12480.564043	3949.770833	1662.585938	888.960632
12480.564043	3949.770833	1661.557617	1189.403442
12480.564043	3949.770833	1660.530273	1061.920166
12480.564043	3949.770833	1659.501953	918.163635
12480.564043	3949.770833	1658.473633	1111.430664
12480.564043	3949.770833	1657.444336	1032.708740
12480.564043	3949.770833	1656.416016	1181.689331
12480.564043	3949.770833	1655.386719	910.152954
12480.564043	3949.770833	1654.358398	1333.090942
12480.564043	3949.770833	1653.328125	1168.378540
12480.564043	3949.770833	1652.298828	1233.555908
12480.564043	3949.770833	1651.269531	1298.694336
12480.564043	3949.770833	1650.239258	1530.852783
12480.564043	3949.770833	1649.208984	1565.708130
12480.564043	3949.770833	1648.178711	1340.748779
12480.564043	3949.770833	1647.148438	1463.745483
12480.564043	3949.770833	1646.117188	1398.856445
12480.564043	3949.770833	1645.086914	1408.198242
12480.564043	3949.770833	1644.055664	1387.385132
12480.564043	3949.770833	1643.024414	1443.058105
12480.564043	3949.770833	1641.992188	1317.976074
12480.564043	3949.770833	1640.960938	1653.947632
12480.564043	3949.770833	1639.928711	1762.810059
12480.564043	3949.770833	1638.896484	1811.438477
12480.564043	3949.770833	1637.864258	1739.676636
12480.564043	3949.770833	1636.832031	1628.610840
12480.564043	3949.770833	1635.798828	1628.668091
12480.564043	3949.770833	1634.766602	1892.538574
12480.564043	3949.770833	1633.733398	1594.171143
12480.564043	3949.770833	1632.699219	1980.534790
12480.564043	3949.770833	1631.666016	1793.316650
12480.564043	3949.770833	1630.632813	1728.734619
12480.564043	3949.770833	1629.598633	1925.392090
12480.564043	3949.770833	1628.564453	1941.742798
12480.564043	3949.770833	1627.530273	2205.360107
12480.564043	3949.770833	1626.495117	2147.777832
12480.564043	3949.770833	1625.460938	2272.748047
12480.564043	3949.770833	1624.425781	2369.979980
12480.564043	3949.770833	1623.390625	2358.702637
12480.564043	3949.770833	1622.355469	2384.411377
12480.564043	3949.770833	1621.319336	2490.915283
12480.564043	3949.770833	1620.284180	2396.697754
12480.564043	3949.770833	1619.248047	2321.005127
12480.564043	3949.770833	1618.211914	2559.092773
12480.564043	3949.770833	1617.174805	2628.776367
12480.564043	3949.770833	1616.138672	2647.788086
12480.564043	3949.770833	1615.101563	2749.819824
12480.564043	3949.770833	1614.065430	2605.281982
12480.564043	3949.770833	1613.027344	2739.651123
12480.564043	3949.770833	1611.990234	2837.193359
12480.564043	3949.770833	1610.953125	2835.718018
12480.564043	3949.770833	1609.915039	2898.777832
12480.564043	3949.770833	1608.876953	2952.675781
12480.564043	3949.770833	1607.838867	2889.220703
12480.564043	3949.770833	1606.800781	2662.449463
12480.564043	3949.770833	1605.761719	3011.127441
12480.564043	3949.770833	1604.723633	2782.280518
12480.564043	3949.770833	1603.684570	2790.515625
12480.564043	3949.770833	1602.644531	2833.311523
12480.564043	3949.770833	1601.605469	2931.383057
12480.564043	3949.770833	1600.566406	2840.989502
12480.564043	3949.770833	1599.526367	2667.957520
12480.564043	3949.770833	1598.486328	2736.380615
12480.564043	3949.770833	1597.446289	2786.488770
12480.564043	3949.770833	1596.405273	2531.134277
12480.564043	3949.770833	1595.365234	2811.128418
12480.564043	3949.770833	1594.324219	2817.841064
12480.564043	3949.770833	1593.283203	2792.508057
12480.564043	3949.770833	1592.242188	2535.457275
12480.564043	3949.770833	1591.200195	2615.947510
12480.564043	3949.770833	1590.159180	2283.526855
12480.564043	3949.770833	1589.117188	2488.127441
12480.564043	3949.770833	1588.075195	2573.493652
12480.564043	3949.770833	1587.032227	2390.623291
12480.564043	3949.770833	1585.990234	2600.006592
12480.564043	3949.770833	1584.947266	2240.932129
12480.564043	3949.770833	1583.904297	2503.187012
12480.564043	3949.770833	1582.861328	2440.090820
12480.564043	3949.770833	1581.818359	2762.006836
12480.564043	3949.770833	1580.775391	2405.952148
12480.564043	3949.770833	1579.731445	2556.229492
12480.564043	3949.770833	1578.687500	2468.463623
12480.564043	3949.770833	1577.643555	2483.868408
12480.564043	3949.770833	1576.598633	2478.780762
12480.564043	3949.770833	1575.554688	2327.397461
12480.564043	3949.770833	1574.509766	2306.593018
12480.564043	3949.770833	1573.464844	2356.834961
12480.564043	3949.770833	1572.419922	2153.353027
12480.564043	3949.770833	1571.374023	2103.260010
12480.564043	3949.770833	1570.329102	2361.944336
12480.564043	3949.770833	1569.283203	2138.411133
12480.564043	3949.770833	1568.237305	2317.277100
12480.564043	3949.770833	1567.191406	2432.245117
12480.564043	3949.770833	1566.144531	2197.822510
12480.564043	3949.770833	1565.098633	2313.061035
12480.564043	3949.770833	1564.051758	2250.290527
12480.564043	3949.770833	1563.004883	2187.694092
12480.564043	3949.770833	1561.957031	2401.424316
12480.564043	3949.770833	1560.910156	2056.165771
12480.564043	3949.770833	1559.862305	1968.988403
12480.564043	3949.770833	1558.814453	1815.847778
12480.564043	3949.770833	1557.766602	1943.436279
12480.564043	3949.770833	1556.718750	1870.477783
12480.564043	3949.770833	1555.669922	1711.067139
12480.564043	3949.770833	1554.621094	1870.969604
12480.564043	3949.770833	1553.573242	1682.328491
12480.564043	3949.770833	1552.523438	1644.268921
12480.564043	3949.770833	1551.474609	1515.283203
12480.564043	3949.770833	1550.424805	1566.418579
12480.564043	3949.770833	1549.375000	1417.324829
12480.564043	3949.770833	1548.325195	1250.243408
12480.564043	3949.770833	1547.275391	1402.048218
12480.564043	3949.770833	1546.225586	1142.071411
12480.564043	3949.770833	1545.174805	939.234558
12480.564043	3949.770833	1544.124023	1071.036255
12480.564043	3949.770833	1543.073242	1182.489258
12480.564043	3949.770833	1542.022461	1289.525024
12480.564043	3949.770833	1540.970703	916.993530
12480.564043	3949.770833	1539.919922	1028.934204
12480.564043	3949.770833	1538.868164	1077.366211
12480.564043	3949.770833	1537.815430	864.658203
12480.564043	3949.770833	1536.763672	918.002869
12480.564043	3949.770833	1535.710938	1003.290466
12480.564043	3949.770833	1534.659180	932.055847
12480.564043	3949.770833	1533.606445	1072.155640
12480.564043	3949.770833	1532.552734	978.580444
12480.564043	3949.770833	1531.500000	892.042664
12480.564043	3949.770833	1530.446289	689.998657
12480.564043	3949.770833	1529.393555	726.418884
12480.564043	3949.770833	1528.338867	581.547852
12480.564043	3949.770833	1527.285156	758.926514
12480.564043	3949.770833	1526.231445	768.654358
12480.564043	3949.770833	1525.176758	642.555237
12480.564043	3949.770833	1524.122070	473.636902
12480.564043	3949.770833	1523.067383	440.921417
12480.564043	3949.770833	1522.012695	501.288239
12480.564043	3949.770833	1520.957031	382.886017
12480.564043	3949.770833	1519.901367	328.127045
12480.564043	3949.770833	1518.845703	142.269608
12480.564043	3949.770833	1517.790039	239.621780
12480.564043	3949.770833	1516.734375	106.291428
12480.564043	3949.770833	1515.677734	93.121391
12480.564043	3949.770833	1514.621094	453.413574
12480.564043	3949.770833	1513.564453	-47.969379
12480.564043	3949.770833	1512.507813	143.000259
12480.564043	3949.770833	1511.450195	-11.828141
12480.564043	3949.770833	1510.393555	91.294136
12480.564043	3949.770833	1509.335938	2.469938
12480.564043	3949.770833	1508.278320	72.042885
12480.564043	3949.770833	1507.219727	-54.758083
12480.564043	3949.770833	1506.162109	-75.150642
12480.564043	3949.770833	1505.103516	216.285843
12480.564043	3949.770833	1504.044922	-49.852879
12480.564043	3949.770833	1502.986328	20.647232
12480.564043	3949.770833	1501.926758	-32.811211
12480.564043	3949.770833	1500.868164	20.004305
12480.564043	3949.770833	1499.808594	-168.389084
12480.564043	3949.770833	1498.749023	-209.902542
12480.564043	3949.770833	1497.688477	23.912155
12480.564043	3949.770833	1496.628906	72.961708
12480.564043	3949.770833	1495.568359	43.293976
12480.564043	3949.770833	1494.507813	115.254784
12480.564043	3949.770833	1493.447266	-146.091415
12480.564043	3949.770833	1492.386719	97.493637
12480.564043	3949.770833	1491.325195	133.964035
12480.564043	3949.770833	1490.263672	-52.317646
12480.564043	3949.770833	1489.202148	25.097734
12480.564043	3949.770833	1488.140625	17.144644
12480.564043	3949.770833	1487.079102	106.170616
12480.564043	3949.770833	1486.016602	103.105202
12480.564043	3949.770833	1484.954102	95.744507
12480.564043	3949.770833	1483.891602	183.055161
12480.564043	3949.770833	1482.829102	90.628746
12480.564043	3949.770833	1481.765625	-78.004890
12480.564043	3949.770833	1480.702148	108.792297
12480.564043	3949.770833	1479.638672	304.675354
12480.564043	3949.770833	1478.575195	300.712311
12480.564043	3949.770833	1477.511719	177.890244
12480.564043	3949.770833	1476.447266	235.012238
12480.564043	3949.770833	1475.382813	400.062012
12480.564043	3949.770833	1474.318359	661.699402
12480.564043	3949.770833	1473.253906	416.290222
12480.564043	3949.770833	1472.189453	586.270630
12480.564043	3949.770833	1471.124023	550.059814
12480.564043	3949.770833	1470.058594	558.829895
12480.564043	3949.770833	1468.993164	345.782654
12480.564043	3949.770833	1467.927734	353.006439
12480.564043	3949.770833	1466.861328	203.220932
12480.564043	3949.770833	1465.794922	277.796692
12480.564043	3949.770833	1464.728516	467.006622
12480.564043	3949.770833	1463.662109	467.738922
12480.564043	3949.770833	1462.594727	692.978516
12480.564043	3949.770833	1461.528320	524.308716
12480.564043	3949.770833	1460.460938	340.391479
12480.564043	3949.770833	1459.393555	462.837494
12480.564043	3949.770833	1458.326172	549.408752
12480.564043	3949.770833	1457.257813	520.395752
12480.564043	3949.770833	1456.189453	288.950500
12480.564043	3949.770833	1455.121094	567.611389
12480.564043	3949.770833	1454.052734	296.822968
12480.564043	3949.770833	1452.984375	373.079773
12480.564043	3949.770833	1451.915039	370.082184
12480.564043	3949.770833	1450.845703	328.583740
12480.564043	3949.770833	1449.776367	466.608185
12480.564043	3949.770833	1448.707031	625.440796
12480.564043	3949.770833	1447.636719	643.713379
12480.564043	3949.770833	1446.567383	625.599731
12480.564043	3949.770833	1445.497070	621.341797
12480.564043	3949.770833	1444.425781	484.086700
12480.564043	3949.770833	1443.355469	342.274780
12480.564043	3949.770833	1442.285156	280.126892
12480.564043	3949.770833	1441.213867	243.070633
12480.564043	3949.770833	1440.142578	537.465088
12480.564043	3949.770833	1439.070313	356.352417
12480.564043	3949.770833	1437.999023	478.173126
12480.564043	3949.770833	1436.926758	384.242065
12480.564043	3949.770833	1435.854492	289.442932
12480.564043	3949.770833	1434.782227	151.831467
12480.564043	3949.770833	1433.709961	532.075623
12480.564043	3949.770833	1432.636719	364.096405
12480.564043	3949.770833	1431.563477	374.235809
12480.564043	3949.770833	1430.490234	182.141296
12480.564043	3949.770833	1429.416992	84.852837
12480.564043	3949.770833	1428.343750	86.889915
12480.564043	3949.770833	1427.269531	86.260185
12480.564043	3949.770833	1426.195313	51.158314
12480.564043	3949.770833	1425.121094	-210.468521
12480.564043	3949.770833	1424.046875	-75.401695
12480.564043	3949.770833	1422.971680	23.358246
12480.564043	3949.770833	1421.896484	-51.341400
12480.564043	3949.770833	1420.821289	-46.593540
12480.564043	3949.770833	1419.746094	0.976666
12480.564043	3949.770833	1418.669922	-89.754822
12480.564043	3949.770833	1417.594727	-189.159409
12480.564043	3949.770833	1416.518555	-102.317902
12480.564043	3949.770833	1415.442383	-47.514828
12480.564043	3949.770833	1414.365234	-26.953764
12480.564043	3949.770833	1413.289063	-115.057144
12480.564043	3949.770833	1412.211914	18.535786
12480.564043	3949.770833	1411.134766	-27.494314
12480.564043	3949.770833	1410.057617	112.308365
12480.564043	3949.770833	1408.979492	-22.106758
12480.564043	3949.770833	1407.902344	124.294418
12480.564043	3949.770833	1406.824219	356.155243
12480.564043	3949.770833	1405.746094	161.865616
12480.564043	3949.770833	1404.666992	247.847122
12480.564043	3949.770833	1403.588867	366.576080
12480.564043	3949.770833	1402.509766	306.318024
12480.564043	3949.770833	1401.430664	309.899689
12480.564043	3949.770833	1400.351563	550.874512
12480.564043	3949.770833	1399.271484	200.406876
12480.564043	3949.770833	1398.192383	167.738342
12480.564043	3949.770833	1397.112305	283.536072
12480.564043	3949.770833	1396.031250	506.480743
12480.564043	3949.770833	1394.951172	827.180298
12480.564043	3949.770833	1393.871094	829.672424
12480.564043	3949.770833	1392.790039	837.299011
12480.564043	3949.770833	1391.708984	928.117004
12480.564043	3949.770833	1390.626953	1073.759521
12480.564043	3949.770833	1389.545898	1277.566772
12480.564043	3949.770833	1388.463867	1423.746704
12480.564043	3949.770833	1387.381836	1340.540527
12480.564043	3949.770833	1386.299805	1543.018066
12480.564043	3949.770833	1385.217773	1446.448364
12480.564043	3949.770833	1384.134766	1480.907715
12480.564043	3949.770833	1383.051758	1584.558472
12480.564043	3949.770833	1381.968750	1346.257446
12480.564043	3949.770833	1380.885742	1409.806152
12480.564043	3949.770833	1379.802734	1085.518555
12480.564043	3949.770833	1378.718750	1334.790527
12480.564043	3949.770833	1377.634766	1096.081787
12480.564043	3949.770833	1376.550781	1065.881226
12480.564043	3949.770833	1375.465820	1142.628174
12480.564043	3949.770833	1374.381836	982.796936
12480.564043	3949.770833	1373.296875	956.741516
12480.564043	3949.770833	1372.211914	896.482422
12480.564043	3949.770833	1371.126953	824.892273
12480.564043	3949.770833	1370.041016	841.468384
12480.564043	3949.770833	1368.955078	833.523193
12480.564043	3949.770833	1367.869141	814.103027
12480.564043	3949.770833	1366.783203	804.836182
12480.564043	3949.770833	1365.697266	1057.168579
12480.564043	3949.770833	1364.610352	942.580322
12480.564043	3949.770833	1363.523438	1103.552246
12480.564043	3949.770833	1362.436523	1067.358276
12480.564043	3949.770833	1361.349609	1376.309448
12480.564043	3949.770833	1360.261719	1338.703613
12480.564043	3949.770833	1359.174805	1393.040039
12480.564043	3949.770833	1358.086914	1338.950562
12480.564043	3949.770833	1356.998047	1515.083008
12480.564043	3949.770833	1355.910156	1389.120117
12480.564043	3949.770833	1354.821289	1372.174194
12480.564043	3949.770833	1353.732422	1361.454834
12480.564043	3949.770833	1352.643555	1310.775024
12480.564043	3949.770833	1351.554688	1203.016113
12480.564043	3949.770833	1350.464844	948.997070
12480.564043	3949.770833	1349.375000	1171.906738
12480.564043	3949.770833	1348.285156	986.874390
12480.564043	3949.770833	1347.195313	1123.007935
12480.564043	3949.770833	1346.105469	1064.857544
12480.564043	3949.770833	1345.014648	1076.619751
12480.564043	3949.770833	1343.923828	838.185913
12480.564043	3949.770833	1342.833008	818.244995
12480.564043	3949.770833	1341.741211	694.414490
12480.564043	3949.770833	1340.650391	845.575012
12480.564043	3949.770833	1339.558594	722.897705
12480.564043	3949.770833	1338.466797	943.875427
12480.564043	3949.770833	1337.374023	748.632568
12480.564043	3949.770833	1336.282227	709.659790
12480.564043	3949.770833	1335.189453	542.417664
12480.564043	3949.770833	1334.096680	905.407532
12480.564043	3949.770833	1333.003906	718.035156
12480.564043	3949.770833	1331.910156	515.284729
12480.564043	3949.770833	1330.817383	728.349365
12480.564043	3949.770833	1329.723633	674.350403
12480.564043	3949.770833	1328.629883	526.748901
12480.564043	3949.770833	1327.535156	739.813416
12480.564043	3949.770833	1326.441406	676.579529
12480.564043	3949.770833	1325.346680	510.642578
12480.564043	3949.770833	1324.251953	585.021973
12480.564043	3949.770833	1323.156250	605.798096
12480.564043	3949.770833	1322.061523	550.318542
12480.564043	3949.770833	1320.965820	541.019897
12480.564043	3949.770833	1319.870117	465.516235
12480.564043	3949.770833	1318.774414	505.637054
12480.564043	3949.770833	1317.678711	673.765747
12480.564043	3949.770833	1316.582031	599.604797
12480.564043	3949.770833	1315.485352	618.857056
12480.564043	3949.770833	1314.388672	485.210510
12480.564043	3949.770833	1313.291016	546.659851
12480.564043	3949.770833	1312.194336	610.425232
12480.564043	3949.770833	1311.096680	730.466370
12480.564043	3949.770833	1309.999023	682.853943
12480.564043	3949.770833	1308.901367	574.559265
12480.564043	3949.770833	1307.802734	680.404236
12480.564043	3949.770833	1306.705078	750.812073
12480.564043	3949.770833	1305.606445	828.254272
12480.564043	3949.770833	1304.506836	963.648499
12480.564043	3949.770833	1303.408203	1090.472412
12480.564043	3949.770833	1302.308594	1336.802246
12480.564043	3949.770833	1301.208984	1356.947876
12480.564043	3949.770833	1300.109375	1181.216553
12480.564043	3949.770833	1299.009766	1430.556152
12480.564043	3949.770833	1297.909180	1457.968506
12480.564043	3949.770833	1296.808594	1645.058472
12480.564043	3949.770833	1295.708008	1962.050293
12480.564043	3949.770833	1294.607422	1760.521729
12480.564043	3949.770833	1293.506836	1818.482178
12480.564043	3949.770833	1292.405273	1776.621094
12480.564043	3949.770833	1291.303711	1717.624268
12480.564043	3949.770833	1290.202148	1612.901611
12480.564043	3949.770833	1289.099609	1423.323242
12480.564043	3949.770833	1287.998047	1221.377441
12480.564043	3949.770833	1286.895508	1132.391602
12480.564043	3949.770833	1285.792969	829.091919
12480.564043	3949.770833	1284.689453	747.529907
12480.564043	3949.770833	1283.586914	557.361023
12480.564043	3949.770833	1282.483398	555.534851
12480.564043	3949.770833	1281.379883	573.957031
12480.564043	3949.770833	1280.276367	452.420319
12480.564043	3949.770833	1279.171875	389.161987
12480.564043	3949.770833	1278.067383	274.018433
12480.564043	3949.770833	1276.962891	212.722855
12480.564043	3949.770833	1275.858398	164.368774
12480.564043	3949.770833	1274.753906	216.545837
12480.564043	3949.770833	1273.648438	217.464951
12480.564043	3949.770833	1272.542969	218.077866
12480.564043	3949.770833	1271.437500	166.255508
12480.564043	3949.770833	1270.331055	15.856212
12480.564043	3949.770833	1269.225586	182.767258
12480.564043	3949.770833	1268.119141	186.501419
12480.564043	3949.770833	1267.012695	219.607239
12480.564043	3949.770833	1265.906250	80.925430
12480.564043	3949.770833	1264.798828	-1.067567
12480.564043	3949.770833	1263.691406	14.572421
12480.564043	3949.770833	1262.583984	15.466385
12480.564043	3949.770833	1261.476563	-103.077171
12480.564043	3949.770833	1260.368164	241.354660
12480.564043	3949.770833	1259.260742	87.491470
12480.564043	3949.770833	1258.152344	86.213844
12480.564043	3949.770833	1257.043945	35.115570
12480.564043	3949.770833	1255.934570	6.345815
12480.564043	3949.770833	1254.825195	-38.003498
12480.564043	3949.770833	1253.716797	-31.514139
12480.564043	3949.770833	1252.606445	-19.484800
12480.564043	3949.770833	1251.497070	74.975983
12480.564043	3949.770833	1250.387695	-115.788300
12480.564043	3949.770833	1249.277344	-34.279984
12480.564043	3949.770833	1248.166992	14.018891
12480.564043	3949.770833	1247.055664	-135.370636
12480.564043	3949.770833	1245.945313	85.656944
12480.564043	3949.770833	1244.833984	-96.790932
12480.564043	3949.770833	1243.722656	-116.534966
12480.564043	3949.770833	1242.611328	-142.874863
12480.564043	3949.770833	1241.499023	14.088188
12480.564043	3949.770833	1240.387695	-104.674606
12480.564043	3949.770833	1239.275391	-52.798340
12480.564043	3949.770833	1238.162109	40.967003
12480.564043	3949.770833	1237.049805	-13.319205
12480.564043	3949.770833	1235.936523	62.696980
12480.564043	3949.770833	1234.823242	43.714798
12480.564043	3949.770833	1233.709961	-27.685480
12480.564043	3949.770833	1232.596680	97.147713
12480.564043	3949.770833	1231.482422	103.366806
12480.564043	3949.770833	1230.369141	190.822815
12480.564043	3949.770833	1229.253906	29.866056
12480.564043	3949.770833	1228.139648	78.103722
12480.564043	3949.770833	1227.025391	152.444122
12480.564043	3949.770833	1225.910156	144.213303
12480.564043	3949.770833	1224.794922	64.989983
12480.564043	3949.770833	1223.679688	158.225601
12480.564043	3949.770833	1222.563477	34.086945
12480.564043	3949.770833	1221.447266	56.406780
12480.564043	3949.770833	1220.331055	51.435452
12480.564043	3949.770833	1219.214844	203.392044
12480.564043	3949.770833	1218.098633	119.827705
12480.564043	3949.770833	1216.981445	199.767395
12480.564043	3949.770833	1215.864258	20.116470
12480.564043	3949.770833	1214.747070	70.964203
12480.564043	3949.770833	1213.629883	-85.641144
12480.564043	3949.770833	1212.511719	-14.072261
12480.564043	3949.770833	1211.393555	138.087234
12480.564043	3949.770833	1210.275391	42.912998
12480.564043	3949.770833	1209.157227	66.189651
12480.564043	3949.770833	1208.038086	147.546280
12480.564043	3949.770833	1206.918945	91.238419
12480.564043	3949.770833	1205.799805	-9.252975
12480.564043	3949.770833	1204.680664	191.508163
12480.564043	3949.770833	1203.560547	110.064758
12480.564043	3949.770833	1202.441406	228.790451
12480.564043	3949.770833	1201.321289	-10.216741
12480.564043	3949.770833	1200.200195	-6.422262
12480.564043	3949.770833	1199.080078	-120.304634
12480.564043	3949.770833	1197.958984	-235.124557
12480.564043	3949.770833	1196.837891	42.212055
12480.564043	3949.770833	1195.716797	101.053467
12480.564043	3949.770833	1194.594727	40.211739
12480.564043	3949.770833	1193.473633	-55.826099
12480.564043	3949.770833	1192.351563	-51.590858
12480.564043	3949.770833	1191.229492	-32.947060
12480.564043	3949.770833	1190.106445	25.237474
12480.564043	3949.770833	1188.984375	18.154425
12480.564043	3949.770833	1187.861328	14.450250
12480.564043	3949.770833	1186.738281	-29.499029
12480.564043	3949.770833	1185.614258	-22.916927
12480.564043	3949.770833	1184.491211	26.334135
12480.564043	3949.770833	1183.367188	-47.261986
12480.564043	3949.770833	1182.243164	-44.714695
12480.564043	3949.770833	1181.119141	77.192589
12480.564043	3949.770833	1179.994141	-47.435814
12480.564043	3949.770833	1178.869141	111.419258
12480.564043	3949.770833	1177.744141	-94.538292
12480.564043	3949.770833	1176.619141	-130.710968
12480.564043	3949.770833	1175.493164	-90.718307
12480.564043	3949.770833	1174.368164	-314.018097
12480.564043	3949.770833	1173.242188	-244.234009
12480.564043	3949.770833	1172.115234	-16.780470
12480.564043	3949.770833	1170.989258	94.435966
12480.564043	3949.770833	1169.862305	85.064674
12480.564043	3949.770833	1168.735352	39.009289
12480.564043	3949.770833	1167.608398	154.437714
12480.564043	3949.770833	1166.481445	57.183830
12480.564043	3949.770833	1165.353516	-98.755188
12480.564043	3949.770833	1164.225586	173.153519
12480.564043	3949.770833	1163.097656	6.349365
12480.564043	3949.770833	1161.968750	151.550995
12480.564043	3949.770833	1160.840820	228.610046
12480.564043	3949.770833	1159.711914	147.350494
12480.564043	3949.770833	1158.583008	47.163036
12480.564043	3949.770833	1157.453125	94.006332
12480.564043	3949.770833	1156.324219	20.547037
12480.564043	3949.770833	1155.194336	-177.716553
12480.564043	3949.770833	1154.064453	20.763798
12480.564043	3949.770833	1152.933594	-82.127716
12480.564043	3949.770833	1151.803711	-167.769730
12480.564043	3949.770833	1150.672852	-186.379303
12480.564043	3949.770833	1149.541992	-66.820007
12480.564043	3949.770833	1148.411133	33.016659
12480.564043	3949.770833	1147.279297	-52.075249
12480.564043	3949.770833	1146.147461	82.033134
12480.564043	3949.770833	1145.015625	134.396637
12480.564043	3949.770833	1143.883789	30.439192
12480.564043	3949.770833	1142.750977	32.047401
12480.564043	3949.770833	1141.619141	82.071495
12480.564043	3949.770833	1140.486328	90.891876
12480.564043	3949.770833	1139.352539	20.167688
12480.564043	3949.770833	1138.219727	208.733978
12480.564043	3949.770833	1137.085938	154.290100
12480.564043	3949.770833	1135.952148	59.661926
12480.564043	3949.770833	1134.818359	171.948288
12480.564043	3949.770833	1133.683594	-47.025249
12480.564043	3949.770833	1132.549805	93.416931
12480.564043	3949.770833	1131.415039	323.075104
12480.564043	3949.770833	1130.279297	445.513763
12480.564043	3949.770833	1129.144531	517.657043
12480.564043	3949.770833	1128.008789	767.451233
12480.564043	3949.770833	1126.873047	618.389893
12480.564043	3949.770833	1125.737305	789.364807
12480.564043	3949.770833	1124.601563	611.541382
12480.564043	3949.770833	1123.464844	574.034607
12480.564043	3949.770833	1122.328125	555.560974
12480.564043	3949.770833	1121.191406	523.048523
12480.564043	3949.770833	1120.054688	553.033630
12480.564043	3949.770833	1118.916992	409.901642
12480.564043	3949.770833	1117.779297	556.448425
12480.564043	3949.770833	1116.641602	437.983856
12480.564043	3949.770833	1115.503906	272.561981
12480.564043	3949.770833	1114.365234	448.175354
12480.564043	3949.770833	1113.226563	195.931580
12480.564043	3949.770833	1112.087891	346.511688
12480.564043	3949.770833	1110.949219	327.141602
12480.564043	3949.770833	1109.809570	332.728729
12480.564043	3949.770833	1108.669922	329.990295
12480.564043	3949.770833	1107.530273	406.811462
12480.564043	3949.770833	1106.390625	564.767822
12480.564043	3949.770833	1105.250000	519.836792
12480.564043	3949.770833	1104.109375	616.728088
12480.564043	3949.770833	1102.968750	432.928558
12480.564043	3949.770833	1101.828125	548.086914
12480.564043	3949.770833	1100.686523	688.905029
12480.564043	3949.770833	1099.544922	457.757050
12480.564043	3949.770833	1098.403320	466.231171
12480.564043	3949.770833	1097.261719	592.223389
12480.564043	3949.770833	1096.120117	315.246826
12480.564043	3949.770833	1094.977539	82.562607
12480.564043	3949.770833	1093.834961	156.462112
12480.564043	3949.770833	1092.691406	137.339188
12480.564043	3949.770833	1091.548828	154.888870
12480.564043	3949.770833	1090.405273	234.061432
12480.564043	3949.770833	1089.261719	92.001060
12480.564043	3949.770833	1088.118164	278.091980
12480.564043	3949.770833	1086.973633	272.005157
12480.564043	3949.770833	1085.829102	201.119263
12480.564043	3949.770833	1084.684570	268.084198
12480.564043	3949.770833	1083.540039	47.538155
12480.564043	3949.770833	1082.395508	216.262833
12480.564043	3949.770833	1081.250000	-20.868925
12480.564043	3949.770833	1080.104492	199.273834
12480.564043	3949.770833	1078.958984	308.920105
12480.564043	3949.770833	1077.812500	141.171097
12480.564043	3949.770833	1076.666016	-63.881138
12480.564043	3949.770833	1075.519531	247.676987
12480.564043	3949.770833	1074.373047	50.080334
12480.564043	3949.770833	1073.226563	207.653625
12480.564043	3949.770833	1072.079102	218.259537
12480.564043	3949.770833	1070.931641	246.192535
12480.564043	3949.770833	1069.784180	130.394531
12480.564043	3949.770833	1068.635742	129.605026
12480.564043	3949.770833	1067.487305	132.498520
12480.564043	3949.770833	1066.338867	75.626305
12480.564043	3949.770833	1065.190430	250.254517
12480.564043	3949.770833	1064.041992	246.528198
12480.564043	3949.770833	1062.892578	303.225677
12480.564043	3949.770833	1061.743164	404.585144
12480.564043	3949.770833	1060.593750	220.827866
12480.564043	3949.770833	1059.443359	259.207581
12480.564043	3949.770833	1058.292969	171.083786
12480.564043	3949.770833	1057.142578	199.489197
12480.564043	3949.770833	1055.992188	-10.986793
12480.564043	3949.770833	1054.841797	133.116287
12480.564043	3949.770833	1053.690430	87.213127
12480.564043	3949.770833	1052.539063	-81.110031
12480.564043	3949.770833	1051.387695	21.048710
12480.564043	3949.770833	1050.235352	-38.136353
12480.564043	3949.770833	1049.083984	37.681026
12480.564043	3949.770833	1047.931641	154.804962
12480.564043	3949.770833	1046.778320	-122.807137
12480.564043	3949.770833	1045.625977	-40.196472
12480.564043	3949.770833	1044.472656	45.018944
12480.564043	3949.770833	1043.319336	34.112236
12480.564043	3949.770833	1042.166016	-180.642654
12480.564043	3949.770833	1041.012695	-70.302841
12480.564043	3949.770833	1039.858398	-186.585007
12480.564043	3949.770833	1038.704102	96.233330
12480.564043	3949.770833	1037.549805	-33.577789
12480.564043	3949.770833	1036.394531	168.966003
12480.564043	3949.770833	1035.239258	115.648827
12480.564043	3949.770833	1034.083984	249.254379
12480.564043	3949.770833	1032.928711	326.142548
12480.564043	3949.770833	1031.773438	132.871384
12480.564043	3949.770833	1030.617188	213.571594
12480.564043	3949.770833	1029.460938	432.801849
12480.564043	3949.770833	1028.304688	227.784363
12480.564043	3949.770833	1027.147461	123.953354
12480.564043	3949.770833	1025.991211	116.077446
12480.564043	3949.770833	1024.833984	280.049042
12480.564043	3949.770833	1023.675781	111.959358
12480.564043	3949.770833	1022.518555	191.920929
12480.564043	3949.770833	1021.360352	131.110138
12480.564043	3949.770833	1020.202148	287.671875
12480.564043	3949.770833	1019.043945	99.924988
12480.564043	3949.770833	1017.884766	190.647156
12480.564043	3949.770833	1016.726563	185.619232
12480.564043	3949.770833	1015.567383	-12.888996
12480.564043	3949.770833	1014.407227	-40.952374
12480.564043	3949.770833	1013.248047	-98.158081
12480.564043	3949.770833	1012.087891	-92.329269
12480.564043	3949.770833	1010.927734	99.497520
12480.564043	3949.770833	1009.767578	1.093225
12480.564043	3949.770833	1008.606445	-48.189514
12480.564043	3949.770833	1007.446289	-36.442490
12480.564043	3949.770833	1006.285156	-284.912994
12480.564043	3949.770833	1005.123047	27.072132
12480.564043	3949.770833	1003.961914	-7.906875
12480.564043	3949.770833	1002.799805	-10.737137
12480.564043	3949.770833	1001.637695	98.924881
12480.564043	3949.770833	1000.475586	131.293427
12480.564043	3949.770833	999.312500	-137.579895
12480.564043	3949.770833	998.149414	-18.756754
12480.564043	3949.770833	996.986328	225.176300
12480.564043	3949.770833	995.823242	-67.599716
12480.564043	3949.770833	994.659180	-126.080185
12480.564043	3949.770833	993.496094	-84.167870
12480.564043	3949.770833	992.332031	70.799416
12480.564043	3949.770833	991.166992	64.755508
12480.564043	3949.770833	990.002930	-12.820374
12480.564043	3949.770833	988.837891	-94.241806
12480.564043	3949.770833	987.672852	-204.204086
12480.564043	3949.770833	986.506836	-36.953789
12480.564043	3949.770833	985.341797	-42.944153
12480.564043	3949.770833	984.175781	-115.321968
12480.564043	3949.770833	983.009766	112.246826
12480.564043	3949.770833	981.843750	4.319151
12480.564043	3949.770833	980.676758	64.795761
12480.564043	3949.770833	979.509766	79.929718
12480.564043	3949.770833	978.342773	131.723221
12480.564043	3949.770833	977.175781	32.076916
12480.564043	3949.770833	976.007813	-85.581200
12480.564043	3949.770833	974.839844	123.668961
12480.564043	3949.770833	973.671875	-13.664542
12480.564043	3949.770833	972.503906	35.562057
12480.564043	3949.770833	971.334961	30.952419
12480.564043	3949.770833	970.166016	-71.145561
12480.564043	3949.770833	968.997070	111.002693
12480.564043	3949.770833	967.828125	59.145420
12480.564043	3949.770833	966.658203	74.419373
12480.564043	3949.770833	965.488281	8.819956
12480.564043	3949.770833	964.318359	-142.707352
12480.564043	3949.770833	963.148438	90.912819
12480.564043	3949.770833	961.977539	-116.349884
12480.564043	3949.770833	960.806641	220.411118
12480.564043	3949.770833	959.635742	207.084656
12480.564043	3949.770833	958.463867	288.563141
12480.564043	3949.770833	957.292969	379.220276
12480.564043	3949.770833	956.121094	195.894485
12480.564043	3949.770833	954.948242	259.957916
12480.564043	3949.770833	953.776367	256.860474
12480.564043	3949.770833	952.603516	255.578171
12480.564043	3949.770833	951.430664	498.056732
12480.564043	3949.770833	950.257813	400.912445
12480.564043	3949.770833	949.084961	618.580933
12480.564043	3949.770833	947.911133	578.875305
12480.564043	3949.770833	946.737305	374.956085
12480.564043	3949.770833	945.563477	390.047058
12480.564043	3949.770833	944.388672	325.622345
12480.564043	3949.770833	943.213867	475.422668
12480.564043	3949.770833	942.039063	429.382599
12480.564043	3949.770833	940.864258	299.809784
12480.564043	3949.770833	939.688477	463.048401
12480.564043	3949.770833	938.513672	666.700073
12480.564043	3949.770833	937.337891	277.866302
12480.564043	3949.770833	936.161133	580.854553
12480.564043	3949.770833	934.985352	469.103546
12480.564043	3949.770833	933.808594	688.452759
12480.564043	3949.770833	932.631836	547.460510
12480.564043	3949.770833	931.454102	683.475525
12480.564043	3949.770833	930.277344	596.434692
12480.564043	3949.770833	929.099609	739.095398
12480.564043	3949.770833	927.921875	548.479736
12480.564043	3949.770833	926.743164	472.715698
12480.564043	3949.770833	925.565430	621.941467
12480.564043	3949.770833	924.386719	548.378052
12480.564043	3949.770833	923.208008	366.822021
12480.564043	3949.770833	922.028320	453.001923
12480.564043	3949.770833	920.849609	293.972961
12480.564043	3949.770833	919.669922	298.843689
12480.564043	3949.770833	919.474609	223.488602
12480.564043	3949.770833	918.309570	293.775085
12480.564043	3949.770833	917.143555	-6.848104
12480.564043	3949.770833	915.977539	252.184189
12480.564043	3949.770833	914.810547	-48.347885
12480.564043	3949.770833	913.644531	75.767349
12480.564043	3949.770833	912.477539	-22.522963
12480.564043	3949.770833	911.310547	9.436243
12480.564043	3949.770833	910.143555	66.053963
12480.564043	3949.770833	908.975586	-267.905396
12480.564043	3949.770833	907.807617	53.498421
12480.564043	3949.770833	906.639648	-6.654717
12480.564043	3949.770833	905.471680	-95.965599
12480.564043	3949.770833	904.303711	-126.955925
12480.564043	3949.770833	903.134766	16.938383
12480.564043	3949.770833	901.965820	-236.035721
12480.564043	3949.770833	900.796875	24.319778
12480.564043	3949.770833	899.626953	-154.649887
12480.564043	3949.770833	898.457031	-10.960397
12480.564043	3949.770833	897.287109	-51.025097
12480.564043	3949.770833	896.117188	-26.154795
12480.564043	3949.770833	894.947266	3.159039
12480.564043	3949.770833	893.776367	10.052520
12480.564043	3949.770833	892.605469	-18.891333
12480.564043	3949.770833	891.434570	-114.977486
12480.564043	3949.770833	890.262695	-88.003510
12480.564043	3949.770833	889.091797	104.444176
12480.564043	3949.770833	887.919922	218.522644
12480.564043	3949.770833	886.748047	142.483948
12480.564043	3949.770833	885.575195	207.278458
12480.564043	3949.770833	884.403320	79.816002
12480.564043	3949.770833	883.230469	-49.853977
12480.564043	3949.770833	882.057617	-32.057468
12480.564043	3949.770833	880.883789	197.888184
12480.564043	3949.770833	879.710938	50.321716
12480.564043	3949.770833	878.537109	-5.673473
12480.564043	3949.770833	877.362305	217.343613
12480.564043	3949.770833	876.188477	60.849503
12480.564043	3949.770833	875.013672	-33.133083
12480.564043	3949.770833	873.839844	40.195732
12480.564043	3949.770833	872.664063	173.687851
12480.564043	3949.770833	871.489258	99.713295
12480.564043	3949.770833	870.313477	177.338486
12480.564043	3949.770833	869.138672	-57.155022
12480.564043	3949.770833	867.962891	102.858620
12480.564043	3949.770833	866.786133	86.761757
12480.564043	3949.770833	865.610352	-20.695160
12480.564043	3949.770833	864.433594	-10.103244
12480.564043	3949.770833	863.256836	109.556587
12480.564043	3949.770833	862.079102	189.062210
12480.564043	3949.770833	860.902344	188.370331
12480.564043	3949.770833	859.724609	29.649376
12480.564043	3949.770833	858.546875	162.410706
12480.564043	3949.770833	857.368164	112.684998
12480.564043	3949.770833	856.190430	31.803228
12480.564043	3949.770833	855.011719	-46.856495
12480.564043	3949.770833	853.833008	101.225136
12480.564043	3949.770833	852.654297	122.521339
12480.564043	3949.770833	851.474609	-36.217655
12480.564043	3949.770833	850.294922	113.877151
12480.564043	3949.770833	849.115234	170.580734
12480.564043	3949.770833	847.935547	38.458122
12480.564043	3949.770833	846.754883	-18.159561
12480.564043	3949.770833	845.575195	78.369797
12480.564043	3949.770833	844.393555	77.170212
12480.564043	3949.770833	843.212891	24.892227
12480.564043	3949.770833	842.032227	76.859123
12480.564043	3949.770833	840.850586	75.532722
12480.564043	3949.770833	839.668945	-69.976463
12480.564043	3949.770833	838.486328	-31.450830
12480.564043	3949.770833	837.304688	-114.902069
12480.564043	3949.770833	836.122070	105.253845
12480.564043	3949.770833	834.939453	-62.476917
12480.564043	3949.770833	833.756836	-4.227586
12480.564043	3949.770833	832.573242	25.160662
12480.564043	3949.770833	831.389648	-45.155495
12480.564043	3949.770833	830.206055	46.123333
12480.564043	3949.770833	829.022461	-53.038418
12480.564043	3949.770833	827.838867	-8.362841
12480.564043	3949.770833	826.654297	58.371197
12480.564043	3949.770833	825.469727	16.638937
12480.564043	3949.770833	824.284180	-78.203804
12480.564043	3949.770833	823.099609	-38.177528
12480.564043	3949.770833	821.914063	-11.482340
12480.564043	3949.770833	820.728516	127.874748
12480.564043	3949.770833	819.542969	-26.778526
12480.564043	3949.770833	818.356445	-48.859009
12480.564043	3949.770833	817.169922	-172.590363
12480.564043	3949.770833	815.983398	-24.688801
12480.564043	3949.770833	814.796875	-27.041412
12480.564043	3949.770833	813.609375	50.023663
12480.564043	3949.770833	812.422852	-16.454683
12480.564043	3949.770833	811.235352	-3.522026
12480.564043	3949.770833	810.046875	99.802582
12480.564043	3949.770833	808.859375	22.163780
12480.564043	3949.770833	807.670898	169.434677
12480.564043	3949.770833	806.482422	3.513139
12480.564043	3949.770833	805.293945	-32.342396
12480.564043	3949.770833	804.104492	44.156799
12480.564043	3949.770833	802.915039	-112.991653
12480.564043	3949.770833	801.725586	73.526367
12480.564043	3949.770833	800.536133	-55.046295
12480.564043	3949.770833	799.345703	-49.299004
12480.564043	3949.770833	798.155273	-63.427292
12480.564043	3949.770833	796.964844	-119.429504
12480.564043	3949.770833	795.774414	-72.035439
12480.564043	3949.770833	794.583008	-130.331696
12480.564043	3949.770833	793.392578	-98.473114
12480.564043	3949.770833	792.200195	52.074867
12480.564043	3949.770833	791.008789	-85.549026
12480.564043	3949.770833	789.816406	-80.280640
12480.564043	3949.770833	788.625000	-66.284149
12480.564043	3949.770833	787.432617	-17.194798
12480.564043	3949.770833	786.239258	-161.525665
12480.564043	3949.770833	785.046875	-158.688660
12480.564043	3949.770833	783.853516	79.069382
12480.564043	3949.770833	782.660156	-25.856503
12480.564043	3949.770833	781.465820	25.057957
12480.564043	3949.770833	780.272461	21.020424
12480.564043	3949.770833	779.078125	-44.520020
12480.564043	3949.770833	777.883789	100.511604
12480.564043	3949.770833	776.688477	1.954814
12480.564043	3949.770833	775.494141	-0.135592
12480.564043	3949.770833	774.298828	102.947884
12480.564043	3949.770833	773.103516	-52.732239
12480.564043	3949.770833	771.907227	-6.789721
12480.564043	3949.770833	770.711914	17.157831
12480.564043	3949.770833	769.515625	-145.173676
12480.564043	3949.770833	768.318359	38.546589
12480.564043	3949.770833	767.122070	-27.503731
12480.564043	3949.770833	765.924805	13.683000
12480.564043	3949.770833	764.727539	-61.220882
12480.564043	3949.770833	763.530273	-48.624607
12480.564043	3949.770833	762.333008	31.726681
12480.564043	3949.770833	761.134766	111.978600
12480.564043	3949.770833	759.936523	-131.544876
12480.564043	3949.770833	758.738281	173.790039
12480.564043	3949.770833	757.540039	91.994087
12480.564043	3949.770833	756.340820	126.004738
12480.564043	3949.770833	755.141602	90.009499
12480.564043	3949.770833	753.942383	49.594353
12480.564043	3949.770833	752.742188	109.604843
12480.564043	3949.770833	751.541992	53.783356
12480.564043	3949.770833	750.341797	172.587997
12480.564043	3949.770833	749.141602	245.435852
12480.564043	3949.770833	747.941406	178.511612
12480.564043	3949.770833	746.740234	91.910622
12480.564043	3949.770833	745.539063	27.095341
12480.564043	3949.770833	744.337891	208.704590
12480.564043	3949.770833	743.135742	233.166595
12480.564043	3949.770833	741.933594	388.362976
12480.564043	3949.770833	740.731445	242.628876
12480.564043	3949.770833	739.529297	177.523102
12480.564043	3949.770833	738.326172	238.750137
12480.564043	3949.770833	737.124023	230.180984
12480.564043	3949.770833	735.919922	299.951904
12480.564043	3949.770833	734.716797	313.018982
12480.564043	3949.770833	733.513672	199.750748
12480.564043	3949.770833	732.309570	162.643478
12480.564043	3949.770833	731.105469	362.680939
12480.564043	3949.770833	729.900391	429.856354
12480.564043	3949.770833	728.696289	505.645142
12480.564043	3949.770833	727.491211	422.582306
12480.564043	3949.770833	726.286133	487.343262
12480.564043	3949.770833	725.080078	462.886017
12480.564043	3949.770833	723.874023	368.831360
12480.564043	3949.770833	722.668945	346.463501
12480.564043	3949.770833	721.461914	178.485443
12480.564043	3949.770833	720.255859	371.070068
12480.564043	3949.770833	719.048828	302.928589
12480.564043	3949.770833	717.841797	215.216400
12480.564043	3949.770833	716.634766	303.302155
12480.564043	3949.770833	715.427734	241.552567
12480.564043	3949.770833	714.219727	177.598251
12480.564043	3949.770833	713.011719	137.474655
12480.564043	3949.770833	711.803711	88.636475
12480.564043	3949.770833	710.594727	293.456390
12480.564043	3949.770833	709.385742	114.418274
12480.564043	3949.770833	708.176758	-107.947906
12480.564043	3949.770833	706.967773	137.792068
12480.564043	3949.770833	705.758789	62.729668
12480.564043	3949.770833	704.548828	56.956203
12480.564043	3949.770833	703.338867	118.267403
12480.564043	3949.770833	702.127930	12.779897
12480.564043	3949.770833	700.917969	231.995911
12480.564043	3949.770833	699.707031	148.069885
12480.564043	3949.770833	698.496094	57.638607
12480.564043	3949.770833	697.285156	-30.640913
12480.564043	3949.770833	696.073242	-69.187286
12480.564043	3949.770833	694.861328	125.777046
12480.564043	3949.770833	693.649414	139.006821
12480.564043	3949.770833	692.436523	-81.263321
12480.564043	3949.770833	691.224609	-29.186691
12480.564043	3949.770833	690.011719	87.637779
12480.564043	3949.770833	688.798828	137.405869
12480.564043	3949.770833	687.584961	223.821915
12480.564043	3949.770833	686.372070	284.252441
12480.564043	3949.770833	685.158203	180.543625
12480.564043	3949.770833	683.943359	303.461975
12480.564043	3949.770833	682.729492	439.240448
12480.564043	3949.770833	681.514648	316.027863
12480.564043	3949.770833	680.299805	395.586761
12480.564043	3949.770833	679.084961	576.433716
12480.564043	3949.770833	677.869141	567.430237
12480.564043	3949.770833	676.653320	310.500122
12480.564043	3949.770833	675.437500	471.747864
12480.564043	3949.770833	674.221680	208.416809
12480.564043	3949.770833	673.004883	546.202271
12480.564043	3949.770833	671.789063	481.056671
12480.564043	3949.770833	670.571289	430.974976
12480.564043	3949.770833	669.354492	352.903931
12480.564043	3949.770833	668.136719	279.140289
12480.564043	3949.770833	666.919922	304.377899
12480.564043	3949.770833	665.701172	241.359665
12480.564043	3949.770833	664.483398	307.414368
12480.564043	3949.770833	663.264648	261.582886
12480.564043	3949.770833	662.045898	411.415436
12480.564043	3949.770833	660.827148	187.114441
12480.564043	3949.770833	659.608398	384.146942
12480.564043	3949.770833	658.388672	138.419205
12480.564043	3949.770833	657.168945	307.413208
12480.564043	3949.770833	655.949219	328.115570
12480.564043	3949.770833	654.728516	271.484375
12480.564043	3949.770833	653.507813	242.776001
12480.564043	3949.770833	652.287109	222.655838
12480.564043	3949.770833	651.066406	243.310776
12480.564043	3949.770833	649.844727	201.721344
12480.564043	3949.770833	648.623047	269.547363
12480.564043	3949.770833	647.401367	315.891754
12480.564043	3949.770833	646.179688	212.114258
12480.564043	3949.770833	644.957031	202.701340
12480.564043	3949.770833	643.734375	281.171234
12480.564043	3949.770833	642.511719	130.314423
12480.564043	3949.770833	641.289063	120.927208
12480.564043	3949.770833	640.065430	355.731415
12480.564043	3949.770833	638.841797	461.947540
12480.564043	3949.770833	637.618164	317.615997
12480.564043	3949.770833	636.393555	291.083679
12480.564043	3949.770833	635.168945	277.413849
12480.564043	3949.770833	633.944336	302.274902
12480.564043	3949.770833	632.719727	384.897797
12480.564043	3949.770833	631.494141	174.474182
12480.564043	3949.770833	630.269531	314.854584
12480.564043	3949.770833	629.042969	168.700027
12480.564043	3949.770833	627.817383	281.263519
12480.564043	3949.770833	626.590820	301.903656
12480.564043	3949.770833	625.365234	228.548904
12480.564043	3949.770833	624.137695	390.214081
12480.564043	3949.770833	622.911133	312.642212
12480.564043	3949.770833	621.683594	331.209595
12480.564043	3949.770833	620.456055	275.079895
12480.564043	3949.770833	619.228516	306.507538
12480.564043	3949.770833	618.000977	410.503754
12480.564043	3949.770833	616.772461	132.602280
12480.564043	3949.770833	615.543945	183.327057
12480.564043	3949.770833	614.314453	402.527313
12480.564043	3949.770833	613.085938	73.738525
12480.564043	3949.770833	611.856445	41.414536
12480.564043	3949.770833	610.626953	-1.513623
12480.564043	3949.770833	609.397461	215.559998
12480.564043	3949.770833	608.166992	140.738693
12480.564043	3949.770833	606.936523	100.067627
12480.564043	3949.770833	605.706055	-34.232018
12480.564043	3949.770833	604.474609	-57.730701
12480.564043	3949.770833	603.244141	108.261711
12480.564043	3949.770833	602.012695	65.687889
12480.564043	3949.770833	600.780273	-32.137173
12480.564043	3949.770833	599.548828	42.427563
12480.564043	3949.770833	598.316406	-25.472864
12480.564043	3949.770833	597.083984	-50.766315
12480.564043	3949.770833	595.851563	-199.284439
12480.564043	3949.770833	594.618164	-124.532936
12480.564043	3949.770833	593.384766	-26.381262
12480.564043	3949.770833	592.151367	-57.796837
12480.564043	3949.770833	590.917969	-131.615280
12480.564043	3949.770833	589.683594	-43.960308
12480.564043	3949.770833	588.449219	-9.353973
12480.564043	3949.770833	587.214844	21.058500
12480.564043	3949.770833	585.979492	57.887863
12480.564043	3949.770833	584.745117	3.542338
12480.564043	3949.770833	583.509766	-150.409164
12480.564043	3949.770833	582.273438	-32.772903
12480.564043	3949.770833	581.038086	-76.253372
12480.564043	3949.770833	579.801758	109.295784
12480.564043	3949.770833	578.565430	-16.707653
12480.564043	3949.770833	577.329102	166.780380
12480.564043	3949.770833	576.091797	-130.629074
12480.564043	3949.770833	574.854492	-10.582927
12480.564043	3949.770833	573.617188	-34.504971
12480.564043	3949.770833	572.378906	183.011841
12480.564043	3949.770833	571.141602	32.219864
12480.564043	3949.770833	569.903320	-38.013088
12480.564043	3949.770833	568.664063	-112.365608
12480.564043	3949.770833	567.425781	-82.951073
12480.564043	3949.770833	566.186523	162.248047
12480.564043	3949.770833	564.947266	-47.167850
12480.564043	3949.770833	563.708008	22.633038
12480.564043	3949.770833	562.467773	124.191841
12480.564043	3949.770833	561.227539	120.142799
12480.564043	3949.770833	559.987305	234.489502
12480.564043	3949.770833	558.747070	160.894653
12480.564043	3949.770833	557.505859	-184.988159
12480.564043	3949.770833	556.264648	11.956285
12480.564043	3949.770833	555.023438	173.025360
12480.564043	3949.770833	553.781250	-30.973942
12480.564043	3949.770833	552.539063	66.919945
12480.564043	3949.770833	551.296875	69.939796
12480.564043	3949.770833	550.054688	83.596672
12480.564043	3949.770833	548.811523	-1.761337
12480.564043	3949.770833	547.569336	77.441841
12480.564043	3949.770833	546.325195	-79.352394
12480.564043	3949.770833	545.082031	-31.587137
12480.564043	3949.770833	543.837891	-11.136563
12480.564043	3949.770833	542.593750	-215.972702
12480.564043	3949.770833	541.349609	107.935654
12480.564043	3949.770833	540.105469	-92.438965
12480.564043	3949.770833	538.860352	-130.555893
12480.564043	3949.770833	537.615234	-4.412088
12480.564043	3949.770833	536.369141	-8.679752
12480.564043	3949.770833	535.124023	153.331345
12480.564043	3949.770833	533.877930	84.022163
12480.564043	3949.770833	532.631836	71.607101
12480.564043	3949.770833	531.384766	34.063423
12480.564043	3949.770833	530.138672	26.052191
12480.564043	3949.770833	528.891602	154.721756
12480.564043	3949.770833	527.643555	260.316711
12480.564043	3949.770833	526.396484	103.403709
12480.564043	3949.770833	525.148438	102.044434
12480.564043	3949.770833	523.900391	71.381004
12480.564043	3949.770833	522.652344	152.068634
12480.564043	3949.770833	521.403320	113.187111
12480.564043	3949.770833	520.154297	-76.660934
12480.564043	3949.770833	518.905273	29.433399
12480.564043	3949.770833	517.656250	83.133812
12480.564043	3949.770833	516.406250	-93.756348
12480.564043	3949.770833	515.156250	37.674553
12480.564043	3949.770833	513.906250	76.907333
12480.564043	3949.770833	512.655273	-137.350403
12480.564043	3949.770833	511.404297	-74.899422
12480.564043	3949.770833	510.153320	-127.603851
12480.564043	3949.770833	508.902344	-58.754711
12480.564043	3949.770833	507.650391	37.352539
12480.564043	3949.770833	506.398438	192.095261
12480.564043	3949.770833	505.146484	137.561096
12480.564043	3949.770833	503.893555	28.713228
12480.564043	3949.770833	502.641602	5.738424
12480.564043	3949.770833	501.388672	-52.720917
12480.564043	3949.770833	500.134766	108.452850
12480.564043	3949.770833	498.881836	-60.692734
12480.564043	3949.770833	497.627930	35.723934
12480.564043	3949.770833	496.374023	144.684509
12480.564043	3949.770833	495.119141	247.376373
12480.564043	3949.770833	493.865234	157.901978
12480.564043	3949.770833	492.610352	154.124268
12480.564043	3949.770833	491.355469	219.280167
12480.564043	3949.770833	490.099609	539.100647
12480.564043	3949.770833	488.843750	216.040161
12480.564043	3949.770833	487.587891	327.128204
12480.564043	3949.770833	486.332031	302.597351
12480.564043	3949.770833	485.075195	278.095154
12480.564043	3949.770833	483.818359	245.275665
12480.564043	3949.770833	482.561523	329.219727
12480.564043	3949.770833	481.304688	263.067596
12480.564043	3949.770833	480.046875	480.338440
12480.564043	3949.770833	478.789063	487.095001
12480.564043	3949.770833	477.531250	379.280823
12480.564043	3949.770833	476.272461	442.259460
12480.564043	3949.770833	475.013672	511.436981
12480.564043	3949.770833	473.754883	545.174561
12480.564043	3949.770833	472.496094	558.056885
12480.564043	3949.770833	471.236328	502.240784
12480.564043	3949.770833	469.976563	406.883789
12480.564043	3949.770833	468.716797	369.754822
12480.564043	3949.770833	467.456055	390.811859
12480.564043	3949.770833	466.196289	588.501404
12480.564043	3949.770833	464.935547	520.009583
12480.564043	3949.770833	463.673828	563.688538
12480.564043	3949.770833	462.413086	432.760895
12480.564043	3949.770833	461.151367	447.202148
12480.564043	3949.770833	459.889648	600.677795
12480.564043	3949.770833	458.626953	643.957947
12480.564043	3949.770833	457.364258	649.753906
12480.564043	3949.770833	456.101563	779.951233
12480.564043	3949.770833	454.838867	557.259521
12480.564043	3949.770833	453.575195	662.286743
12480.564043	3949.770833	452.312500	574.262512
12480.564043	3949.770833	451.047852	537.974915
12480.564043	3949.770833	449.784180	617.640991
12480.564043	3949.770833	448.519531	668.101868
12480.564043	3949.770833	447.254883	693.509766
12480.564043	3949.770833	445.990234	619.294861
12480.564043	3949.770833	444.725586	588.426270
12480.564043	3949.770833	443.459961	627.786011
12480.564043	3949.770833	442.194336	768.375793
12480.564043	3949.770833	440.927734	811.410889
12480.564043	3949.770833	439.662109	694.866089
12480.564043	3949.770833	438.395508	696.074097
12480.564043	3949.770833	437.127930	653.606018
12480.564043	3949.770833	435.861328	646.066833
12480.564043	3949.770833	434.593750	601.056396
12480.564043	3949.770833	433.326172	927.889648
12480.564043	3949.770833	432.058594	847.158997
12480.564043	3949.770833	430.790039	613.268311
12480.564043	3949.770833	429.521484	645.673279
12480.564043	3949.770833	428.252930	960.712830
12480.564043	3949.770833	426.984375	732.215027
12480.564043	3949.770833	425.714844	928.768433
12480.564043	3949.770833	424.445313	689.377869
12480.564043	3949.770833	423.174805	806.735535
12480.564043	3949.770833	421.905273	843.216248
12480.564043	3949.770833	420.634766	1005.122437
12480.564043	3949.770833	419.364258	945.905396
12480.564043	3949.770833	418.092773	1020.322876
12480.564043	3949.770833	416.822266	1139.645752
12480.564043	3949.770833	415.550781	1002.929138
12480.564043	3949.770833	414.278320	927.636902
12480.564043	3949.770833	413.006836	930.208252
12480.564043	3949.770833	411.734375	839.621582
12480.564043	3949.770833	410.461914	919.497925
12480.564043	3949.770833	409.188477	1027.657715
12480.564043	3949.770833	407.916016	917.092041
12480.564043	3949.770833	406.642578	849.255981
12480.564043	3949.770833	405.368164	935.200684
12480.564043	3949.770833	404.094727	771.677856
12480.564043	3949.770833	402.820313	807.122009
12480.564043	3949.770833	401.545898	755.613525
12480.564043	3949.770833	400.270508	664.461548
12480.564043	3949.770833	398.996094	798.804382
12480.564043	3949.770833	397.720703	811.221436
12480.564043	3949.770833	396.444336	701.775879
12480.564043	3949.770833	395.168945	723.164978
12480.564043	3949.770833	393.892578	725.372742
12480.564043	3949.770833	392.616211	663.243286
12480.564043	3949.770833	391.339844	744.096191
12480.564043	3949.770833	390.062500	696.946838
12480.564043	3949.770833	388.785156	852.170471
12480.564043	3949.770833	387.507813	501.992401
12480.564043	3949.770833	386.229492	727.398193
12480.564043	3949.770833	384.951172	818.641235
12480.564043	3949.770833	383.672852	724.546692
12480.564043	3949.770833	382.394531	777.204468
12480.564043	3949.770833	381.115234	824.867249
12480.564043	3949.770833	379.835938	773.308533
12480.564043	3949.770833	378.556641	810.988586
12480.564043	3949.770833	377.277344	808.836243
12480.564043	3949.770833	375.997070	650.151489
12480.564043	3949.770833	374.716797	748.459656
12480.564043	3949.770833	373.435547	620.648743
12480.564043	3949.770833	372.155273	598.300720
12480.564043	3949.770833	370.874023	433.801270
12480.564043	3949.770833	369.591797	523.921387
12480.564043	3949.770833	368.310547	516.884766
12480.564043	3949.770833	367.028320	664.091309
12480.564043	3949.770833	365.746094	577.175720
12480.564043	3949.770833	364.463867	546.386047
12480.564043	3949.770833	363.180664	420.481293
12480.564043	3949.770833	361.897461	397.620361
12480.564043	3949.770833	360.614258	514.466858
12480.564043	3949.770833	359.330078	407.524536
12480.564043	3949.770833	358.045898	372.870361
12480.564043	3949.770833	356.761719	445.122498
12480.564043	3949.770833	355.477539	503.830505
12480.564043	3949.770833	354.192383	310.320709
12480.564043	3949.770833	352.907227	366.382111
12480.564043	3949.770833	351.622070	219.252213
12480.564043	3949.770833	350.336914	341.898895
12480.564043	3949.770833	349.050781	198.158340
12480.564043	3949.770833	347.764648	106.034698
12480.564043	3949.770833	346.477539	344.479797
12480.564043	3949.770833	345.191406	245.392166
12480.564043	3949.770833	343.904297	69.487900
12480.564043	3949.770833	342.616211	85.478569
12480.564043	3949.770833	341.329102	12.462180
12480.564043	3949.770833	340.041016	-5.159975
12480.564043	3949.770833	338.752930	30.562202
12480.564043	3949.770833	337.463867	-4.540934
12480.564043	3949.770833	336.175781	7.583729
12480.564043	3949.770833	334.886719	34.252174
12480.564043	3949.770833	333.596680	53.069061
12480.564043	3949.770833	332.307617	21.449007
12480.564043	3949.770833	331.017578	-121.655426
12480.564043	3949.770833	329.727539	119.440918
12480.564043	3949.770833	328.436523	102.718620
12480.564043	3949.770833	327.146484	167.480164
12480.564043	3949.770833	325.855469	39.509827
12480.564043	3949.770833	324.563477	-35.549911
12480.564043	3949.770833	323.272461	31.634748
12480.564043	3949.770833	321.980469	-65.476974
12480.564043	3949.770833	320.688477	170.115326
12480.564043	3949.770833	319.395508	-50.614532
12480.564043	3949.770833	318.103516	18.712585
12480.564043	3949.770833	316.810547	-137.030350
12480.564043	3949.770833	315.516602	-142.877716
12480.564043	3949.770833	314.223633	-215.566544
12480.564043	3949.770833	312.929688	-197.254761
12480.564043	3949.770833	311.635742	-92.005371
12480.564043	3949.770833	310.340820	-27.522963
12480.564043	3949.770833	309.045898	-143.386078
12480.564043	3949.770833	307.750977	274.808685
12480.564043	3949.770833	306.456055	24.956938
12480.564043	3949.770833	305.160156	-16.804104
12480.564043	3949.770833	303.865234	159.645111
12480.564043	3949.770833	302.568359	52.466747
12480.564043	3949.770833	301.272461	375.616821
12480.564043	3949.770833	299.975586	445.538696
12480.564043	3949.770833	298.678711	474.609375
