#X		#Y		#Wave		#Intensity
29651.325532	-1485.930000	1999.980469	-64.528618
29651.325532	-1485.930000	1999.016602	158.403183
29651.325532	-1485.930000	1998.052734	180.479080
29651.325532	-1485.930000	1997.087891	75.955917
29651.325532	-1485.930000	1996.123047	313.184937
29651.325532	-1485.930000	1995.158203	91.843292
29651.325532	-1485.930000	1994.193359	-104.844063
29651.325532	-1485.930000	1993.228516	-123.354424
29651.325532	-1485.930000	1992.262695	8.986589
29651.325532	-1485.930000	1991.297852	150.997421
29651.325532	-1485.930000	1990.332031	67.566376
29651.325532	-1485.930000	1989.366211	-67.967163
29651.325532	-1485.930000	1988.399414	127.902214
29651.325532	-1485.930000	1987.433594	-124.175880
29651.325532	-1485.930000	1986.466797	24.323864
29651.325532	-1485.930000	1985.500977	249.266388
29651.325532	-1485.930000	1984.534180	-32.814014
29651.325532	-1485.930000	1983.567383	107.727272
29651.325532	-1485.930000	1982.599609	253.021255
29651.325532	-1485.930000	1981.632813	-34.262520
29651.325532	-1485.930000	1980.665039	90.974236
29651.325532	-1485.930000	1979.697266	-53.178268
29651.325532	-1485.930000	1978.729492	22.375765
29651.325532	-1485.930000	1977.761719	-13.319710
29651.325532	-1485.930000	1976.792969	37.280182
29651.325532	-1485.930000	1975.825195	35.918339
29651.325532	-1485.930000	1974.856445	197.310303
29651.325532	-1485.930000	1973.887695	175.969467
29651.325532	-1485.930000	1972.918945	-55.129875
29651.325532	-1485.930000	1971.949219	236.592422
29651.325532	-1485.930000	1970.980469	5.375102
29651.325532	-1485.930000	1970.010742	33.006573
29651.325532	-1485.930000	1969.041016	23.566835
29651.325532	-1485.930000	1968.071289	336.877502
29651.325532	-1485.930000	1967.101563	48.796276
29651.325532	-1485.930000	1966.130859	169.676804
29651.325532	-1485.930000	1965.161133	-59.308868
29651.325532	-1485.930000	1964.190430	21.996395
29651.325532	-1485.930000	1963.219727	312.479370
29651.325532	-1485.930000	1962.249023	186.772858
29651.325532	-1485.930000	1961.277344	19.208376
29651.325532	-1485.930000	1960.306641	201.064819
29651.325532	-1485.930000	1959.334961	183.514954
29651.325532	-1485.930000	1958.363281	340.559906
29651.325532	-1485.930000	1957.391602	229.424881
29651.325532	-1485.930000	1956.419922	152.705261
29651.325532	-1485.930000	1955.447266	48.921368
29651.325532	-1485.930000	1954.474609	18.868237
29651.325532	-1485.930000	1953.501953	-28.420483
29651.325532	-1485.930000	1952.529297	-2.020583
29651.325532	-1485.930000	1951.556641	14.501860
29651.325532	-1485.930000	1950.583984	161.156891
29651.325532	-1485.930000	1949.610352	248.785583
29651.325532	-1485.930000	1948.636719	85.915359
29651.325532	-1485.930000	1947.663086	97.363731
29651.325532	-1485.930000	1946.689453	184.861252
29651.325532	-1485.930000	1945.715820	-27.069613
29651.325532	-1485.930000	1944.741211	146.234131
29651.325532	-1485.930000	1943.767578	-28.865128
29651.325532	-1485.930000	1942.792969	222.810028
29651.325532	-1485.930000	1941.818359	109.019302
29651.325532	-1485.930000	1940.842773	83.509377
29651.325532	-1485.930000	1939.868164	126.624092
29651.325532	-1485.930000	1938.892578	83.935051
29651.325532	-1485.930000	1937.916992	-10.206336
29651.325532	-1485.930000	1936.941406	221.492508
29651.325532	-1485.930000	1935.965820	168.977448
29651.325532	-1485.930000	1934.990234	33.213852
29651.325532	-1485.930000	1934.013672	169.261490
29651.325532	-1485.930000	1933.037109	-30.111378
29651.325532	-1485.930000	1932.060547	30.016518
29651.325532	-1485.930000	1931.083984	-17.548807
29651.325532	-1485.930000	1930.107422	137.965408
29651.325532	-1485.930000	1929.129883	264.067017
29651.325532	-1485.930000	1928.153320	30.614134
29651.325532	-1485.930000	1927.175781	-46.257778
29651.325532	-1485.930000	1926.198242	-47.312973
29651.325532	-1485.930000	1925.219727	183.841995
29651.325532	-1485.930000	1924.242188	48.344383
29651.325532	-1485.930000	1923.263672	247.643005
29651.325532	-1485.930000	1922.285156	187.926590
29651.325532	-1485.930000	1921.306641	-47.615452
29651.325532	-1485.930000	1920.328125	68.586166
29651.325532	-1485.930000	1919.349609	-103.345612
29651.325532	-1485.930000	1918.370117	-104.329033
29651.325532	-1485.930000	1917.391602	46.019863
29651.325532	-1485.930000	1916.412109	20.632212
29651.325532	-1485.930000	1915.431641	-38.890606
29651.325532	-1485.930000	1914.452148	-34.954842
29651.325532	-1485.930000	1913.472656	-184.649780
29651.325532	-1485.930000	1912.492188	2.216571
29651.325532	-1485.930000	1911.511719	40.317795
29651.325532	-1485.930000	1910.531250	205.168167
29651.325532	-1485.930000	1909.550781	21.486032
29651.325532	-1485.930000	1908.569336	179.003372
29651.325532	-1485.930000	1907.588867	-109.320282
29651.325532	-1485.930000	1906.607422	-122.293022
29651.325532	-1485.930000	1905.625977	266.559235
29651.325532	-1485.930000	1904.644531	178.083603
29651.325532	-1485.930000	1903.662109	6.895842
29651.325532	-1485.930000	1902.680664	67.003944
29651.325532	-1485.930000	1901.698242	-82.157906
29651.325532	-1485.930000	1900.715820	145.855835
29651.325532	-1485.930000	1899.733398	164.615768
29651.325532	-1485.930000	1898.750000	56.927105
29651.325532	-1485.930000	1897.767578	58.720341
29651.325532	-1485.930000	1896.784180	-119.364182
29651.325532	-1485.930000	1895.800781	59.940132
29651.325532	-1485.930000	1894.817383	66.659843
29651.325532	-1485.930000	1893.833984	58.821487
29651.325532	-1485.930000	1892.850586	53.437904
29651.325532	-1485.930000	1891.866211	72.367996
29651.325532	-1485.930000	1890.881836	-115.095497
29651.325532	-1485.930000	1889.897461	-161.647797
29651.325532	-1485.930000	1888.913086	189.940643
29651.325532	-1485.930000	1887.927734	177.373474
29651.325532	-1485.930000	1886.943359	79.907600
29651.325532	-1485.930000	1885.958008	-5.369082
29651.325532	-1485.930000	1884.972656	183.504852
29651.325532	-1485.930000	1883.987305	-30.245028
29651.325532	-1485.930000	1883.001953	51.923206
29651.325532	-1485.930000	1882.015625	-108.340477
29651.325532	-1485.930000	1881.029297	-55.227150
29651.325532	-1485.930000	1880.042969	46.356827
29651.325532	-1485.930000	1879.056641	87.353722
29651.325532	-1485.930000	1878.070313	-169.600845
29651.325532	-1485.930000	1877.083984	-7.432820
29651.325532	-1485.930000	1876.096680	278.195343
29651.325532	-1485.930000	1875.109375	125.524887
29651.325532	-1485.930000	1874.122070	23.766605
29651.325532	-1485.930000	1873.134766	-97.291641
29651.325532	-1485.930000	1872.146484	-27.125772
29651.325532	-1485.930000	1871.159180	18.844315
29651.325532	-1485.930000	1870.170898	-109.335945
29651.325532	-1485.930000	1869.182617	101.124329
29651.325532	-1485.930000	1868.194336	-26.980215
29651.325532	-1485.930000	1867.205078	4.536652
29651.325532	-1485.930000	1866.216797	-89.622200
29651.325532	-1485.930000	1865.227539	36.180622
29651.325532	-1485.930000	1864.238281	-31.329607
29651.325532	-1485.930000	1863.249023	-98.795792
29651.325532	-1485.930000	1862.259766	-11.645036
29651.325532	-1485.930000	1861.269531	-42.829716
29651.325532	-1485.930000	1860.279297	58.802071
29651.325532	-1485.930000	1859.290039	-23.036324
29651.325532	-1485.930000	1858.298828	-51.732525
29651.325532	-1485.930000	1857.308594	209.150131
29651.325532	-1485.930000	1856.318359	-82.500908
29651.325532	-1485.930000	1855.327148	161.440155
29651.325532	-1485.930000	1854.335938	149.681686
29651.325532	-1485.930000	1853.344727	109.010399
29651.325532	-1485.930000	1852.353516	90.066475
29651.325532	-1485.930000	1851.362305	80.785034
29651.325532	-1485.930000	1850.370117	30.557524
29651.325532	-1485.930000	1849.377930	-116.008369
29651.325532	-1485.930000	1848.385742	43.416973
29651.325532	-1485.930000	1847.393555	63.109459
29651.325532	-1485.930000	1846.401367	-30.364981
29651.325532	-1485.930000	1845.408203	119.364647
29651.325532	-1485.930000	1844.415039	35.568031
29651.325532	-1485.930000	1843.421875	26.418503
29651.325532	-1485.930000	1842.428711	-16.401804
29651.325532	-1485.930000	1841.435547	34.626148
29651.325532	-1485.930000	1840.441406	95.265953
29651.325532	-1485.930000	1839.448242	-62.940765
29651.325532	-1485.930000	1838.454102	67.438972
29651.325532	-1485.930000	1837.459961	279.509674
29651.325532	-1485.930000	1836.464844	10.827969
29651.325532	-1485.930000	1835.470703	95.489067
29651.325532	-1485.930000	1834.475586	-21.684347
29651.325532	-1485.930000	1833.480469	-33.116108
29651.325532	-1485.930000	1832.485352	-121.388779
29651.325532	-1485.930000	1831.490234	-144.791946
29651.325532	-1485.930000	1830.495117	23.874043
29651.325532	-1485.930000	1829.499023	77.270309
29651.325532	-1485.930000	1828.502930	130.650696
29651.325532	-1485.930000	1827.506836	181.614273
29651.325532	-1485.930000	1826.510742	-86.487938
29651.325532	-1485.930000	1825.513672	120.401672
29651.325532	-1485.930000	1824.517578	-68.450905
29651.325532	-1485.930000	1823.520508	44.857182
29651.325532	-1485.930000	1822.523438	45.461578
29651.325532	-1485.930000	1821.526367	0.529718
29651.325532	-1485.930000	1820.529297	147.308121
29651.325532	-1485.930000	1819.531250	102.373940
29651.325532	-1485.930000	1818.533203	253.866714
29651.325532	-1485.930000	1817.535156	101.159920
29651.325532	-1485.930000	1816.537109	3.578223
29651.325532	-1485.930000	1815.539063	214.844711
29651.325532	-1485.930000	1814.540039	184.289444
29651.325532	-1485.930000	1813.541992	79.557320
29651.325532	-1485.930000	1812.542969	87.311928
29651.325532	-1485.930000	1811.543945	35.255333
29651.325532	-1485.930000	1810.543945	-14.395698
29651.325532	-1485.930000	1809.544922	153.565308
29651.325532	-1485.930000	1808.544922	225.826309
29651.325532	-1485.930000	1807.544922	-15.075640
29651.325532	-1485.930000	1806.544922	329.615784
29651.325532	-1485.930000	1805.544922	93.548470
29651.325532	-1485.930000	1804.544922	287.569580
29651.325532	-1485.930000	1803.543945	335.810852
29651.325532	-1485.930000	1802.542969	312.383636
29651.325532	-1485.930000	1801.541992	64.520805
29651.325532	-1485.930000	1800.541016	315.652496
29651.325532	-1485.930000	1799.539063	163.328461
29651.325532	-1485.930000	1798.538086	216.265106
29651.325532	-1485.930000	1797.536133	247.698090
29651.325532	-1485.930000	1796.534180	155.068893
29651.325532	-1485.930000	1795.532227	393.959076
29651.325532	-1485.930000	1794.529297	303.695618
29651.325532	-1485.930000	1793.527344	265.897461
29651.325532	-1485.930000	1792.524414	285.304047
29651.325532	-1485.930000	1791.521484	130.724136
29651.325532	-1485.930000	1790.518555	-123.882790
29651.325532	-1485.930000	1789.514648	2.736018
29651.325532	-1485.930000	1788.511719	60.220150
29651.325532	-1485.930000	1787.507813	93.853859
29651.325532	-1485.930000	1786.503906	-27.297173
29651.325532	-1485.930000	1785.500000	-50.825191
29651.325532	-1485.930000	1784.496094	208.846512
29651.325532	-1485.930000	1783.491211	-12.250118
29651.325532	-1485.930000	1782.486328	171.148941
29651.325532	-1485.930000	1781.481445	33.352837
29651.325532	-1485.930000	1780.476563	81.080864
29651.325532	-1485.930000	1779.471680	76.461517
29651.325532	-1485.930000	1778.465820	29.032539
29651.325532	-1485.930000	1777.460938	19.628328
29651.325532	-1485.930000	1776.455078	62.482979
29651.325532	-1485.930000	1775.449219	15.017904
29651.325532	-1485.930000	1774.442383	148.077423
29651.325532	-1485.930000	1773.436523	-132.177689
29651.325532	-1485.930000	1772.429688	131.408371
29651.325532	-1485.930000	1771.422852	337.893860
29651.325532	-1485.930000	1770.416016	278.434631
29651.325532	-1485.930000	1769.409180	105.060654
29651.325532	-1485.930000	1768.402344	64.598694
29651.325532	-1485.930000	1767.394531	97.665421
29651.325532	-1485.930000	1766.386719	54.796764
29651.325532	-1485.930000	1765.378906	23.774622
29651.325532	-1485.930000	1764.371094	-12.004848
29651.325532	-1485.930000	1763.362305	120.503662
29651.325532	-1485.930000	1762.354492	79.925369
29651.325532	-1485.930000	1761.345703	207.570908
29651.325532	-1485.930000	1760.336914	-48.651524
29651.325532	-1485.930000	1759.328125	14.960899
29651.325532	-1485.930000	1758.318359	177.983658
29651.325532	-1485.930000	1757.308594	-9.508933
29651.325532	-1485.930000	1756.299805	302.537994
29651.325532	-1485.930000	1755.290039	27.461164
29651.325532	-1485.930000	1754.279297	112.148926
29651.325532	-1485.930000	1753.269531	-77.673347
29651.325532	-1485.930000	1752.258789	49.520374
29651.325532	-1485.930000	1751.249023	122.239777
29651.325532	-1485.930000	1750.238281	22.285217
29651.325532	-1485.930000	1749.226563	-46.928574
29651.325532	-1485.930000	1748.215820	-101.964958
29651.325532	-1485.930000	1747.204102	-185.370422
29651.325532	-1485.930000	1746.193359	62.012516
29651.325532	-1485.930000	1745.181641	120.282776
29651.325532	-1485.930000	1744.168945	-100.203468
29651.325532	-1485.930000	1743.157227	-32.543419
29651.325532	-1485.930000	1742.144531	-28.689095
29651.325532	-1485.930000	1741.132813	126.205788
29651.325532	-1485.930000	1740.120117	35.559231
29651.325532	-1485.930000	1739.106445	-31.489347
29651.325532	-1485.930000	1738.093750	-15.974321
29651.325532	-1485.930000	1737.080078	93.849304
29651.325532	-1485.930000	1736.067383	69.177757
29651.325532	-1485.930000	1735.053711	162.371155
29651.325532	-1485.930000	1734.040039	29.187262
29651.325532	-1485.930000	1733.025391	-19.131029
29651.325532	-1485.930000	1732.011719	-98.098137
29651.325532	-1485.930000	1730.997070	-52.200844
29651.325532	-1485.930000	1729.982422	116.134186
29651.325532	-1485.930000	1728.967773	-42.991531
29651.325532	-1485.930000	1727.952148	61.630589
29651.325532	-1485.930000	1726.937500	-57.470547
29651.325532	-1485.930000	1725.921875	-82.411880
29651.325532	-1485.930000	1724.906250	19.701420
29651.325532	-1485.930000	1723.890625	142.917175
29651.325532	-1485.930000	1722.875000	-209.138641
29651.325532	-1485.930000	1721.858398	-8.381607
29651.325532	-1485.930000	1720.841797	30.008072
29651.325532	-1485.930000	1719.825195	171.795059
29651.325532	-1485.930000	1718.808594	31.418808
29651.325532	-1485.930000	1717.791992	-52.534706
29651.325532	-1485.930000	1716.774414	13.889912
29651.325532	-1485.930000	1715.756836	131.938446
29651.325532	-1485.930000	1714.739258	186.488861
29651.325532	-1485.930000	1713.721680	158.790237
29651.325532	-1485.930000	1712.704102	241.420776
29651.325532	-1485.930000	1711.685547	-136.122269
29651.325532	-1485.930000	1710.667969	-37.107670
29651.325532	-1485.930000	1709.649414	179.161194
29651.325532	-1485.930000	1708.630859	-97.372368
29651.325532	-1485.930000	1707.611328	-174.455322
29651.325532	-1485.930000	1706.592773	-56.886417
29651.325532	-1485.930000	1705.573242	-19.121626
29651.325532	-1485.930000	1704.553711	133.466125
29651.325532	-1485.930000	1703.534180	30.479506
29651.325532	-1485.930000	1702.513672	79.818893
29651.325532	-1485.930000	1701.494141	234.541351
29651.325532	-1485.930000	1700.473633	103.381065
29651.325532	-1485.930000	1699.453125	21.421358
29651.325532	-1485.930000	1698.432617	26.098921
29651.325532	-1485.930000	1697.412109	-34.810680
29651.325532	-1485.930000	1696.390625	-25.510723
29651.325532	-1485.930000	1695.369141	56.301014
29651.325532	-1485.930000	1694.347656	77.212616
29651.325532	-1485.930000	1693.326172	193.998703
29651.325532	-1485.930000	1692.304688	334.096985
29651.325532	-1485.930000	1691.282227	151.396851
29651.325532	-1485.930000	1690.260742	15.498084
29651.325532	-1485.930000	1689.238281	-10.517062
29651.325532	-1485.930000	1688.214844	367.767578
29651.325532	-1485.930000	1687.192383	213.115082
29651.325532	-1485.930000	1686.168945	254.730591
29651.325532	-1485.930000	1685.146484	265.937836
29651.325532	-1485.930000	1684.123047	188.364731
29651.325532	-1485.930000	1683.099609	183.171356
29651.325532	-1485.930000	1682.075195	56.558422
29651.325532	-1485.930000	1681.051758	207.709290
29651.325532	-1485.930000	1680.027344	179.088577
29651.325532	-1485.930000	1679.002930	75.791077
29651.325532	-1485.930000	1677.978516	303.737976
29651.325532	-1485.930000	1676.953125	230.712952
29651.325532	-1485.930000	1675.928711	306.922058
29651.325532	-1485.930000	1674.903320	191.905914
29651.325532	-1485.930000	1673.877930	228.409821
29651.325532	-1485.930000	1672.852539	369.739807
29651.325532	-1485.930000	1671.826172	280.321960
29651.325532	-1485.930000	1670.800781	274.775787
29651.325532	-1485.930000	1669.774414	343.731476
29651.325532	-1485.930000	1668.748047	289.218689
29651.325532	-1485.930000	1667.721680	411.640137
29651.325532	-1485.930000	1666.694336	101.035149
29651.325532	-1485.930000	1665.667969	367.683594
29651.325532	-1485.930000	1664.640625	331.718445
29651.325532	-1485.930000	1663.613281	116.614792
29651.325532	-1485.930000	1662.585938	315.579102
29651.325532	-1485.930000	1661.557617	209.805878
29651.325532	-1485.930000	1660.530273	343.528381
29651.325532	-1485.930000	1659.501953	186.604935
29651.325532	-1485.930000	1658.473633	259.805725
29651.325532	-1485.930000	1657.444336	260.919006
29651.325532	-1485.930000	1656.416016	394.435944
29651.325532	-1485.930000	1655.386719	476.776337
29651.325532	-1485.930000	1654.358398	477.786926
29651.325532	-1485.930000	1653.328125	365.000366
29651.325532	-1485.930000	1652.298828	482.057770
29651.325532	-1485.930000	1651.269531	429.622314
29651.325532	-1485.930000	1650.239258	560.503601
29651.325532	-1485.930000	1649.208984	707.556091
29651.325532	-1485.930000	1648.178711	492.675629
29651.325532	-1485.930000	1647.148438	414.690887
29651.325532	-1485.930000	1646.117188	552.354736
29651.325532	-1485.930000	1645.086914	759.499756
29651.325532	-1485.930000	1644.055664	781.120483
29651.325532	-1485.930000	1643.024414	647.453308
29651.325532	-1485.930000	1641.992188	828.919006
29651.325532	-1485.930000	1640.960938	556.276978
29651.325532	-1485.930000	1639.928711	941.470093
29651.325532	-1485.930000	1638.896484	786.973877
29651.325532	-1485.930000	1637.864258	766.800598
29651.325532	-1485.930000	1636.832031	950.312134
29651.325532	-1485.930000	1635.798828	1052.739868
29651.325532	-1485.930000	1634.766602	944.566772
29651.325532	-1485.930000	1633.733398	1086.258179
29651.325532	-1485.930000	1632.699219	1065.980591
29651.325532	-1485.930000	1631.666016	1078.076538
29651.325532	-1485.930000	1630.632813	1282.052856
29651.325532	-1485.930000	1629.598633	1414.279419
29651.325532	-1485.930000	1628.564453	1299.160889
29651.325532	-1485.930000	1627.530273	1216.428101
29651.325532	-1485.930000	1626.495117	1369.353516
29651.325532	-1485.930000	1625.460938	1496.809082
29651.325532	-1485.930000	1624.425781	1434.843872
29651.325532	-1485.930000	1623.390625	1772.325317
29651.325532	-1485.930000	1622.355469	1525.648438
29651.325532	-1485.930000	1621.319336	1396.764404
29651.325532	-1485.930000	1620.284180	1517.136841
29651.325532	-1485.930000	1619.248047	1556.709595
29651.325532	-1485.930000	1618.211914	1600.877197
29651.325532	-1485.930000	1617.174805	1824.899414
29651.325532	-1485.930000	1616.138672	1670.703003
29651.325532	-1485.930000	1615.101563	1544.224609
29651.325532	-1485.930000	1614.065430	1498.466309
29651.325532	-1485.930000	1613.027344	1577.152100
29651.325532	-1485.930000	1611.990234	1595.909668
29651.325532	-1485.930000	1610.953125	1716.012329
29651.325532	-1485.930000	1609.915039	1543.586060
29651.325532	-1485.930000	1608.876953	1631.416138
29651.325532	-1485.930000	1607.838867	1585.693726
29651.325532	-1485.930000	1606.800781	1721.821655
29651.325532	-1485.930000	1605.761719	1772.753174
29651.325532	-1485.930000	1604.723633	1522.273193
29651.325532	-1485.930000	1603.684570	1400.710083
29651.325532	-1485.930000	1602.644531	1481.583252
29651.325532	-1485.930000	1601.605469	1569.332886
29651.325532	-1485.930000	1600.566406	1500.725464
29651.325532	-1485.930000	1599.526367	1572.358887
29651.325532	-1485.930000	1598.486328	1434.847412
29651.325532	-1485.930000	1597.446289	1460.529663
29651.325532	-1485.930000	1596.405273	1456.344238
29651.325532	-1485.930000	1595.365234	1571.603149
29651.325532	-1485.930000	1594.324219	1638.602051
29651.325532	-1485.930000	1593.283203	1526.511963
29651.325532	-1485.930000	1592.242188	1650.900757
29651.325532	-1485.930000	1591.200195	1476.910278
29651.325532	-1485.930000	1590.159180	1362.659180
29651.325532	-1485.930000	1589.117188	1519.159058
29651.325532	-1485.930000	1588.075195	1359.097290
29651.325532	-1485.930000	1587.032227	1609.580688
29651.325532	-1485.930000	1585.990234	1435.838013
29651.325532	-1485.930000	1584.947266	1344.696533
29651.325532	-1485.930000	1583.904297	1340.695068
29651.325532	-1485.930000	1582.861328	1355.043335
29651.325532	-1485.930000	1581.818359	1319.003662
29651.325532	-1485.930000	1580.775391	1287.578491
29651.325532	-1485.930000	1579.731445	1274.500732
29651.325532	-1485.930000	1578.687500	1126.364990
29651.325532	-1485.930000	1577.643555	1248.419922
29651.325532	-1485.930000	1576.598633	1272.034058
29651.325532	-1485.930000	1575.554688	1192.694702
29651.325532	-1485.930000	1574.509766	1072.225464
29651.325532	-1485.930000	1573.464844	1047.893677
29651.325532	-1485.930000	1572.419922	1089.912842
29651.325532	-1485.930000	1571.374023	974.174988
29651.325532	-1485.930000	1570.329102	1199.117554
29651.325532	-1485.930000	1569.283203	1120.021118
29651.325532	-1485.930000	1568.237305	1079.828003
29651.325532	-1485.930000	1567.191406	1304.691895
29651.325532	-1485.930000	1566.144531	953.883972
29651.325532	-1485.930000	1565.098633	872.721252
29651.325532	-1485.930000	1564.051758	871.530518
29651.325532	-1485.930000	1563.004883	886.349548
29651.325532	-1485.930000	1561.957031	629.587158
29651.325532	-1485.930000	1560.910156	900.081604
29651.325532	-1485.930000	1559.862305	983.417725
29651.325532	-1485.930000	1558.814453	777.062866
29651.325532	-1485.930000	1557.766602	748.705994
29651.325532	-1485.930000	1556.718750	677.069336
29651.325532	-1485.930000	1555.669922	628.289612
29651.325532	-1485.930000	1554.621094	609.191284
29651.325532	-1485.930000	1553.573242	644.829285
29651.325532	-1485.930000	1552.523438	536.948425
29651.325532	-1485.930000	1551.474609	620.489624
29651.325532	-1485.930000	1550.424805	533.223694
29651.325532	-1485.930000	1549.375000	405.043488
29651.325532	-1485.930000	1548.325195	673.069641
29651.325532	-1485.930000	1547.275391	608.717651
29651.325532	-1485.930000	1546.225586	316.866150
29651.325532	-1485.930000	1545.174805	562.111938
29651.325532	-1485.930000	1544.124023	456.990204
29651.325532	-1485.930000	1543.073242	317.835388
29651.325532	-1485.930000	1542.022461	488.019165
29651.325532	-1485.930000	1540.970703	485.397400
29651.325532	-1485.930000	1539.919922	344.170135
29651.325532	-1485.930000	1538.868164	591.637512
29651.325532	-1485.930000	1537.815430	436.893860
29651.325532	-1485.930000	1536.763672	600.282593
29651.325532	-1485.930000	1535.710938	434.330566
29651.325532	-1485.930000	1534.659180	704.467896
29651.325532	-1485.930000	1533.606445	347.948273
29651.325532	-1485.930000	1532.552734	652.129700
29651.325532	-1485.930000	1531.500000	511.443878
29651.325532	-1485.930000	1530.446289	577.329407
29651.325532	-1485.930000	1529.393555	312.041992
29651.325532	-1485.930000	1528.338867	214.737473
29651.325532	-1485.930000	1527.285156	228.632095
29651.325532	-1485.930000	1526.231445	262.974762
29651.325532	-1485.930000	1525.176758	365.352386
29651.325532	-1485.930000	1524.122070	476.805054
29651.325532	-1485.930000	1523.067383	341.292206
29651.325532	-1485.930000	1522.012695	402.969604
29651.325532	-1485.930000	1520.957031	206.475159
29651.325532	-1485.930000	1519.901367	168.620193
29651.325532	-1485.930000	1518.845703	69.705940
29651.325532	-1485.930000	1517.790039	124.805130
29651.325532	-1485.930000	1516.734375	50.938702
29651.325532	-1485.930000	1515.677734	24.670580
29651.325532	-1485.930000	1514.621094	18.827465
29651.325532	-1485.930000	1513.564453	-172.423218
29651.325532	-1485.930000	1512.507813	170.125977
29651.325532	-1485.930000	1511.450195	46.857517
29651.325532	-1485.930000	1510.393555	145.215775
29651.325532	-1485.930000	1509.335938	-52.464352
29651.325532	-1485.930000	1508.278320	36.949142
29651.325532	-1485.930000	1507.219727	106.052795
29651.325532	-1485.930000	1506.162109	161.636230
29651.325532	-1485.930000	1505.103516	160.801331
29651.325532	-1485.930000	1504.044922	119.385963
29651.325532	-1485.930000	1502.986328	21.615093
29651.325532	-1485.930000	1501.926758	-60.259205
29651.325532	-1485.930000	1500.868164	-230.039703
29651.325532	-1485.930000	1499.808594	-47.767506
29651.325532	-1485.930000	1498.749023	157.049210
29651.325532	-1485.930000	1497.688477	48.395119
29651.325532	-1485.930000	1496.628906	-188.664825
29651.325532	-1485.930000	1495.568359	83.866753
29651.325532	-1485.930000	1494.507813	277.473633
29651.325532	-1485.930000	1493.447266	184.904221
29651.325532	-1485.930000	1492.386719	193.811127
29651.325532	-1485.930000	1491.325195	229.807343
29651.325532	-1485.930000	1490.263672	184.783569
29651.325532	-1485.930000	1489.202148	-4.250099
29651.325532	-1485.930000	1488.140625	-100.852936
29651.325532	-1485.930000	1487.079102	200.996841
29651.325532	-1485.930000	1486.016602	190.027679
29651.325532	-1485.930000	1484.954102	-5.344634
29651.325532	-1485.930000	1483.891602	-11.638356
29651.325532	-1485.930000	1482.829102	146.300095
29651.325532	-1485.930000	1481.765625	277.270691
29651.325532	-1485.930000	1480.702148	172.231918
29651.325532	-1485.930000	1479.638672	139.227982
29651.325532	-1485.930000	1478.575195	180.468124
29651.325532	-1485.930000	1477.511719	109.449638
29651.325532	-1485.930000	1476.447266	148.586075
29651.325532	-1485.930000	1475.382813	-34.526737
29651.325532	-1485.930000	1474.318359	-111.913948
29651.325532	-1485.930000	1473.253906	46.414886
29651.325532	-1485.930000	1472.189453	63.407246
29651.325532	-1485.930000	1471.124023	22.079483
29651.325532	-1485.930000	1470.058594	-43.707272
29651.325532	-1485.930000	1468.993164	94.363586
29651.325532	-1485.930000	1467.927734	93.680908
29651.325532	-1485.930000	1466.861328	7.889210
29651.325532	-1485.930000	1465.794922	-68.851830
29651.325532	-1485.930000	1464.728516	239.653275
29651.325532	-1485.930000	1463.662109	326.319733
29651.325532	-1485.930000	1462.594727	39.601826
29651.325532	-1485.930000	1461.528320	271.881500
29651.325532	-1485.930000	1460.460938	177.674728
29651.325532	-1485.930000	1459.393555	5.894660
29651.325532	-1485.930000	1458.326172	358.641022
29651.325532	-1485.930000	1457.257813	199.765900
29651.325532	-1485.930000	1456.189453	372.073822
29651.325532	-1485.930000	1455.121094	308.992676
29651.325532	-1485.930000	1454.052734	193.890671
29651.325532	-1485.930000	1452.984375	281.805023
29651.325532	-1485.930000	1451.915039	452.343048
29651.325532	-1485.930000	1450.845703	230.837189
29651.325532	-1485.930000	1449.776367	643.775818
29651.325532	-1485.930000	1448.707031	223.421692
29651.325532	-1485.930000	1447.636719	268.156738
29651.325532	-1485.930000	1446.567383	427.484955
29651.325532	-1485.930000	1445.497070	199.098877
29651.325532	-1485.930000	1444.425781	328.534882
29651.325532	-1485.930000	1443.355469	429.144196
29651.325532	-1485.930000	1442.285156	291.422119
29651.325532	-1485.930000	1441.213867	315.899353
29651.325532	-1485.930000	1440.142578	465.059052
29651.325532	-1485.930000	1439.070313	465.183014
29651.325532	-1485.930000	1437.999023	321.032898
29651.325532	-1485.930000	1436.926758	170.704620
29651.325532	-1485.930000	1435.854492	282.983734
29651.325532	-1485.930000	1434.782227	238.122192
29651.325532	-1485.930000	1433.709961	288.459808
29651.325532	-1485.930000	1432.636719	345.877380
29651.325532	-1485.930000	1431.563477	65.475624
29651.325532	-1485.930000	1430.490234	118.564072
29651.325532	-1485.930000	1429.416992	-59.722569
29651.325532	-1485.930000	1428.343750	-77.038651
29651.325532	-1485.930000	1427.269531	260.075073
29651.325532	-1485.930000	1426.195313	104.286331
29651.325532	-1485.930000	1425.121094	109.890923
29651.325532	-1485.930000	1424.046875	15.967879
29651.325532	-1485.930000	1422.971680	-68.536987
29651.325532	-1485.930000	1421.896484	-98.276566
29651.325532	-1485.930000	1420.821289	-59.063469
29651.325532	-1485.930000	1419.746094	25.774075
29651.325532	-1485.930000	1418.669922	55.002441
29651.325532	-1485.930000	1417.594727	48.528049
29651.325532	-1485.930000	1416.518555	-115.058563
29651.325532	-1485.930000	1415.442383	158.680084
29651.325532	-1485.930000	1414.365234	84.251801
29651.325532	-1485.930000	1413.289063	49.172821
29651.325532	-1485.930000	1412.211914	38.167965
29651.325532	-1485.930000	1411.134766	18.112900
29651.325532	-1485.930000	1410.057617	138.483047
29651.325532	-1485.930000	1408.979492	249.122452
29651.325532	-1485.930000	1407.902344	221.952911
29651.325532	-1485.930000	1406.824219	195.829742
29651.325532	-1485.930000	1405.746094	248.307953
29651.325532	-1485.930000	1404.666992	328.026764
29651.325532	-1485.930000	1403.588867	221.159317
29651.325532	-1485.930000	1402.509766	395.891571
29651.325532	-1485.930000	1401.430664	263.198120
29651.325532	-1485.930000	1400.351563	238.984024
29651.325532	-1485.930000	1399.271484	539.030396
29651.325532	-1485.930000	1398.192383	521.238281
29651.325532	-1485.930000	1397.112305	584.404480
29651.325532	-1485.930000	1396.031250	471.329803
29651.325532	-1485.930000	1394.951172	538.218567
29651.325532	-1485.930000	1393.871094	588.204468
29651.325532	-1485.930000	1392.790039	471.286743
29651.325532	-1485.930000	1391.708984	314.928680
29651.325532	-1485.930000	1390.626953	179.494827
29651.325532	-1485.930000	1389.545898	456.807037
29651.325532	-1485.930000	1388.463867	463.968811
29651.325532	-1485.930000	1387.381836	297.816132
29651.325532	-1485.930000	1386.299805	456.370239
29651.325532	-1485.930000	1385.217773	364.934540
29651.325532	-1485.930000	1384.134766	536.980347
29651.325532	-1485.930000	1383.051758	561.697876
29651.325532	-1485.930000	1381.968750	534.454102
29651.325532	-1485.930000	1380.885742	529.967346
29651.325532	-1485.930000	1379.802734	265.876984
29651.325532	-1485.930000	1378.718750	499.978851
29651.325532	-1485.930000	1377.634766	460.455017
29651.325532	-1485.930000	1376.550781	438.383270
29651.325532	-1485.930000	1375.465820	324.757874
29651.325532	-1485.930000	1374.381836	440.505341
29651.325532	-1485.930000	1373.296875	422.575470
29651.325532	-1485.930000	1372.211914	468.530914
29651.325532	-1485.930000	1371.126953	469.807831
29651.325532	-1485.930000	1370.041016	284.405609
29651.325532	-1485.930000	1368.955078	476.064453
29651.325532	-1485.930000	1367.869141	335.872772
29651.325532	-1485.930000	1366.783203	426.867371
29651.325532	-1485.930000	1365.697266	320.868073
29651.325532	-1485.930000	1364.610352	226.884323
29651.325532	-1485.930000	1363.523438	329.651123
29651.325532	-1485.930000	1362.436523	227.694427
29651.325532	-1485.930000	1361.349609	332.016724
29651.325532	-1485.930000	1360.261719	185.485046
29651.325532	-1485.930000	1359.174805	222.124847
29651.325532	-1485.930000	1358.086914	227.956787
29651.325532	-1485.930000	1356.998047	211.935669
29651.325532	-1485.930000	1355.910156	29.636387
29651.325532	-1485.930000	1354.821289	-56.062649
29651.325532	-1485.930000	1353.732422	104.990990
29651.325532	-1485.930000	1352.643555	360.267548
29651.325532	-1485.930000	1351.554688	165.557571
29651.325532	-1485.930000	1350.464844	207.448242
29651.325532	-1485.930000	1349.375000	133.484360
29651.325532	-1485.930000	1348.285156	-93.412704
29651.325532	-1485.930000	1347.195313	83.732170
29651.325532	-1485.930000	1346.105469	308.173370
29651.325532	-1485.930000	1345.014648	261.136993
29651.325532	-1485.930000	1343.923828	141.940002
29651.325532	-1485.930000	1342.833008	268.025269
29651.325532	-1485.930000	1341.741211	252.729309
29651.325532	-1485.930000	1340.650391	205.610992
29651.325532	-1485.930000	1339.558594	316.867401
29651.325532	-1485.930000	1338.466797	231.342560
29651.325532	-1485.930000	1337.374023	104.655472
29651.325532	-1485.930000	1336.282227	147.964157
29651.325532	-1485.930000	1335.189453	163.625244
29651.325532	-1485.930000	1334.096680	138.462082
29651.325532	-1485.930000	1333.003906	149.221222
29651.325532	-1485.930000	1331.910156	54.814774
29651.325532	-1485.930000	1330.817383	245.213806
29651.325532	-1485.930000	1329.723633	103.697235
29651.325532	-1485.930000	1328.629883	-115.455757
29651.325532	-1485.930000	1327.535156	122.444427
29651.325532	-1485.930000	1326.441406	72.637085
29651.325532	-1485.930000	1325.346680	37.865295
29651.325532	-1485.930000	1324.251953	15.477408
29651.325532	-1485.930000	1323.156250	167.830170
29651.325532	-1485.930000	1322.061523	31.222097
29651.325532	-1485.930000	1320.965820	10.498150
29651.325532	-1485.930000	1319.870117	44.690090
29651.325532	-1485.930000	1318.774414	142.861801
29651.325532	-1485.930000	1317.678711	22.937506
29651.325532	-1485.930000	1316.582031	123.122795
29651.325532	-1485.930000	1315.485352	176.493225
29651.325532	-1485.930000	1314.388672	369.129242
29651.325532	-1485.930000	1313.291016	352.073486
29651.325532	-1485.930000	1312.194336	163.811279
29651.325532	-1485.930000	1311.096680	225.821960
29651.325532	-1485.930000	1309.999023	274.291290
29651.325532	-1485.930000	1308.901367	106.296768
29651.325532	-1485.930000	1307.802734	126.788383
29651.325532	-1485.930000	1306.705078	286.898590
29651.325532	-1485.930000	1305.606445	344.225250
29651.325532	-1485.930000	1304.506836	375.846924
29651.325532	-1485.930000	1303.408203	106.886154
29651.325532	-1485.930000	1302.308594	170.687027
29651.325532	-1485.930000	1301.208984	345.516052
29651.325532	-1485.930000	1300.109375	414.205597
29651.325532	-1485.930000	1299.009766	445.909424
29651.325532	-1485.930000	1297.909180	437.618683
29651.325532	-1485.930000	1296.808594	426.063660
29651.325532	-1485.930000	1295.708008	506.939056
29651.325532	-1485.930000	1294.607422	433.173920
29651.325532	-1485.930000	1293.506836	294.919983
29651.325532	-1485.930000	1292.405273	278.320984
29651.325532	-1485.930000	1291.303711	335.443878
29651.325532	-1485.930000	1290.202148	245.293945
29651.325532	-1485.930000	1289.099609	101.676071
29651.325532	-1485.930000	1287.998047	165.642685
29651.325532	-1485.930000	1286.895508	117.469246
29651.325532	-1485.930000	1285.792969	116.091812
29651.325532	-1485.930000	1284.689453	179.234299
29651.325532	-1485.930000	1283.586914	168.897202
29651.325532	-1485.930000	1282.483398	173.317093
29651.325532	-1485.930000	1281.379883	69.651596
29651.325532	-1485.930000	1280.276367	27.248735
29651.325532	-1485.930000	1279.171875	83.727043
29651.325532	-1485.930000	1278.067383	-3.044967
29651.325532	-1485.930000	1276.962891	11.003370
29651.325532	-1485.930000	1275.858398	-13.027991
29651.325532	-1485.930000	1274.753906	118.951141
29651.325532	-1485.930000	1273.648438	53.656059
29651.325532	-1485.930000	1272.542969	47.891727
29651.325532	-1485.930000	1271.437500	-151.627640
29651.325532	-1485.930000	1270.331055	-160.335159
29651.325532	-1485.930000	1269.225586	-52.950466
29651.325532	-1485.930000	1268.119141	-109.746361
29651.325532	-1485.930000	1267.012695	-9.594702
29651.325532	-1485.930000	1265.906250	-90.572296
29651.325532	-1485.930000	1264.798828	-24.479378
29651.325532	-1485.930000	1263.691406	55.883450
29651.325532	-1485.930000	1262.583984	42.034107
29651.325532	-1485.930000	1261.476563	27.373341
29651.325532	-1485.930000	1260.368164	10.117555
29651.325532	-1485.930000	1259.260742	-47.839806
29651.325532	-1485.930000	1258.152344	-78.351418
29651.325532	-1485.930000	1257.043945	-14.101745
29651.325532	-1485.930000	1255.934570	-151.631180
29651.325532	-1485.930000	1254.825195	-65.922035
29651.325532	-1485.930000	1253.716797	-7.277938
29651.325532	-1485.930000	1252.606445	-118.745567
29651.325532	-1485.930000	1251.497070	-74.095886
29651.325532	-1485.930000	1250.387695	-41.153461
29651.325532	-1485.930000	1249.277344	90.813812
29651.325532	-1485.930000	1248.166992	-15.709612
29651.325532	-1485.930000	1247.055664	13.562077
29651.325532	-1485.930000	1245.945313	-13.271717
29651.325532	-1485.930000	1244.833984	119.284088
29651.325532	-1485.930000	1243.722656	67.055756
29651.325532	-1485.930000	1242.611328	-87.590134
29651.325532	-1485.930000	1241.499023	116.322662
29651.325532	-1485.930000	1240.387695	56.076180
29651.325532	-1485.930000	1239.275391	-21.071800
29651.325532	-1485.930000	1238.162109	-110.194145
29651.325532	-1485.930000	1237.049805	-133.761734
29651.325532	-1485.930000	1235.936523	-175.426941
29651.325532	-1485.930000	1234.823242	-125.712143
29651.325532	-1485.930000	1233.709961	-52.253643
29651.325532	-1485.930000	1232.596680	-17.167273
29651.325532	-1485.930000	1231.482422	54.048595
29651.325532	-1485.930000	1230.369141	23.006153
29651.325532	-1485.930000	1229.253906	-89.737801
29651.325532	-1485.930000	1228.139648	-1.948247
29651.325532	-1485.930000	1227.025391	69.554176
29651.325532	-1485.930000	1225.910156	-13.349050
29651.325532	-1485.930000	1224.794922	-201.477081
29651.325532	-1485.930000	1223.679688	-128.759186
29651.325532	-1485.930000	1222.563477	-180.912552
29651.325532	-1485.930000	1221.447266	60.668526
29651.325532	-1485.930000	1220.331055	45.367264
29651.325532	-1485.930000	1219.214844	177.076675
29651.325532	-1485.930000	1218.098633	44.236641
29651.325532	-1485.930000	1216.981445	7.037171
29651.325532	-1485.930000	1215.864258	66.507851
29651.325532	-1485.930000	1214.747070	113.888367
29651.325532	-1485.930000	1213.629883	-15.058134
29651.325532	-1485.930000	1212.511719	77.003822
29651.325532	-1485.930000	1211.393555	-12.808220
29651.325532	-1485.930000	1210.275391	40.226883
29651.325532	-1485.930000	1209.157227	-60.197048
29651.325532	-1485.930000	1208.038086	-10.796339
29651.325532	-1485.930000	1206.918945	97.231186
29651.325532	-1485.930000	1205.799805	162.077408
29651.325532	-1485.930000	1204.680664	162.443954
29651.325532	-1485.930000	1203.560547	90.235550
29651.325532	-1485.930000	1202.441406	143.427383
29651.325532	-1485.930000	1201.321289	-38.649151
29651.325532	-1485.930000	1200.200195	59.485878
29651.325532	-1485.930000	1199.080078	134.933746
29651.325532	-1485.930000	1197.958984	260.253296
29651.325532	-1485.930000	1196.837891	45.081882
29651.325532	-1485.930000	1195.716797	175.625061
29651.325532	-1485.930000	1194.594727	220.298157
29651.325532	-1485.930000	1193.473633	202.350159
29651.325532	-1485.930000	1192.351563	137.896347
29651.325532	-1485.930000	1191.229492	137.898407
29651.325532	-1485.930000	1190.106445	191.011841
29651.325532	-1485.930000	1188.984375	96.190865
29651.325532	-1485.930000	1187.861328	160.888519
29651.325532	-1485.930000	1186.738281	215.871277
29651.325532	-1485.930000	1185.614258	171.311142
29651.325532	-1485.930000	1184.491211	172.980927
29651.325532	-1485.930000	1183.367188	217.314926
29651.325532	-1485.930000	1182.243164	192.745758
29651.325532	-1485.930000	1181.119141	335.295441
29651.325532	-1485.930000	1179.994141	317.510925
29651.325532	-1485.930000	1178.869141	279.904907
29651.325532	-1485.930000	1177.744141	341.126495
29651.325532	-1485.930000	1176.619141	275.918365
29651.325532	-1485.930000	1175.493164	212.065689
29651.325532	-1485.930000	1174.368164	303.970673
29651.325532	-1485.930000	1173.242188	386.293732
29651.325532	-1485.930000	1172.115234	326.659424
29651.325532	-1485.930000	1170.989258	240.377365
29651.325532	-1485.930000	1169.862305	358.275818
29651.325532	-1485.930000	1168.735352	284.526031
29651.325532	-1485.930000	1167.608398	199.781937
29651.325532	-1485.930000	1166.481445	245.151611
29651.325532	-1485.930000	1165.353516	299.059570
29651.325532	-1485.930000	1164.225586	206.224106
29651.325532	-1485.930000	1163.097656	-55.205734
29651.325532	-1485.930000	1161.968750	62.707230
29651.325532	-1485.930000	1160.840820	182.757599
29651.325532	-1485.930000	1159.711914	171.485992
29651.325532	-1485.930000	1158.583008	221.367706
29651.325532	-1485.930000	1157.453125	131.682556
29651.325532	-1485.930000	1156.324219	19.736176
29651.325532	-1485.930000	1155.194336	39.738873
29651.325532	-1485.930000	1154.064453	208.589920
29651.325532	-1485.930000	1152.933594	204.737000
29651.325532	-1485.930000	1151.803711	179.399094
29651.325532	-1485.930000	1150.672852	219.121246
29651.325532	-1485.930000	1149.541992	148.142715
29651.325532	-1485.930000	1148.411133	187.510117
29651.325532	-1485.930000	1147.279297	289.516693
29651.325532	-1485.930000	1146.147461	155.457489
29651.325532	-1485.930000	1145.015625	77.930908
29651.325532	-1485.930000	1143.883789	151.982590
29651.325532	-1485.930000	1142.750977	117.389046
29651.325532	-1485.930000	1141.619141	24.555508
29651.325532	-1485.930000	1140.486328	202.190491
29651.325532	-1485.930000	1139.352539	212.731171
29651.325532	-1485.930000	1138.219727	233.321259
29651.325532	-1485.930000	1137.085938	331.467926
29651.325532	-1485.930000	1135.952148	201.586716
29651.325532	-1485.930000	1134.818359	330.557281
29651.325532	-1485.930000	1133.683594	384.806305
29651.325532	-1485.930000	1132.549805	378.919342
29651.325532	-1485.930000	1131.415039	535.770325
29651.325532	-1485.930000	1130.279297	565.056335
29651.325532	-1485.930000	1129.144531	717.550537
29651.325532	-1485.930000	1128.008789	645.020325
29651.325532	-1485.930000	1126.873047	512.189148
29651.325532	-1485.930000	1125.737305	569.690735
29651.325532	-1485.930000	1124.601563	569.331543
29651.325532	-1485.930000	1123.464844	579.291870
29651.325532	-1485.930000	1122.328125	435.188873
29651.325532	-1485.930000	1121.191406	591.075256
29651.325532	-1485.930000	1120.054688	617.702759
29651.325532	-1485.930000	1118.916992	382.175446
29651.325532	-1485.930000	1117.779297	518.006165
29651.325532	-1485.930000	1116.641602	448.130371
29651.325532	-1485.930000	1115.503906	391.947418
29651.325532	-1485.930000	1114.365234	385.788666
29651.325532	-1485.930000	1113.226563	329.033417
29651.325532	-1485.930000	1112.087891	245.575119
29651.325532	-1485.930000	1110.949219	388.497742
29651.325532	-1485.930000	1109.809570	359.876617
29651.325532	-1485.930000	1108.669922	234.060013
29651.325532	-1485.930000	1107.530273	157.355469
29651.325532	-1485.930000	1106.390625	351.144806
29651.325532	-1485.930000	1105.250000	246.140915
29651.325532	-1485.930000	1104.109375	236.524292
29651.325532	-1485.930000	1102.968750	284.289001
29651.325532	-1485.930000	1101.828125	200.038574
29651.325532	-1485.930000	1100.686523	205.761185
29651.325532	-1485.930000	1099.544922	264.051544
29651.325532	-1485.930000	1098.403320	330.907654
29651.325532	-1485.930000	1097.261719	309.370544
29651.325532	-1485.930000	1096.120117	201.741959
29651.325532	-1485.930000	1094.977539	317.955261
29651.325532	-1485.930000	1093.834961	170.921768
29651.325532	-1485.930000	1092.691406	234.939011
29651.325532	-1485.930000	1091.548828	163.280106
29651.325532	-1485.930000	1090.405273	234.133804
29651.325532	-1485.930000	1089.261719	151.267105
29651.325532	-1485.930000	1088.118164	-20.942051
29651.325532	-1485.930000	1086.973633	261.586914
29651.325532	-1485.930000	1085.829102	93.403343
29651.325532	-1485.930000	1084.684570	143.425247
29651.325532	-1485.930000	1083.540039	79.715179
29651.325532	-1485.930000	1082.395508	130.582779
29651.325532	-1485.930000	1081.250000	174.071335
29651.325532	-1485.930000	1080.104492	201.608337
29651.325532	-1485.930000	1078.958984	209.224136
29651.325532	-1485.930000	1077.812500	-45.423832
29651.325532	-1485.930000	1076.666016	369.230713
29651.325532	-1485.930000	1075.519531	160.152740
29651.325532	-1485.930000	1074.373047	33.784710
29651.325532	-1485.930000	1073.226563	156.675568
29651.325532	-1485.930000	1072.079102	63.972797
29651.325532	-1485.930000	1070.931641	239.716568
29651.325532	-1485.930000	1069.784180	230.245850
29651.325532	-1485.930000	1068.635742	220.344788
29651.325532	-1485.930000	1067.487305	239.173737
29651.325532	-1485.930000	1066.338867	243.268021
29651.325532	-1485.930000	1065.190430	382.363129
29651.325532	-1485.930000	1064.041992	42.312695
29651.325532	-1485.930000	1062.892578	359.605774
29651.325532	-1485.930000	1061.743164	242.882462
29651.325532	-1485.930000	1060.593750	88.115570
29651.325532	-1485.930000	1059.443359	-18.296787
29651.325532	-1485.930000	1058.292969	182.971161
29651.325532	-1485.930000	1057.142578	78.419586
29651.325532	-1485.930000	1055.992188	25.194178
29651.325532	-1485.930000	1054.841797	41.786316
29651.325532	-1485.930000	1053.690430	71.089073
29651.325532	-1485.930000	1052.539063	26.831757
29651.325532	-1485.930000	1051.387695	-24.104593
29651.325532	-1485.930000	1050.235352	43.996243
29651.325532	-1485.930000	1049.083984	54.764893
29651.325532	-1485.930000	1047.931641	-37.336166
29651.325532	-1485.930000	1046.778320	27.227339
29651.325532	-1485.930000	1045.625977	60.192722
29651.325532	-1485.930000	1044.472656	70.907990
29651.325532	-1485.930000	1043.319336	28.586168
29651.325532	-1485.930000	1042.166016	-9.223695
29651.325532	-1485.930000	1041.012695	101.872185
29651.325532	-1485.930000	1039.858398	20.010628
29651.325532	-1485.930000	1038.704102	210.793488
29651.325532	-1485.930000	1037.549805	144.286438
29651.325532	-1485.930000	1036.394531	-31.272243
29651.325532	-1485.930000	1035.239258	221.811218
29651.325532	-1485.930000	1034.083984	54.199181
29651.325532	-1485.930000	1032.928711	57.463181
29651.325532	-1485.930000	1031.773438	257.840790
29651.325532	-1485.930000	1030.617188	73.622841
29651.325532	-1485.930000	1029.460938	114.847076
29651.325532	-1485.930000	1028.304688	63.205147
29651.325532	-1485.930000	1027.147461	94.090385
29651.325532	-1485.930000	1025.991211	161.330185
29651.325532	-1485.930000	1024.833984	92.522430
29651.325532	-1485.930000	1023.675781	78.103813
29651.325532	-1485.930000	1022.518555	210.868744
29651.325532	-1485.930000	1021.360352	-87.803848
29651.325532	-1485.930000	1020.202148	-48.774406
29651.325532	-1485.930000	1019.043945	-37.846359
29651.325532	-1485.930000	1017.884766	268.248383
29651.325532	-1485.930000	1016.726563	-5.361465
29651.325532	-1485.930000	1015.567383	54.293556
29651.325532	-1485.930000	1014.407227	113.560326
29651.325532	-1485.930000	1013.248047	60.032589
29651.325532	-1485.930000	1012.087891	-0.352593
29651.325532	-1485.930000	1010.927734	-123.264977
29651.325532	-1485.930000	1009.767578	-60.267742
29651.325532	-1485.930000	1008.606445	-77.298096
29651.325532	-1485.930000	1007.446289	-56.321560
29651.325532	-1485.930000	1006.285156	11.940437
29651.325532	-1485.930000	1005.123047	55.915855
29651.325532	-1485.930000	1003.961914	32.183285
29651.325532	-1485.930000	1002.799805	-124.409523
29651.325532	-1485.930000	1001.637695	-37.576023
29651.325532	-1485.930000	1000.475586	-26.726068
29651.325532	-1485.930000	999.312500	56.937302
29651.325532	-1485.930000	998.149414	7.608912
29651.325532	-1485.930000	996.986328	61.350605
29651.325532	-1485.930000	995.823242	-36.127342
29651.325532	-1485.930000	994.659180	21.351809
29651.325532	-1485.930000	993.496094	-17.362347
29651.325532	-1485.930000	992.332031	73.998367
29651.325532	-1485.930000	991.166992	-234.801163
29651.325532	-1485.930000	990.002930	0.225553
29651.325532	-1485.930000	988.837891	5.333824
29651.325532	-1485.930000	987.672852	-155.247101
29651.325532	-1485.930000	986.506836	-44.434380
29651.325532	-1485.930000	985.341797	-126.169106
29651.325532	-1485.930000	984.175781	-68.369957
29651.325532	-1485.930000	983.009766	-161.699188
29651.325532	-1485.930000	981.843750	-24.689688
29651.325532	-1485.930000	980.676758	-76.794876
29651.325532	-1485.930000	979.509766	-36.756050
29651.325532	-1485.930000	978.342773	146.475952
29651.325532	-1485.930000	977.175781	10.475651
29651.325532	-1485.930000	976.007813	98.547356
29651.325532	-1485.930000	974.839844	224.788727
29651.325532	-1485.930000	973.671875	87.648331
29651.325532	-1485.930000	972.503906	71.467308
29651.325532	-1485.930000	971.334961	183.664108
29651.325532	-1485.930000	970.166016	-176.315842
29651.325532	-1485.930000	968.997070	-225.977112
29651.325532	-1485.930000	967.828125	116.438408
29651.325532	-1485.930000	966.658203	-34.416508
29651.325532	-1485.930000	965.488281	49.533501
29651.325532	-1485.930000	964.318359	-81.182930
29651.325532	-1485.930000	963.148438	-25.793039
29651.325532	-1485.930000	961.977539	-121.466408
29651.325532	-1485.930000	960.806641	42.299164
29651.325532	-1485.930000	959.635742	-68.907158
29651.325532	-1485.930000	958.463867	31.210796
29651.325532	-1485.930000	957.292969	101.989319
29651.325532	-1485.930000	956.121094	154.603424
29651.325532	-1485.930000	954.948242	98.800438
29651.325532	-1485.930000	953.776367	55.294666
29651.325532	-1485.930000	952.603516	12.550091
29651.325532	-1485.930000	951.430664	-53.033501
29651.325532	-1485.930000	950.257813	-89.558357
29651.325532	-1485.930000	949.084961	-13.769313
29651.325532	-1485.930000	947.911133	-83.600822
29651.325532	-1485.930000	946.737305	-51.707741
29651.325532	-1485.930000	945.563477	44.051819
29651.325532	-1485.930000	944.388672	-32.612125
29651.325532	-1485.930000	943.213867	-187.418839
29651.325532	-1485.930000	942.039063	108.593872
29651.325532	-1485.930000	940.864258	-84.382324
29651.325532	-1485.930000	939.688477	131.925034
29651.325532	-1485.930000	938.513672	147.780411
29651.325532	-1485.930000	937.337891	68.746964
29651.325532	-1485.930000	936.161133	253.142319
29651.325532	-1485.930000	934.985352	187.306198
29651.325532	-1485.930000	933.808594	171.568298
29651.325532	-1485.930000	932.631836	296.873505
29651.325532	-1485.930000	931.454102	242.253922
29651.325532	-1485.930000	930.277344	262.821869
29651.325532	-1485.930000	929.099609	272.041626
29651.325532	-1485.930000	927.921875	378.990997
29651.325532	-1485.930000	926.743164	440.388519
29651.325532	-1485.930000	925.565430	383.603424
29651.325532	-1485.930000	924.386719	372.288361
29651.325532	-1485.930000	923.208008	170.127609
29651.325532	-1485.930000	922.028320	261.045685
29651.325532	-1485.930000	920.849609	385.985168
29651.325532	-1485.930000	919.669922	390.119110
29651.325532	-1485.930000	919.474609	368.507690
29651.325532	-1485.930000	918.309570	125.553123
29651.325532	-1485.930000	917.143555	177.740005
29651.325532	-1485.930000	915.977539	161.820984
29651.325532	-1485.930000	914.810547	68.763474
29651.325532	-1485.930000	913.644531	89.141953
29651.325532	-1485.930000	912.477539	32.400837
29651.325532	-1485.930000	911.310547	-115.021675
29651.325532	-1485.930000	910.143555	113.905830
29651.325532	-1485.930000	908.975586	84.362625
29651.325532	-1485.930000	907.807617	63.885559
29651.325532	-1485.930000	906.639648	66.061691
29651.325532	-1485.930000	905.471680	258.488831
29651.325532	-1485.930000	904.303711	95.292122
29651.325532	-1485.930000	903.134766	-4.449820
29651.325532	-1485.930000	901.965820	29.393623
29651.325532	-1485.930000	900.796875	99.426094
29651.325532	-1485.930000	899.626953	-115.679092
29651.325532	-1485.930000	898.457031	85.549507
29651.325532	-1485.930000	897.287109	31.104195
29651.325532	-1485.930000	896.117188	67.125710
29651.325532	-1485.930000	894.947266	39.820202
29651.325532	-1485.930000	893.776367	202.394119
29651.325532	-1485.930000	892.605469	102.738861
29651.325532	-1485.930000	891.434570	285.551788
29651.325532	-1485.930000	890.262695	283.045135
29651.325532	-1485.930000	889.091797	187.926453
29651.325532	-1485.930000	887.919922	153.810623
29651.325532	-1485.930000	886.748047	241.612473
29651.325532	-1485.930000	885.575195	119.456314
29651.325532	-1485.930000	884.403320	110.174759
29651.325532	-1485.930000	883.230469	107.660881
29651.325532	-1485.930000	882.057617	-115.928268
29651.325532	-1485.930000	880.883789	-19.173504
29651.325532	-1485.930000	879.710938	27.923820
29651.325532	-1485.930000	878.537109	-6.161254
29651.325532	-1485.930000	877.362305	65.698227
29651.325532	-1485.930000	876.188477	117.235321
29651.325532	-1485.930000	875.013672	29.058786
29651.325532	-1485.930000	873.839844	-68.102211
29651.325532	-1485.930000	872.664063	12.691289
29651.325532	-1485.930000	871.489258	-100.201820
29651.325532	-1485.930000	870.313477	-143.265625
29651.325532	-1485.930000	869.138672	-46.778736
29651.325532	-1485.930000	867.962891	0.158508
29651.325532	-1485.930000	866.786133	141.563644
29651.325532	-1485.930000	865.610352	24.224480
29651.325532	-1485.930000	864.433594	71.097267
29651.325532	-1485.930000	863.256836	7.769743
29651.325532	-1485.930000	862.079102	256.930420
29651.325532	-1485.930000	860.902344	54.229458
29651.325532	-1485.930000	859.724609	119.004860
29651.325532	-1485.930000	858.546875	1.772094
29651.325532	-1485.930000	857.368164	8.118070
29651.325532	-1485.930000	856.190430	104.275986
29651.325532	-1485.930000	855.011719	247.538849
29651.325532	-1485.930000	853.833008	83.205322
29651.325532	-1485.930000	852.654297	-20.474659
29651.325532	-1485.930000	851.474609	37.437290
29651.325532	-1485.930000	850.294922	-37.041382
29651.325532	-1485.930000	849.115234	117.275734
29651.325532	-1485.930000	847.935547	27.095568
29651.325532	-1485.930000	846.754883	19.899424
29651.325532	-1485.930000	845.575195	178.565125
29651.325532	-1485.930000	844.393555	68.236053
29651.325532	-1485.930000	843.212891	-53.263668
29651.325532	-1485.930000	842.032227	42.569721
29651.325532	-1485.930000	840.850586	1.736990
29651.325532	-1485.930000	839.668945	37.042721
29651.325532	-1485.930000	838.486328	32.029644
29651.325532	-1485.930000	837.304688	-28.951664
29651.325532	-1485.930000	836.122070	-60.823410
29651.325532	-1485.930000	834.939453	-65.845459
29651.325532	-1485.930000	833.756836	-131.272858
29651.325532	-1485.930000	832.573242	-40.130337
29651.325532	-1485.930000	831.389648	42.018551
29651.325532	-1485.930000	830.206055	-124.020721
29651.325532	-1485.930000	829.022461	2.789734
29651.325532	-1485.930000	827.838867	116.128426
29651.325532	-1485.930000	826.654297	21.635601
29651.325532	-1485.930000	825.469727	-63.895832
29651.325532	-1485.930000	824.284180	-115.903786
29651.325532	-1485.930000	823.099609	-45.103909
29651.325532	-1485.930000	821.914063	7.797101
29651.325532	-1485.930000	820.728516	123.154686
29651.325532	-1485.930000	819.542969	-82.867325
29651.325532	-1485.930000	818.356445	-74.647354
29651.325532	-1485.930000	817.169922	-124.437370
29651.325532	-1485.930000	815.983398	-67.180977
29651.325532	-1485.930000	814.796875	1.185050
29651.325532	-1485.930000	813.609375	51.676750
29651.325532	-1485.930000	812.422852	153.389191
29651.325532	-1485.930000	811.235352	188.201370
29651.325532	-1485.930000	810.046875	-13.149729
29651.325532	-1485.930000	808.859375	92.922256
29651.325532	-1485.930000	807.670898	116.545235
29651.325532	-1485.930000	806.482422	73.353073
29651.325532	-1485.930000	805.293945	63.549583
29651.325532	-1485.930000	804.104492	98.243439
29651.325532	-1485.930000	802.915039	144.029465
29651.325532	-1485.930000	801.725586	100.799950
29651.325532	-1485.930000	800.536133	21.986235
29651.325532	-1485.930000	799.345703	-5.669297
29651.325532	-1485.930000	798.155273	73.376472
29651.325532	-1485.930000	796.964844	163.482605
29651.325532	-1485.930000	795.774414	-184.234985
29651.325532	-1485.930000	794.583008	-83.040833
29651.325532	-1485.930000	793.392578	-4.123626
29651.325532	-1485.930000	792.200195	-36.293972
29651.325532	-1485.930000	791.008789	138.016891
29651.325532	-1485.930000	789.816406	10.333816
29651.325532	-1485.930000	788.625000	160.105957
29651.325532	-1485.930000	787.432617	32.428398
29651.325532	-1485.930000	786.239258	84.480453
29651.325532	-1485.930000	785.046875	138.705505
29651.325532	-1485.930000	783.853516	135.229782
29651.325532	-1485.930000	782.660156	3.139561
29651.325532	-1485.930000	781.465820	-184.332352
29651.325532	-1485.930000	780.272461	-17.162840
29651.325532	-1485.930000	779.078125	36.913330
29651.325532	-1485.930000	777.883789	-50.835369
29651.325532	-1485.930000	776.688477	-63.266544
29651.325532	-1485.930000	775.494141	61.569344
29651.325532	-1485.930000	774.298828	-59.411762
29651.325532	-1485.930000	773.103516	-14.361713
29651.325532	-1485.930000	771.907227	-172.947784
29651.325532	-1485.930000	770.711914	7.017043
29651.325532	-1485.930000	769.515625	-60.867870
29651.325532	-1485.930000	768.318359	99.044533
29651.325532	-1485.930000	767.122070	137.248032
29651.325532	-1485.930000	765.924805	25.083088
29651.325532	-1485.930000	764.727539	107.435089
29651.325532	-1485.930000	763.530273	119.011719
29651.325532	-1485.930000	762.333008	39.973759
29651.325532	-1485.930000	761.134766	84.635178
29651.325532	-1485.930000	759.936523	-173.299683
29651.325532	-1485.930000	758.738281	-38.149002
29651.325532	-1485.930000	757.540039	48.351021
29651.325532	-1485.930000	756.340820	128.165146
29651.325532	-1485.930000	755.141602	66.695572
29651.325532	-1485.930000	753.942383	137.583588
29651.325532	-1485.930000	752.742188	89.308990
29651.325532	-1485.930000	751.541992	3.534823
29651.325532	-1485.930000	750.341797	39.021507
29651.325532	-1485.930000	749.141602	85.480637
29651.325532	-1485.930000	747.941406	-31.192602
29651.325532	-1485.930000	746.740234	-64.123009
29651.325532	-1485.930000	745.539063	17.474663
29651.325532	-1485.930000	744.337891	215.729996
29651.325532	-1485.930000	743.135742	54.953655
29651.325532	-1485.930000	741.933594	19.692709
29651.325532	-1485.930000	740.731445	-70.613686
29651.325532	-1485.930000	739.529297	85.543945
29651.325532	-1485.930000	738.326172	83.193932
29651.325532	-1485.930000	737.124023	162.194733
29651.325532	-1485.930000	735.919922	164.155289
29651.325532	-1485.930000	734.716797	192.462189
29651.325532	-1485.930000	733.513672	253.693558
29651.325532	-1485.930000	732.309570	237.940125
29651.325532	-1485.930000	731.105469	270.496338
29651.325532	-1485.930000	729.900391	160.203796
29651.325532	-1485.930000	728.696289	126.792549
29651.325532	-1485.930000	727.491211	154.844498
29651.325532	-1485.930000	726.286133	246.515594
29651.325532	-1485.930000	725.080078	-24.073343
29651.325532	-1485.930000	723.874023	122.383087
29651.325532	-1485.930000	722.668945	170.000992
29651.325532	-1485.930000	721.461914	224.142151
29651.325532	-1485.930000	720.255859	30.385775
29651.325532	-1485.930000	719.048828	-20.799885
29651.325532	-1485.930000	717.841797	-67.620453
29651.325532	-1485.930000	716.634766	-2.679131
29651.325532	-1485.930000	715.427734	-1.355494
29651.325532	-1485.930000	714.219727	-32.937634
29651.325532	-1485.930000	713.011719	66.879250
29651.325532	-1485.930000	711.803711	-41.438206
29651.325532	-1485.930000	710.594727	-51.221619
29651.325532	-1485.930000	709.385742	107.515572
29651.325532	-1485.930000	708.176758	156.713669
29651.325532	-1485.930000	706.967773	144.579605
29651.325532	-1485.930000	705.758789	-60.110382
29651.325532	-1485.930000	704.548828	194.564911
29651.325532	-1485.930000	703.338867	-86.672401
29651.325532	-1485.930000	702.127930	-107.661430
29651.325532	-1485.930000	700.917969	124.874931
29651.325532	-1485.930000	699.707031	31.645720
29651.325532	-1485.930000	698.496094	-22.258118
29651.325532	-1485.930000	697.285156	-135.164734
29651.325532	-1485.930000	696.073242	29.304895
29651.325532	-1485.930000	694.861328	1.506994
29651.325532	-1485.930000	693.649414	-72.166832
29651.325532	-1485.930000	692.436523	-1.798570
29651.325532	-1485.930000	691.224609	-125.719345
29651.325532	-1485.930000	690.011719	14.358993
29651.325532	-1485.930000	688.798828	104.165947
29651.325532	-1485.930000	687.584961	-0.201839
29651.325532	-1485.930000	686.372070	80.761742
29651.325532	-1485.930000	685.158203	104.969612
29651.325532	-1485.930000	683.943359	153.098526
29651.325532	-1485.930000	682.729492	358.050354
29651.325532	-1485.930000	681.514648	290.557159
29651.325532	-1485.930000	680.299805	209.980667
29651.325532	-1485.930000	679.084961	105.441109
29651.325532	-1485.930000	677.869141	203.377747
29651.325532	-1485.930000	676.653320	159.746124
29651.325532	-1485.930000	675.437500	185.729065
29651.325532	-1485.930000	674.221680	329.150024
29651.325532	-1485.930000	673.004883	194.028244
29651.325532	-1485.930000	671.789063	226.385437
29651.325532	-1485.930000	670.571289	152.140152
29651.325532	-1485.930000	669.354492	167.017944
29651.325532	-1485.930000	668.136719	18.835245
29651.325532	-1485.930000	666.919922	85.804573
29651.325532	-1485.930000	665.701172	204.845093
29651.325532	-1485.930000	664.483398	106.585152
29651.325532	-1485.930000	663.264648	197.258972
29651.325532	-1485.930000	662.045898	-50.852093
29651.325532	-1485.930000	660.827148	122.225952
29651.325532	-1485.930000	659.608398	-4.307283
29651.325532	-1485.930000	658.388672	155.589706
29651.325532	-1485.930000	657.168945	174.372269
29651.325532	-1485.930000	655.949219	-43.301945
29651.325532	-1485.930000	654.728516	53.502098
29651.325532	-1485.930000	653.507813	74.349258
29651.325532	-1485.930000	652.287109	-32.733612
29651.325532	-1485.930000	651.066406	16.220783
29651.325532	-1485.930000	649.844727	-25.878958
29651.325532	-1485.930000	648.623047	27.314442
29651.325532	-1485.930000	647.401367	93.444107
29651.325532	-1485.930000	646.179688	111.876816
29651.325532	-1485.930000	644.957031	203.869766
29651.325532	-1485.930000	643.734375	90.179581
29651.325532	-1485.930000	642.511719	104.174072
29651.325532	-1485.930000	641.289063	20.776709
29651.325532	-1485.930000	640.065430	186.121628
29651.325532	-1485.930000	638.841797	70.241966
29651.325532	-1485.930000	637.618164	226.797607
29651.325532	-1485.930000	636.393555	203.845505
29651.325532	-1485.930000	635.168945	310.541016
29651.325532	-1485.930000	633.944336	175.170975
29651.325532	-1485.930000	632.719727	158.641434
29651.325532	-1485.930000	631.494141	105.375542
29651.325532	-1485.930000	630.269531	-27.786146
29651.325532	-1485.930000	629.042969	50.646919
29651.325532	-1485.930000	627.817383	-17.745831
29651.325532	-1485.930000	626.590820	-64.554443
29651.325532	-1485.930000	625.365234	80.649757
29651.325532	-1485.930000	624.137695	288.320068
29651.325532	-1485.930000	622.911133	196.124069
29651.325532	-1485.930000	621.683594	52.200172
29651.325532	-1485.930000	620.456055	216.572327
29651.325532	-1485.930000	619.228516	-125.608147
29651.325532	-1485.930000	618.000977	-13.015116
29651.325532	-1485.930000	616.772461	84.431808
29651.325532	-1485.930000	615.543945	155.976410
29651.325532	-1485.930000	614.314453	195.174683
29651.325532	-1485.930000	613.085938	77.185211
29651.325532	-1485.930000	611.856445	38.870941
29651.325532	-1485.930000	610.626953	47.905449
29651.325532	-1485.930000	609.397461	164.501694
29651.325532	-1485.930000	608.166992	33.665909
29651.325532	-1485.930000	606.936523	-13.248589
29651.325532	-1485.930000	605.706055	-68.750473
29651.325532	-1485.930000	604.474609	13.343260
29651.325532	-1485.930000	603.244141	-117.375000
29651.325532	-1485.930000	602.012695	-80.437782
29651.325532	-1485.930000	600.780273	-43.520721
29651.325532	-1485.930000	599.548828	36.337776
29651.325532	-1485.930000	598.316406	19.528049
29651.325532	-1485.930000	597.083984	107.926025
29651.325532	-1485.930000	595.851563	28.862957
29651.325532	-1485.930000	594.618164	44.261219
29651.325532	-1485.930000	593.384766	-88.387039
29651.325532	-1485.930000	592.151367	-122.298370
29651.325532	-1485.930000	590.917969	-51.099472
29651.325532	-1485.930000	589.683594	17.931873
29651.325532	-1485.930000	588.449219	-30.963127
29651.325532	-1485.930000	587.214844	33.768532
29651.325532	-1485.930000	585.979492	40.626480
29651.325532	-1485.930000	584.745117	-55.337879
29651.325532	-1485.930000	583.509766	54.376415
29651.325532	-1485.930000	582.273438	-155.019363
29651.325532	-1485.930000	581.038086	-15.323486
29651.325532	-1485.930000	579.801758	-143.238983
29651.325532	-1485.930000	578.565430	-138.393860
29651.325532	-1485.930000	577.329102	-9.431340
29651.325532	-1485.930000	576.091797	-177.848709
29651.325532	-1485.930000	574.854492	-10.390194
29651.325532	-1485.930000	573.617188	131.362488
29651.325532	-1485.930000	572.378906	-4.835929
29651.325532	-1485.930000	571.141602	-21.254681
29651.325532	-1485.930000	569.903320	-39.776188
29651.325532	-1485.930000	568.664063	-79.624664
29651.325532	-1485.930000	567.425781	-160.007019
29651.325532	-1485.930000	566.186523	-58.803562
29651.325532	-1485.930000	564.947266	-43.011654
29651.325532	-1485.930000	563.708008	113.694199
29651.325532	-1485.930000	562.467773	-19.877369
29651.325532	-1485.930000	561.227539	-31.732597
29651.325532	-1485.930000	559.987305	86.584839
29651.325532	-1485.930000	558.747070	55.597664
29651.325532	-1485.930000	557.505859	-75.556282
29651.325532	-1485.930000	556.264648	-53.113884
29651.325532	-1485.930000	555.023438	26.910439
29651.325532	-1485.930000	553.781250	87.767876
29651.325532	-1485.930000	552.539063	-45.230747
29651.325532	-1485.930000	551.296875	5.060261
29651.325532	-1485.930000	550.054688	42.602001
29651.325532	-1485.930000	548.811523	205.797119
29651.325532	-1485.930000	547.569336	96.501923
29651.325532	-1485.930000	546.325195	31.998352
29651.325532	-1485.930000	545.082031	212.271255
29651.325532	-1485.930000	543.837891	-26.561609
29651.325532	-1485.930000	542.593750	49.540577
29651.325532	-1485.930000	541.349609	83.139343
29651.325532	-1485.930000	540.105469	12.609664
29651.325532	-1485.930000	538.860352	-164.105621
29651.325532	-1485.930000	537.615234	-66.554855
29651.325532	-1485.930000	536.369141	90.503647
29651.325532	-1485.930000	535.124023	-9.463656
29651.325532	-1485.930000	533.877930	26.589239
29651.325532	-1485.930000	532.631836	26.596066
29651.325532	-1485.930000	531.384766	139.173584
29651.325532	-1485.930000	530.138672	173.242737
29651.325532	-1485.930000	528.891602	-23.920700
29651.325532	-1485.930000	527.643555	-8.792575
29651.325532	-1485.930000	526.396484	173.950958
29651.325532	-1485.930000	525.148438	55.573112
29651.325532	-1485.930000	523.900391	109.038200
29651.325532	-1485.930000	522.652344	255.809479
29651.325532	-1485.930000	521.403320	135.576019
29651.325532	-1485.930000	520.154297	-31.146431
29651.325532	-1485.930000	518.905273	-15.561789
29651.325532	-1485.930000	517.656250	80.560570
29651.325532	-1485.930000	516.406250	108.958511
29651.325532	-1485.930000	515.156250	143.763519
29651.325532	-1485.930000	513.906250	223.068298
29651.325532	-1485.930000	512.655273	48.496426
29651.325532	-1485.930000	511.404297	229.470993
29651.325532	-1485.930000	510.153320	124.906776
29651.325532	-1485.930000	508.902344	24.686224
29651.325532	-1485.930000	507.650391	155.017776
29651.325532	-1485.930000	506.398438	234.633560
29651.325532	-1485.930000	505.146484	388.245880
29651.325532	-1485.930000	503.893555	292.553253
29651.325532	-1485.930000	502.641602	279.347900
29651.325532	-1485.930000	501.388672	462.616364
29651.325532	-1485.930000	500.134766	284.822632
29651.325532	-1485.930000	498.881836	311.930176
29651.325532	-1485.930000	497.627930	317.984131
29651.325532	-1485.930000	496.374023	421.157837
29651.325532	-1485.930000	495.119141	427.308685
29651.325532	-1485.930000	493.865234	262.673676
29651.325532	-1485.930000	492.610352	570.510803
29651.325532	-1485.930000	491.355469	587.336548
29651.325532	-1485.930000	490.099609	722.245178
29651.325532	-1485.930000	488.843750	673.809570
29651.325532	-1485.930000	487.587891	741.322449
29651.325532	-1485.930000	486.332031	568.721985
29651.325532	-1485.930000	485.075195	581.567078
29651.325532	-1485.930000	483.818359	691.300842
29651.325532	-1485.930000	482.561523	739.981140
29651.325532	-1485.930000	481.304688	710.807312
29651.325532	-1485.930000	480.046875	650.119995
29651.325532	-1485.930000	478.789063	783.028503
29651.325532	-1485.930000	477.531250	804.435913
29651.325532	-1485.930000	476.272461	634.506531
29651.325532	-1485.930000	475.013672	719.052368
29651.325532	-1485.930000	473.754883	559.762085
29651.325532	-1485.930000	472.496094	862.864990
29651.325532	-1485.930000	471.236328	741.452576
29651.325532	-1485.930000	469.976563	687.312683
29651.325532	-1485.930000	468.716797	801.201538
29651.325532	-1485.930000	467.456055	988.523438
29651.325532	-1485.930000	466.196289	928.053894
29651.325532	-1485.930000	464.935547	1087.959595
29651.325532	-1485.930000	463.673828	958.220459
29651.325532	-1485.930000	462.413086	826.412292
29651.325532	-1485.930000	461.151367	828.860046
29651.325532	-1485.930000	459.889648	814.494446
29651.325532	-1485.930000	458.626953	1018.122498
29651.325532	-1485.930000	457.364258	976.381470
29651.325532	-1485.930000	456.101563	1179.778442
29651.325532	-1485.930000	454.838867	1207.037720
29651.325532	-1485.930000	453.575195	1135.767212
29651.325532	-1485.930000	452.312500	1018.376221
29651.325532	-1485.930000	451.047852	1242.228516
29651.325532	-1485.930000	449.784180	1128.871460
29651.325532	-1485.930000	448.519531	1329.384399
29651.325532	-1485.930000	447.254883	1284.893188
29651.325532	-1485.930000	445.990234	1505.972168
29651.325532	-1485.930000	444.725586	1226.969482
29651.325532	-1485.930000	443.459961	1180.049561
29651.325532	-1485.930000	442.194336	1358.780884
29651.325532	-1485.930000	440.927734	1250.933105
29651.325532	-1485.930000	439.662109	1326.851318
29651.325532	-1485.930000	438.395508	1354.505249
29651.325532	-1485.930000	437.127930	1354.802490
29651.325532	-1485.930000	435.861328	1396.661987
29651.325532	-1485.930000	434.593750	1350.599609
29651.325532	-1485.930000	433.326172	1141.515259
29651.325532	-1485.930000	432.058594	1282.885864
29651.325532	-1485.930000	430.790039	1271.630737
29651.325532	-1485.930000	429.521484	1543.813110
29651.325532	-1485.930000	428.252930	1379.714478
29651.325532	-1485.930000	426.984375	1442.670654
29651.325532	-1485.930000	425.714844	1484.445190
29651.325532	-1485.930000	424.445313	1567.562500
29651.325532	-1485.930000	423.174805	1644.052368
29651.325532	-1485.930000	421.905273	1445.160034
29651.325532	-1485.930000	420.634766	1527.167969
29651.325532	-1485.930000	419.364258	1571.269897
29651.325532	-1485.930000	418.092773	1571.225098
29651.325532	-1485.930000	416.822266	1564.517578
29651.325532	-1485.930000	415.550781	1728.017456
29651.325532	-1485.930000	414.278320	1556.006104
29651.325532	-1485.930000	413.006836	1531.287964
29651.325532	-1485.930000	411.734375	1576.788574
29651.325532	-1485.930000	410.461914	1781.856323
29651.325532	-1485.930000	409.188477	1589.240234
29651.325532	-1485.930000	407.916016	1535.404907
29651.325532	-1485.930000	406.642578	1543.344238
29651.325532	-1485.930000	405.368164	1716.866089
29651.325532	-1485.930000	404.094727	1615.531860
29651.325532	-1485.930000	402.820313	1505.280029
29651.325532	-1485.930000	401.545898	1604.088867
29651.325532	-1485.930000	400.270508	1700.073364
29651.325532	-1485.930000	398.996094	1423.843506
29651.325532	-1485.930000	397.720703	1512.132080
29651.325532	-1485.930000	396.444336	1450.247803
29651.325532	-1485.930000	395.168945	1541.065552
29651.325532	-1485.930000	393.892578	1736.745605
29651.325532	-1485.930000	392.616211	1442.269531
29651.325532	-1485.930000	391.339844	1571.897095
29651.325532	-1485.930000	390.062500	1657.025513
29651.325532	-1485.930000	388.785156	1556.799194
29651.325532	-1485.930000	387.507813	1637.899780
29651.325532	-1485.930000	386.229492	1548.144043
29651.325532	-1485.930000	384.951172	1589.879517
29651.325532	-1485.930000	383.672852	1491.846191
29651.325532	-1485.930000	382.394531	1562.432983
29651.325532	-1485.930000	381.115234	1669.066284
29651.325532	-1485.930000	379.835938	1476.617554
29651.325532	-1485.930000	378.556641	1568.419312
29651.325532	-1485.930000	377.277344	1681.671021
29651.325532	-1485.930000	375.997070	1584.784302
29651.325532	-1485.930000	374.716797	1540.341797
29651.325532	-1485.930000	373.435547	1407.743164
29651.325532	-1485.930000	372.155273	1529.968872
29651.325532	-1485.930000	370.874023	1487.504272
29651.325532	-1485.930000	369.591797	1683.056641
29651.325532	-1485.930000	368.310547	1365.045288
29651.325532	-1485.930000	367.028320	1404.685181
29651.325532	-1485.930000	365.746094	1446.807251
29651.325532	-1485.930000	364.463867	1518.182983
29651.325532	-1485.930000	363.180664	1373.261475
29651.325532	-1485.930000	361.897461	1579.260376
29651.325532	-1485.930000	360.614258	1391.629028
29651.325532	-1485.930000	359.330078	1119.721436
29651.325532	-1485.930000	358.045898	1247.866455
29651.325532	-1485.930000	356.761719	1240.059326
29651.325532	-1485.930000	355.477539	1228.170898
29651.325532	-1485.930000	354.192383	1226.518921
29651.325532	-1485.930000	352.907227	1097.130127
29651.325532	-1485.930000	351.622070	1109.704346
29651.325532	-1485.930000	350.336914	1101.500000
29651.325532	-1485.930000	349.050781	1008.631958
29651.325532	-1485.930000	347.764648	1205.555908
29651.325532	-1485.930000	346.477539	1050.257690
29651.325532	-1485.930000	345.191406	1009.797668
29651.325532	-1485.930000	343.904297	1190.828003
29651.325532	-1485.930000	342.616211	964.176453
29651.325532	-1485.930000	341.329102	985.699097
29651.325532	-1485.930000	340.041016	946.862793
29651.325532	-1485.930000	338.752930	755.268982
29651.325532	-1485.930000	337.463867	833.920715
29651.325532	-1485.930000	336.175781	581.130310
29651.325532	-1485.930000	334.886719	688.665466
29651.325532	-1485.930000	333.596680	593.888489
29651.325532	-1485.930000	332.307617	465.254974
29651.325532	-1485.930000	331.017578	382.559448
29651.325532	-1485.930000	329.727539	300.649506
29651.325532	-1485.930000	328.436523	418.253723
29651.325532	-1485.930000	327.146484	397.076111
29651.325532	-1485.930000	325.855469	343.526825
29651.325532	-1485.930000	324.563477	435.808472
29651.325532	-1485.930000	323.272461	171.998047
29651.325532	-1485.930000	321.980469	283.271667
29651.325532	-1485.930000	320.688477	380.307800
29651.325532	-1485.930000	319.395508	254.086716
29651.325532	-1485.930000	318.103516	279.458160
29651.325532	-1485.930000	316.810547	-88.347900
29651.325532	-1485.930000	315.516602	81.757057
29651.325532	-1485.930000	314.223633	-47.084969
29651.325532	-1485.930000	312.929688	64.897957
29651.325532	-1485.930000	311.635742	100.639099
29651.325532	-1485.930000	310.340820	-17.726015
29651.325532	-1485.930000	309.045898	-112.269836
29651.325532	-1485.930000	307.750977	-35.994686
29651.325532	-1485.930000	306.456055	35.191021
29651.325532	-1485.930000	305.160156	-72.574081
29651.325532	-1485.930000	303.865234	33.063564
29651.325532	-1485.930000	302.568359	-9.950960
29651.325532	-1485.930000	301.272461	-180.778580
29651.325532	-1485.930000	299.975586	154.877838
29651.325532	-1485.930000	298.678711	231.640396
