#X		#Y		#Wave		#Intensity
19491.967340	16966.419000	2000.043945	82.890526
19491.967340	16966.419000	1999.080078	210.229385
19491.967340	16966.419000	1998.116211	75.455521
19491.967340	16966.419000	1997.151367	49.582703
19491.967340	16966.419000	1996.186523	-65.670158
19491.967340	16966.419000	1995.222656	9.666565
19491.967340	16966.419000	1994.256836	-162.864136
19491.967340	16966.419000	1993.291992	26.021048
19491.967340	16966.419000	1992.327148	16.594791
19491.967340	16966.419000	1991.361328	-116.759689
19491.967340	16966.419000	1990.395508	190.311920
19491.967340	16966.419000	1989.429688	252.132553
19491.967340	16966.419000	1988.463867	-67.223007
19491.967340	16966.419000	1987.497070	-116.985809
19491.967340	16966.419000	1986.531250	1.284022
19491.967340	16966.419000	1985.564453	383.947815
19491.967340	16966.419000	1984.597656	168.061584
19491.967340	16966.419000	1983.630859	-18.220219
19491.967340	16966.419000	1982.664063	272.389618
19491.967340	16966.419000	1981.696289	38.961441
19491.967340	16966.419000	1980.728516	-159.921112
19491.967340	16966.419000	1979.761719	120.302559
19491.967340	16966.419000	1978.792969	269.440277
19491.967340	16966.419000	1977.825195	243.103622
19491.967340	16966.419000	1976.857422	295.659271
19491.967340	16966.419000	1975.888672	59.332676
19491.967340	16966.419000	1974.919922	8.061296
19491.967340	16966.419000	1973.951172	52.928539
19491.967340	16966.419000	1972.982422	-72.519348
19491.967340	16966.419000	1972.013672	120.127068
19491.967340	16966.419000	1971.043945	-76.971992
19491.967340	16966.419000	1970.075195	-128.637466
19491.967340	16966.419000	1969.105469	137.601990
19491.967340	16966.419000	1968.135742	-15.284698
19491.967340	16966.419000	1967.165039	122.557388
19491.967340	16966.419000	1966.195313	-25.498892
19491.967340	16966.419000	1965.224609	149.087219
19491.967340	16966.419000	1964.253906	74.819862
19491.967340	16966.419000	1963.283203	-4.411596
19491.967340	16966.419000	1962.312500	359.416901
19491.967340	16966.419000	1961.341797	97.903526
19491.967340	16966.419000	1960.370117	134.181625
19491.967340	16966.419000	1959.399414	167.921478
19491.967340	16966.419000	1958.427734	4.812881
19491.967340	16966.419000	1957.455078	45.844261
19491.967340	16966.419000	1956.483398	22.869680
19491.967340	16966.419000	1955.511719	272.742767
19491.967340	16966.419000	1954.539063	136.574692
19491.967340	16966.419000	1953.566406	174.898972
19491.967340	16966.419000	1952.593750	252.475464
19491.967340	16966.419000	1951.621094	-90.098198
19491.967340	16966.419000	1950.647461	-54.330349
19491.967340	16966.419000	1949.674805	-124.214287
19491.967340	16966.419000	1948.701172	-181.827347
19491.967340	16966.419000	1947.727539	-1.339158
19491.967340	16966.419000	1946.753906	-5.025345
19491.967340	16966.419000	1945.780273	5.980988
19491.967340	16966.419000	1944.805664	-230.836807
19491.967340	16966.419000	1943.831055	54.886745
19491.967340	16966.419000	1942.856445	396.885590
19491.967340	16966.419000	1941.881836	111.006943
19491.967340	16966.419000	1940.907227	215.015869
19491.967340	16966.419000	1939.932617	81.200905
19491.967340	16966.419000	1938.957031	172.884811
19491.967340	16966.419000	1937.981445	26.841190
19491.967340	16966.419000	1937.005859	86.614265
19491.967340	16966.419000	1936.030273	192.886902
19491.967340	16966.419000	1935.054688	103.193512
19491.967340	16966.419000	1934.078125	-23.202034
19491.967340	16966.419000	1933.101563	-10.032100
19491.967340	16966.419000	1932.125000	-50.725304
19491.967340	16966.419000	1931.148438	-128.118500
19491.967340	16966.419000	1930.171875	134.578354
19491.967340	16966.419000	1929.194336	35.148460
19491.967340	16966.419000	1928.217773	175.414993
19491.967340	16966.419000	1927.240234	-114.728607
19491.967340	16966.419000	1926.262695	8.391383
19491.967340	16966.419000	1925.284180	248.790390
19491.967340	16966.419000	1924.306641	-9.454578
19491.967340	16966.419000	1923.328125	-23.266659
19491.967340	16966.419000	1922.350586	72.851044
19491.967340	16966.419000	1921.372070	256.863953
19491.967340	16966.419000	1920.392578	-6.078824
19491.967340	16966.419000	1919.414063	-107.789070
19491.967340	16966.419000	1918.434570	-55.666698
19491.967340	16966.419000	1917.456055	152.630783
19491.967340	16966.419000	1916.476563	33.867451
19491.967340	16966.419000	1915.497070	390.900330
19491.967340	16966.419000	1914.516602	-147.413757
19491.967340	16966.419000	1913.537109	158.304733
19491.967340	16966.419000	1912.556641	17.692770
19491.967340	16966.419000	1911.576172	-10.720843
19491.967340	16966.419000	1910.595703	97.376762
19491.967340	16966.419000	1909.615234	159.132416
19491.967340	16966.419000	1908.633789	184.324692
19491.967340	16966.419000	1907.653320	133.987228
19491.967340	16966.419000	1906.671875	-142.838821
19491.967340	16966.419000	1905.690430	-12.880677
19491.967340	16966.419000	1904.708984	216.856018
19491.967340	16966.419000	1903.727539	-35.476181
19491.967340	16966.419000	1902.745117	-61.358589
19491.967340	16966.419000	1901.762695	-23.959940
19491.967340	16966.419000	1900.780273	-20.631659
19491.967340	16966.419000	1899.797852	45.944729
19491.967340	16966.419000	1898.815430	246.261505
19491.967340	16966.419000	1897.832031	-59.250614
19491.967340	16966.419000	1896.849609	-46.173550
19491.967340	16966.419000	1895.866211	-52.538555
19491.967340	16966.419000	1894.882813	-12.721571
19491.967340	16966.419000	1893.898438	34.379940
19491.967340	16966.419000	1892.915039	45.023788
19491.967340	16966.419000	1891.930664	-14.762727
19491.967340	16966.419000	1890.947266	-171.661301
19491.967340	16966.419000	1889.962891	-34.712997
19491.967340	16966.419000	1888.977539	-7.042900
19491.967340	16966.419000	1887.993164	-355.569092
19491.967340	16966.419000	1887.007813	-109.449883
19491.967340	16966.419000	1886.023438	10.418095
19491.967340	16966.419000	1885.038086	137.528885
19491.967340	16966.419000	1884.051758	286.427246
19491.967340	16966.419000	1883.066406	-25.431976
19491.967340	16966.419000	1882.081055	-22.012798
19491.967340	16966.419000	1881.094727	158.351608
19491.967340	16966.419000	1880.108398	26.038933
19491.967340	16966.419000	1879.122070	-113.492073
19491.967340	16966.419000	1878.135742	18.348198
19491.967340	16966.419000	1877.148438	-150.181656
19491.967340	16966.419000	1876.162109	-3.849586
19491.967340	16966.419000	1875.174805	-12.515120
19491.967340	16966.419000	1874.187500	385.494263
19491.967340	16966.419000	1873.199219	-5.625402
19491.967340	16966.419000	1872.211914	-123.169434
19491.967340	16966.419000	1871.223633	15.779939
19491.967340	16966.419000	1870.236328	60.339466
19491.967340	16966.419000	1869.248047	-216.758652
19491.967340	16966.419000	1868.258789	-160.073334
19491.967340	16966.419000	1867.270508	-79.239807
19491.967340	16966.419000	1866.282227	-189.382401
19491.967340	16966.419000	1865.292969	394.075745
19491.967340	16966.419000	1864.303711	-192.085556
19491.967340	16966.419000	1863.314453	11.891162
19491.967340	16966.419000	1862.324219	174.735046
19491.967340	16966.419000	1861.334961	180.551086
19491.967340	16966.419000	1860.344727	-6.776265
19491.967340	16966.419000	1859.354492	119.763290
19491.967340	16966.419000	1858.364258	-31.289633
19491.967340	16966.419000	1857.374023	100.023529
19491.967340	16966.419000	1856.383789	-87.164818
19491.967340	16966.419000	1855.392578	307.016968
19491.967340	16966.419000	1854.401367	-56.190315
19491.967340	16966.419000	1853.410156	21.966776
19491.967340	16966.419000	1852.418945	10.894070
19491.967340	16966.419000	1851.426758	64.900681
19491.967340	16966.419000	1850.435547	121.283073
19491.967340	16966.419000	1849.443359	158.366928
19491.967340	16966.419000	1848.451172	289.375458
19491.967340	16966.419000	1847.458984	124.089432
19491.967340	16966.419000	1846.466797	11.832657
19491.967340	16966.419000	1845.473633	-141.314362
19491.967340	16966.419000	1844.480469	88.307159
19491.967340	16966.419000	1843.487305	-26.311049
19491.967340	16966.419000	1842.494141	188.742661
19491.967340	16966.419000	1841.500977	129.456100
19491.967340	16966.419000	1840.506836	53.349201
19491.967340	16966.419000	1839.513672	-118.939583
19491.967340	16966.419000	1838.519531	26.200325
19491.967340	16966.419000	1837.525391	248.197311
19491.967340	16966.419000	1836.530273	198.514603
19491.967340	16966.419000	1835.536133	293.009521
19491.967340	16966.419000	1834.541016	-81.035622
19491.967340	16966.419000	1833.545898	361.752960
19491.967340	16966.419000	1832.550781	129.501740
19491.967340	16966.419000	1831.555664	159.048141
19491.967340	16966.419000	1830.560547	32.520638
19491.967340	16966.419000	1829.564453	306.872559
19491.967340	16966.419000	1828.568359	221.131989
19491.967340	16966.419000	1827.572266	188.191116
19491.967340	16966.419000	1826.576172	457.506470
19491.967340	16966.419000	1825.580078	134.282715
19491.967340	16966.419000	1824.583008	-20.974207
19491.967340	16966.419000	1823.585938	173.849899
19491.967340	16966.419000	1822.588867	143.252640
19491.967340	16966.419000	1821.591797	28.762846
19491.967340	16966.419000	1820.594727	115.575401
19491.967340	16966.419000	1819.596680	183.172760
19491.967340	16966.419000	1818.599609	118.975403
19491.967340	16966.419000	1817.601563	81.128342
19491.967340	16966.419000	1816.603516	7.355281
19491.967340	16966.419000	1815.604492	335.773376
19491.967340	16966.419000	1814.606445	384.000549
19491.967340	16966.419000	1813.607422	46.910175
19491.967340	16966.419000	1812.608398	-237.439957
19491.967340	16966.419000	1811.609375	59.578667
19491.967340	16966.419000	1810.610352	155.559372
19491.967340	16966.419000	1809.610352	359.085968
19491.967340	16966.419000	1808.611328	48.489635
19491.967340	16966.419000	1807.611328	239.953979
19491.967340	16966.419000	1806.611328	-58.605602
19491.967340	16966.419000	1805.610352	-75.122955
19491.967340	16966.419000	1804.610352	484.073151
19491.967340	16966.419000	1803.609375	350.363403
19491.967340	16966.419000	1802.608398	171.303955
19491.967340	16966.419000	1801.607422	197.615143
19491.967340	16966.419000	1800.606445	331.310303
19491.967340	16966.419000	1799.605469	154.652740
19491.967340	16966.419000	1798.603516	-81.623604
19491.967340	16966.419000	1797.601563	90.133301
19491.967340	16966.419000	1796.599609	154.452423
19491.967340	16966.419000	1795.597656	168.632248
19491.967340	16966.419000	1794.595703	-62.823643
19491.967340	16966.419000	1793.592773	189.732651
19491.967340	16966.419000	1792.589844	368.267761
19491.967340	16966.419000	1791.587891	155.873520
19491.967340	16966.419000	1790.583984	191.326035
19491.967340	16966.419000	1789.581055	105.239212
19491.967340	16966.419000	1788.577148	250.180420
19491.967340	16966.419000	1787.574219	245.009521
19491.967340	16966.419000	1786.570313	330.280090
19491.967340	16966.419000	1785.566406	53.666115
19491.967340	16966.419000	1784.561523	65.094498
19491.967340	16966.419000	1783.557617	36.030891
19491.967340	16966.419000	1782.552734	240.091110
19491.967340	16966.419000	1781.547852	84.871185
19491.967340	16966.419000	1780.542969	-46.545162
19491.967340	16966.419000	1779.538086	55.066467
19491.967340	16966.419000	1778.532227	52.005882
19491.967340	16966.419000	1777.527344	193.889572
19491.967340	16966.419000	1776.521484	335.686493
19491.967340	16966.419000	1775.515625	225.549561
19491.967340	16966.419000	1774.508789	155.799942
19491.967340	16966.419000	1773.502930	-56.461182
19491.967340	16966.419000	1772.496094	305.957550
19491.967340	16966.419000	1771.489258	-51.142365
19491.967340	16966.419000	1770.482422	213.742844
19491.967340	16966.419000	1769.475586	234.050491
19491.967340	16966.419000	1768.467773	266.179749
19491.967340	16966.419000	1767.460938	523.620911
19491.967340	16966.419000	1766.453125	477.334473
19491.967340	16966.419000	1765.445313	274.514832
19491.967340	16966.419000	1764.437500	40.911831
19491.967340	16966.419000	1763.428711	51.520164
19491.967340	16966.419000	1762.420898	137.920441
19491.967340	16966.419000	1761.412109	266.902863
19491.967340	16966.419000	1760.403320	211.005783
19491.967340	16966.419000	1759.393555	176.411240
19491.967340	16966.419000	1758.384766	217.569351
19491.967340	16966.419000	1757.375000	17.160641
19491.967340	16966.419000	1756.366211	-5.663435
19491.967340	16966.419000	1755.356445	28.285357
19491.967340	16966.419000	1754.345703	-93.999001
19491.967340	16966.419000	1753.335938	-225.743713
19491.967340	16966.419000	1752.325195	115.625938
19491.967340	16966.419000	1751.315430	199.029419
19491.967340	16966.419000	1750.304688	244.531555
19491.967340	16966.419000	1749.292969	226.143951
19491.967340	16966.419000	1748.282227	-132.653152
19491.967340	16966.419000	1747.270508	-136.865433
19491.967340	16966.419000	1746.259766	-162.381622
19491.967340	16966.419000	1745.248047	-69.811066
19491.967340	16966.419000	1744.235352	317.924316
19491.967340	16966.419000	1743.223633	-116.315956
19491.967340	16966.419000	1742.211914	-151.422455
19491.967340	16966.419000	1741.199219	68.383942
19491.967340	16966.419000	1740.186523	-30.544981
19491.967340	16966.419000	1739.173828	49.853344
19491.967340	16966.419000	1738.160156	-77.425224
19491.967340	16966.419000	1737.147461	68.916901
19491.967340	16966.419000	1736.133789	94.890839
19491.967340	16966.419000	1735.120117	139.678680
19491.967340	16966.419000	1734.106445	-4.184295
19491.967340	16966.419000	1733.091797	-4.257085
19491.967340	16966.419000	1732.078125	224.209488
19491.967340	16966.419000	1731.063477	54.376610
19491.967340	16966.419000	1730.048828	-18.848810
19491.967340	16966.419000	1729.034180	-87.378723
19491.967340	16966.419000	1728.019531	-16.992260
19491.967340	16966.419000	1727.003906	171.040482
19491.967340	16966.419000	1725.988281	121.228149
19491.967340	16966.419000	1724.972656	137.289688
19491.967340	16966.419000	1723.957031	-131.393845
19491.967340	16966.419000	1722.941406	98.705086
19491.967340	16966.419000	1721.924805	-2.953298
19491.967340	16966.419000	1720.909180	-109.316185
19491.967340	16966.419000	1719.892578	-178.057114
19491.967340	16966.419000	1718.875977	-61.108509
19491.967340	16966.419000	1717.858398	-82.902855
19491.967340	16966.419000	1716.841797	-128.226868
19491.967340	16966.419000	1715.824219	-37.309036
19491.967340	16966.419000	1714.806641	-42.765205
19491.967340	16966.419000	1713.789063	-386.427155
19491.967340	16966.419000	1712.770508	-93.698181
19491.967340	16966.419000	1711.752930	198.881454
19491.967340	16966.419000	1710.734375	59.456024
19491.967340	16966.419000	1709.715820	-108.111618
19491.967340	16966.419000	1708.697266	66.887817
19491.967340	16966.419000	1707.678711	230.056198
19491.967340	16966.419000	1706.659180	-141.590027
19491.967340	16966.419000	1705.640625	-238.785980
19491.967340	16966.419000	1704.621094	-40.590870
19491.967340	16966.419000	1703.600586	52.017025
19491.967340	16966.419000	1702.581055	78.941460
19491.967340	16966.419000	1701.561523	14.443002
19491.967340	16966.419000	1700.541016	-80.516731
19491.967340	16966.419000	1699.520508	260.159882
19491.967340	16966.419000	1698.500000	127.656822
19491.967340	16966.419000	1697.478516	-70.378845
19491.967340	16966.419000	1696.458008	-76.429657
19491.967340	16966.419000	1695.436523	170.243500
19491.967340	16966.419000	1694.415039	133.668106
19491.967340	16966.419000	1693.393555	15.198089
19491.967340	16966.419000	1692.372070	51.113140
19491.967340	16966.419000	1691.349609	-125.818687
19491.967340	16966.419000	1690.327148	185.940018
19491.967340	16966.419000	1689.304688	-23.735348
19491.967340	16966.419000	1688.282227	184.991592
19491.967340	16966.419000	1687.259766	122.552902
19491.967340	16966.419000	1686.236328	27.402082
19491.967340	16966.419000	1685.213867	93.432243
19491.967340	16966.419000	1684.190430	264.499176
19491.967340	16966.419000	1683.166016	318.728210
19491.967340	16966.419000	1682.142578	298.208008
19491.967340	16966.419000	1681.119141	352.358765
19491.967340	16966.419000	1680.094727	-8.911002
19491.967340	16966.419000	1679.070313	-43.432709
19491.967340	16966.419000	1678.045898	250.940598
19491.967340	16966.419000	1677.020508	234.994308
19491.967340	16966.419000	1675.996094	379.920807
19491.967340	16966.419000	1674.970703	114.456360
19491.967340	16966.419000	1673.945313	-53.031071
19491.967340	16966.419000	1672.919922	560.210938
19491.967340	16966.419000	1671.893555	189.952133
19491.967340	16966.419000	1670.868164	364.920227
19491.967340	16966.419000	1669.841797	362.790771
19491.967340	16966.419000	1668.815430	290.783417
19491.967340	16966.419000	1667.789063	290.959198
19491.967340	16966.419000	1666.761719	591.388550
19491.967340	16966.419000	1665.735352	335.467438
19491.967340	16966.419000	1664.708008	428.650482
19491.967340	16966.419000	1663.680664	165.844955
19491.967340	16966.419000	1662.653320	265.967438
19491.967340	16966.419000	1661.625000	307.896820
19491.967340	16966.419000	1660.597656	266.093689
19491.967340	16966.419000	1659.569336	526.485291
19491.967340	16966.419000	1658.541016	273.131256
19491.967340	16966.419000	1657.512695	87.246994
19491.967340	16966.419000	1656.483398	519.396973
19491.967340	16966.419000	1655.455078	154.655151
19491.967340	16966.419000	1654.425781	417.071716
19491.967340	16966.419000	1653.396484	391.460297
19491.967340	16966.419000	1652.366211	470.309174
19491.967340	16966.419000	1651.336914	358.799835
19491.967340	16966.419000	1650.306641	604.681580
19491.967340	16966.419000	1649.276367	363.244690
19491.967340	16966.419000	1648.246094	316.737793
19491.967340	16966.419000	1647.215820	360.690796
19491.967340	16966.419000	1646.185547	638.809387
19491.967340	16966.419000	1645.154297	615.435242
19491.967340	16966.419000	1644.123047	659.280579
19491.967340	16966.419000	1643.091797	677.611572
19491.967340	16966.419000	1642.060547	410.946503
19491.967340	16966.419000	1641.028320	538.181702
19491.967340	16966.419000	1639.997070	771.903137
19491.967340	16966.419000	1638.964844	729.971375
19491.967340	16966.419000	1637.931641	986.707275
19491.967340	16966.419000	1636.899414	660.038757
19491.967340	16966.419000	1635.867188	701.457764
19491.967340	16966.419000	1634.833984	620.229980
19491.967340	16966.419000	1633.800781	400.231659
19491.967340	16966.419000	1632.767578	672.963379
19491.967340	16966.419000	1631.734375	776.783203
19491.967340	16966.419000	1630.700195	607.745850
19491.967340	16966.419000	1629.666016	674.555603
19491.967340	16966.419000	1628.631836	801.428040
19491.967340	16966.419000	1627.597656	667.150818
19491.967340	16966.419000	1626.563477	819.396484
19491.967340	16966.419000	1625.528320	802.971619
19491.967340	16966.419000	1624.493164	855.838501
19491.967340	16966.419000	1623.458008	938.706726
19491.967340	16966.419000	1622.422852	629.117920
19491.967340	16966.419000	1621.387695	792.787537
19491.967340	16966.419000	1620.351563	931.018372
19491.967340	16966.419000	1619.315430	963.077271
19491.967340	16966.419000	1618.279297	748.326233
19491.967340	16966.419000	1617.243164	923.408447
19491.967340	16966.419000	1616.207031	856.332336
19491.967340	16966.419000	1615.169922	1261.871460
19491.967340	16966.419000	1614.132813	945.856995
19491.967340	16966.419000	1613.095703	881.153015
19491.967340	16966.419000	1612.058594	1039.967041
19491.967340	16966.419000	1611.020508	638.988708
19491.967340	16966.419000	1609.983398	1163.995117
19491.967340	16966.419000	1608.945313	1154.614746
19491.967340	16966.419000	1607.907227	1043.958008
19491.967340	16966.419000	1606.868164	956.376831
19491.967340	16966.419000	1605.830078	988.509399
19491.967340	16966.419000	1604.791016	967.728516
19491.967340	16966.419000	1603.751953	1025.185547
19491.967340	16966.419000	1602.712891	951.545349
19491.967340	16966.419000	1601.673828	1190.673706
19491.967340	16966.419000	1600.633789	898.662598
19491.967340	16966.419000	1599.594727	900.999817
19491.967340	16966.419000	1598.554688	884.970459
19491.967340	16966.419000	1597.513672	763.278259
19491.967340	16966.419000	1596.473633	993.125671
19491.967340	16966.419000	1595.433594	763.555908
19491.967340	16966.419000	1594.392578	1156.395508
19491.967340	16966.419000	1593.351563	1046.317383
19491.967340	16966.419000	1592.310547	1067.142334
19491.967340	16966.419000	1591.268555	998.480286
19491.967340	16966.419000	1590.227539	1014.769592
19491.967340	16966.419000	1589.185547	1005.842590
19491.967340	16966.419000	1588.143555	1203.371948
19491.967340	16966.419000	1587.100586	1008.721619
19491.967340	16966.419000	1586.058594	1371.302368
19491.967340	16966.419000	1585.015625	1314.286499
19491.967340	16966.419000	1583.972656	1126.690430
19491.967340	16966.419000	1582.929688	1234.784302
19491.967340	16966.419000	1581.886719	1203.119507
19491.967340	16966.419000	1580.843750	1198.985474
19491.967340	16966.419000	1579.799805	1272.744507
19491.967340	16966.419000	1578.755859	1284.690063
19491.967340	16966.419000	1577.711914	1223.410522
19491.967340	16966.419000	1576.666992	1132.437866
19491.967340	16966.419000	1575.623047	938.563477
19491.967340	16966.419000	1574.578125	1287.003052
19491.967340	16966.419000	1573.533203	1347.140015
19491.967340	16966.419000	1572.488281	1306.666016
19491.967340	16966.419000	1571.443359	1092.476318
19491.967340	16966.419000	1570.397461	1571.060303
19491.967340	16966.419000	1569.351563	1233.560547
19491.967340	16966.419000	1568.305664	1449.219849
19491.967340	16966.419000	1567.259766	1630.566162
19491.967340	16966.419000	1566.213867	1526.355957
19491.967340	16966.419000	1565.166992	1394.824585
19491.967340	16966.419000	1564.120117	1688.075684
19491.967340	16966.419000	1563.073242	1465.332397
19491.967340	16966.419000	1562.026367	1322.601196
19491.967340	16966.419000	1560.978516	1355.680298
19491.967340	16966.419000	1559.930664	1306.655273
19491.967340	16966.419000	1558.883789	1296.469238
19491.967340	16966.419000	1557.834961	983.014038
19491.967340	16966.419000	1556.787109	1148.559082
19491.967340	16966.419000	1555.739258	1067.875122
19491.967340	16966.419000	1554.690430	848.235352
19491.967340	16966.419000	1553.641602	740.389282
19491.967340	16966.419000	1552.592773	858.190918
19491.967340	16966.419000	1551.542969	891.712280
19491.967340	16966.419000	1550.494141	399.174072
19491.967340	16966.419000	1549.444336	783.528564
19491.967340	16966.419000	1548.394531	846.784729
19491.967340	16966.419000	1547.344727	1137.679443
19491.967340	16966.419000	1546.293945	707.122742
19491.967340	16966.419000	1545.244141	570.288086
19491.967340	16966.419000	1544.193359	631.463989
19491.967340	16966.419000	1543.142578	890.536255
19491.967340	16966.419000	1542.090820	622.018616
19491.967340	16966.419000	1541.040039	603.736450
19491.967340	16966.419000	1539.988281	619.611572
19491.967340	16966.419000	1538.936523	1121.853638
19491.967340	16966.419000	1537.884766	712.847839
19491.967340	16966.419000	1536.833008	792.459839
19491.967340	16966.419000	1535.780273	897.078796
19491.967340	16966.419000	1534.727539	949.486511
19491.967340	16966.419000	1533.674805	779.441040
19491.967340	16966.419000	1532.622070	934.105103
19491.967340	16966.419000	1531.569336	1007.066833
19491.967340	16966.419000	1530.515625	478.789948
19491.967340	16966.419000	1529.461914	669.891724
19491.967340	16966.419000	1528.408203	634.171448
19491.967340	16966.419000	1527.354492	550.904907
19491.967340	16966.419000	1526.299805	642.303894
19491.967340	16966.419000	1525.246094	656.654907
19491.967340	16966.419000	1524.191406	666.531738
19491.967340	16966.419000	1523.136719	737.639221
19491.967340	16966.419000	1522.081055	804.253906
19491.967340	16966.419000	1521.026367	528.896118
19491.967340	16966.419000	1519.970703	722.456543
19491.967340	16966.419000	1518.915039	752.993286
19491.967340	16966.419000	1517.859375	636.448120
19491.967340	16966.419000	1516.802734	791.589966
19491.967340	16966.419000	1515.747070	693.311707
19491.967340	16966.419000	1514.690430	389.273895
19491.967340	16966.419000	1513.633789	519.682922
19491.967340	16966.419000	1512.577148	487.287170
19491.967340	16966.419000	1511.519531	493.408478
19491.967340	16966.419000	1510.461914	574.186646
19491.967340	16966.419000	1509.405273	395.095062
19491.967340	16966.419000	1508.346680	498.589539
19491.967340	16966.419000	1507.289063	532.074280
19491.967340	16966.419000	1506.231445	432.349701
19491.967340	16966.419000	1505.172852	545.007690
19491.967340	16966.419000	1504.114258	400.302795
19491.967340	16966.419000	1503.055664	68.366081
19491.967340	16966.419000	1501.996094	262.480957
19491.967340	16966.419000	1500.937500	456.581451
19491.967340	16966.419000	1499.877930	465.687256
19491.967340	16966.419000	1498.818359	479.368988
19491.967340	16966.419000	1497.757813	569.791077
19491.967340	16966.419000	1496.698242	258.920258
19491.967340	16966.419000	1495.637695	230.016937
19491.967340	16966.419000	1494.577148	104.284248
19491.967340	16966.419000	1493.516602	19.228247
19491.967340	16966.419000	1492.456055	-40.939934
19491.967340	16966.419000	1491.394531	70.169113
19491.967340	16966.419000	1490.333008	70.959427
19491.967340	16966.419000	1489.271484	-45.256313
19491.967340	16966.419000	1488.209961	61.496666
19491.967340	16966.419000	1487.148438	125.517349
19491.967340	16966.419000	1486.085938	18.576286
19491.967340	16966.419000	1485.023438	64.729523
19491.967340	16966.419000	1483.960938	-95.993507
19491.967340	16966.419000	1482.898438	143.704208
19491.967340	16966.419000	1481.834961	122.577812
19491.967340	16966.419000	1480.772461	52.078373
19491.967340	16966.419000	1479.708984	82.813789
19491.967340	16966.419000	1478.644531	216.993347
19491.967340	16966.419000	1477.581055	256.776672
19491.967340	16966.419000	1476.517578	188.870193
19491.967340	16966.419000	1475.453125	433.109497
19491.967340	16966.419000	1474.388672	129.635849
19491.967340	16966.419000	1473.323242	93.509590
19491.967340	16966.419000	1472.258789	55.166969
19491.967340	16966.419000	1471.193359	263.562622
19491.967340	16966.419000	1470.127930	-59.441803
19491.967340	16966.419000	1469.062500	227.708450
19491.967340	16966.419000	1467.997070	-117.301041
19491.967340	16966.419000	1466.930664	299.527924
19491.967340	16966.419000	1465.865234	225.808472
19491.967340	16966.419000	1464.798828	246.175705
19491.967340	16966.419000	1463.731445	354.176697
19491.967340	16966.419000	1462.665039	247.344101
19491.967340	16966.419000	1461.597656	341.829010
19491.967340	16966.419000	1460.530273	261.890869
19491.967340	16966.419000	1459.462891	186.707397
19491.967340	16966.419000	1458.395508	337.059814
19491.967340	16966.419000	1457.327148	289.036713
19491.967340	16966.419000	1456.259766	185.066406
19491.967340	16966.419000	1455.191406	255.023346
19491.967340	16966.419000	1454.123047	177.627518
19491.967340	16966.419000	1453.053711	174.946243
19491.967340	16966.419000	1451.985352	96.301781
19491.967340	16966.419000	1450.916016	126.938293
19491.967340	16966.419000	1449.846680	187.968002
19491.967340	16966.419000	1448.776367	-16.605961
19491.967340	16966.419000	1447.707031	126.342796
19491.967340	16966.419000	1446.636719	327.812836
19491.967340	16966.419000	1445.566406	54.878967
19491.967340	16966.419000	1444.496094	234.714951
19491.967340	16966.419000	1443.425781	6.390958
19491.967340	16966.419000	1442.354492	239.070648
19491.967340	16966.419000	1441.283203	103.935959
19491.967340	16966.419000	1440.211914	311.508270
19491.967340	16966.419000	1439.140625	91.301102
19491.967340	16966.419000	1438.069336	74.632675
19491.967340	16966.419000	1436.997070	-204.840881
19491.967340	16966.419000	1435.924805	85.104988
19491.967340	16966.419000	1434.852539	-81.578697
19491.967340	16966.419000	1433.780273	-48.327648
19491.967340	16966.419000	1432.707031	-173.514816
19491.967340	16966.419000	1431.633789	-145.935440
19491.967340	16966.419000	1430.560547	18.019659
19491.967340	16966.419000	1429.487305	-264.257111
19491.967340	16966.419000	1428.413086	-201.726379
19491.967340	16966.419000	1427.339844	-284.178406
19491.967340	16966.419000	1426.265625	-369.045837
19491.967340	16966.419000	1425.191406	-0.942741
19491.967340	16966.419000	1424.116211	-172.573608
19491.967340	16966.419000	1423.041992	-76.104240
19491.967340	16966.419000	1421.966797	-129.941437
19491.967340	16966.419000	1420.891602	104.587593
19491.967340	16966.419000	1419.816406	6.328315
19491.967340	16966.419000	1418.740234	-145.458649
19491.967340	16966.419000	1417.665039	-180.127274
19491.967340	16966.419000	1416.588867	-130.197037
19491.967340	16966.419000	1415.512695	-25.583353
19491.967340	16966.419000	1414.435547	98.080070
19491.967340	16966.419000	1413.359375	121.210236
19491.967340	16966.419000	1412.282227	-140.202103
19491.967340	16966.419000	1411.205078	12.362914
19491.967340	16966.419000	1410.127930	83.313179
19491.967340	16966.419000	1409.049805	14.827781
19491.967340	16966.419000	1407.972656	354.461761
19491.967340	16966.419000	1406.894531	271.938873
19491.967340	16966.419000	1405.816406	63.286434
19491.967340	16966.419000	1404.737305	256.289215
19491.967340	16966.419000	1403.659180	-4.898605
19491.967340	16966.419000	1402.580078	33.054569
19491.967340	16966.419000	1401.500977	-142.242157
19491.967340	16966.419000	1400.421875	-94.843803
19491.967340	16966.419000	1399.341797	115.366684
19491.967340	16966.419000	1398.262695	-86.947395
19491.967340	16966.419000	1397.182617	81.098892
19491.967340	16966.419000	1396.102539	390.278381
19491.967340	16966.419000	1395.021484	273.141937
19491.967340	16966.419000	1393.941406	143.969574
19491.967340	16966.419000	1392.860352	464.396637
19491.967340	16966.419000	1391.779297	390.588348
19491.967340	16966.419000	1390.698242	197.907532
19491.967340	16966.419000	1389.616211	127.053772
19491.967340	16966.419000	1388.535156	290.292847
19491.967340	16966.419000	1387.453125	523.213745
19491.967340	16966.419000	1386.371094	135.557495
19491.967340	16966.419000	1385.288086	365.357849
19491.967340	16966.419000	1384.206055	154.733658
19491.967340	16966.419000	1383.123047	145.766510
19491.967340	16966.419000	1382.040039	201.705017
19491.967340	16966.419000	1380.957031	312.962799
19491.967340	16966.419000	1379.873047	85.550438
19491.967340	16966.419000	1378.789063	-11.574678
19491.967340	16966.419000	1377.705078	151.174911
19491.967340	16966.419000	1376.621094	415.910095
19491.967340	16966.419000	1375.537109	314.899933
19491.967340	16966.419000	1374.452148	256.971588
19491.967340	16966.419000	1373.367188	116.207268
19491.967340	16966.419000	1372.282227	230.633789
19491.967340	16966.419000	1371.197266	166.891342
19491.967340	16966.419000	1370.112305	33.592731
19491.967340	16966.419000	1369.026367	226.637604
19491.967340	16966.419000	1367.940430	210.756287
19491.967340	16966.419000	1366.854492	225.249084
19491.967340	16966.419000	1365.767578	232.410324
19491.967340	16966.419000	1364.681641	-153.568832
19491.967340	16966.419000	1363.594727	-62.673420
19491.967340	16966.419000	1362.507813	170.416473
19491.967340	16966.419000	1361.419922	58.659401
19491.967340	16966.419000	1360.333008	-7.730396
19491.967340	16966.419000	1359.245117	48.490891
19491.967340	16966.419000	1358.157227	163.310959
19491.967340	16966.419000	1357.069336	194.789825
19491.967340	16966.419000	1355.981445	231.260971
19491.967340	16966.419000	1354.892578	36.757393
19491.967340	16966.419000	1353.803711	-3.786140
19491.967340	16966.419000	1352.714844	346.987274
19491.967340	16966.419000	1351.625000	372.112671
19491.967340	16966.419000	1350.536133	461.344574
19491.967340	16966.419000	1349.446289	457.806396
19491.967340	16966.419000	1348.356445	280.448303
19491.967340	16966.419000	1347.266602	301.476776
19491.967340	16966.419000	1346.175781	27.235706
19491.967340	16966.419000	1345.085938	259.399048
19491.967340	16966.419000	1343.995117	270.307373
19491.967340	16966.419000	1342.903320	457.483734
19491.967340	16966.419000	1341.812500	358.654602
19491.967340	16966.419000	1340.720703	419.018219
19491.967340	16966.419000	1339.629883	489.873169
19491.967340	16966.419000	1338.538086	269.255737
19491.967340	16966.419000	1337.445313	333.356873
19491.967340	16966.419000	1336.353516	115.371452
19491.967340	16966.419000	1335.260742	154.343750
19491.967340	16966.419000	1334.167969	159.506638
19491.967340	16966.419000	1333.075195	240.222839
19491.967340	16966.419000	1331.981445	175.615875
19491.967340	16966.419000	1330.888672	443.477966
19491.967340	16966.419000	1329.794922	173.300995
19491.967340	16966.419000	1328.701172	230.022690
19491.967340	16966.419000	1327.606445	116.694481
19491.967340	16966.419000	1326.512695	128.870041
19491.967340	16966.419000	1325.417969	308.726990
19491.967340	16966.419000	1324.323242	421.044800
19491.967340	16966.419000	1323.227539	490.869110
19491.967340	16966.419000	1322.132813	348.054108
19491.967340	16966.419000	1321.037109	362.498413
19491.967340	16966.419000	1319.941406	430.369995
19491.967340	16966.419000	1318.845703	254.277603
19491.967340	16966.419000	1317.750000	457.322266
19491.967340	16966.419000	1316.653320	518.379822
19491.967340	16966.419000	1315.556641	797.120056
19491.967340	16966.419000	1314.459961	578.433105
19491.967340	16966.419000	1313.363281	380.074219
19491.967340	16966.419000	1312.265625	678.778625
19491.967340	16966.419000	1311.167969	285.983795
19491.967340	16966.419000	1310.070313	518.790588
19491.967340	16966.419000	1308.972656	499.124207
19491.967340	16966.419000	1307.874023	352.987640
19491.967340	16966.419000	1306.776367	340.927795
19491.967340	16966.419000	1305.677734	330.740387
19491.967340	16966.419000	1304.579102	364.466064
19491.967340	16966.419000	1303.479492	312.906738
19491.967340	16966.419000	1302.380859	255.259613
19491.967340	16966.419000	1301.281250	457.388794
19491.967340	16966.419000	1300.181641	304.342773
19491.967340	16966.419000	1299.081055	300.364899
19491.967340	16966.419000	1297.981445	134.081879
19491.967340	16966.419000	1296.880859	301.303345
19491.967340	16966.419000	1295.780273	239.354996
19491.967340	16966.419000	1294.679688	144.619064
19491.967340	16966.419000	1293.578125	125.702255
19491.967340	16966.419000	1292.476563	107.311127
19491.967340	16966.419000	1291.375000	112.872803
19491.967340	16966.419000	1290.273438	147.648407
19491.967340	16966.419000	1289.171875	-48.348991
19491.967340	16966.419000	1288.069336	-39.436466
19491.967340	16966.419000	1286.966797	-149.067657
19491.967340	16966.419000	1285.864258	-76.374046
19491.967340	16966.419000	1284.761719	-316.789795
19491.967340	16966.419000	1283.658203	-288.682770
19491.967340	16966.419000	1282.554688	-152.696045
19491.967340	16966.419000	1281.451172	19.113115
19491.967340	16966.419000	1280.347656	-114.005890
19491.967340	16966.419000	1279.244141	-95.698196
19491.967340	16966.419000	1278.139648	-160.538589
19491.967340	16966.419000	1277.035156	-119.260094
19491.967340	16966.419000	1275.930664	-79.212898
19491.967340	16966.419000	1274.825195	-171.608536
19491.967340	16966.419000	1273.720703	-142.303070
19491.967340	16966.419000	1272.615234	95.900200
19491.967340	16966.419000	1271.508789	108.959686
19491.967340	16966.419000	1270.403320	-39.076420
19491.967340	16966.419000	1269.297852	59.699524
19491.967340	16966.419000	1268.191406	8.068221
19491.967340	16966.419000	1267.084961	-16.578360
19491.967340	16966.419000	1265.977539	-81.498573
19491.967340	16966.419000	1264.871094	151.996384
19491.967340	16966.419000	1263.763672	-2.871333
19491.967340	16966.419000	1262.656250	158.637909
19491.967340	16966.419000	1261.548828	117.043053
19491.967340	16966.419000	1260.440430	28.324045
19491.967340	16966.419000	1259.333008	-65.568565
19491.967340	16966.419000	1258.224609	67.325638
19491.967340	16966.419000	1257.115234	-67.263443
19491.967340	16966.419000	1256.006836	136.782730
19491.967340	16966.419000	1254.897461	215.565216
19491.967340	16966.419000	1253.788086	-85.184166
19491.967340	16966.419000	1252.678711	24.698116
19491.967340	16966.419000	1251.569336	-371.464264
19491.967340	16966.419000	1250.458984	-76.023460
19491.967340	16966.419000	1249.349609	-178.989716
19491.967340	16966.419000	1248.239258	-191.334335
19491.967340	16966.419000	1247.127930	-60.352806
19491.967340	16966.419000	1246.017578	-173.781906
19491.967340	16966.419000	1244.906250	25.582823
19491.967340	16966.419000	1243.794922	-124.149742
19491.967340	16966.419000	1242.683594	-113.599258
19491.967340	16966.419000	1241.571289	-188.266357
19491.967340	16966.419000	1240.459961	-94.305649
19491.967340	16966.419000	1239.347656	137.143448
19491.967340	16966.419000	1238.234375	-16.599279
19491.967340	16966.419000	1237.122070	-77.393471
19491.967340	16966.419000	1236.008789	-94.144218
19491.967340	16966.419000	1234.896484	-8.410291
19491.967340	16966.419000	1233.782227	-107.241562
19491.967340	16966.419000	1232.668945	75.690147
19491.967340	16966.419000	1231.555664	-67.393196
19491.967340	16966.419000	1230.441406	-109.347771
19491.967340	16966.419000	1229.327148	-17.476589
19491.967340	16966.419000	1228.211914	133.229355
19491.967340	16966.419000	1227.097656	23.713472
19491.967340	16966.419000	1225.982422	267.742310
19491.967340	16966.419000	1224.867188	246.243408
19491.967340	16966.419000	1223.751953	151.653778
19491.967340	16966.419000	1222.635742	81.572243
19491.967340	16966.419000	1221.520508	119.985352
19491.967340	16966.419000	1220.404297	305.323547
19491.967340	16966.419000	1219.287109	38.338303
19491.967340	16966.419000	1218.170898	112.332695
19491.967340	16966.419000	1217.053711	154.688248
19491.967340	16966.419000	1215.936523	-2.448564
19491.967340	16966.419000	1214.819336	-7.271549
19491.967340	16966.419000	1213.702148	87.193481
19491.967340	16966.419000	1212.583984	15.668211
19491.967340	16966.419000	1211.465820	99.219131
19491.967340	16966.419000	1210.347656	30.634882
19491.967340	16966.419000	1209.229492	94.268570
19491.967340	16966.419000	1208.110352	-104.503891
19491.967340	16966.419000	1206.992188	16.402327
19491.967340	16966.419000	1205.873047	88.649590
19491.967340	16966.419000	1204.752930	61.333138
19491.967340	16966.419000	1203.633789	116.168816
19491.967340	16966.419000	1202.513672	133.684097
19491.967340	16966.419000	1201.393555	31.537508
19491.967340	16966.419000	1200.273438	-118.365074
19491.967340	16966.419000	1199.152344	-38.319775
19491.967340	16966.419000	1198.032227	134.108276
19491.967340	16966.419000	1196.911133	25.850616
19491.967340	16966.419000	1195.790039	10.319831
19491.967340	16966.419000	1194.667969	-130.520523
19491.967340	16966.419000	1193.545898	18.318361
19491.967340	16966.419000	1192.424805	6.124263
19491.967340	16966.419000	1191.301758	70.600876
19491.967340	16966.419000	1190.179688	22.573135
19491.967340	16966.419000	1189.056641	146.005417
19491.967340	16966.419000	1187.933594	67.181641
19491.967340	16966.419000	1186.810547	52.533127
19491.967340	16966.419000	1185.687500	237.551743
19491.967340	16966.419000	1184.563477	101.241852
19491.967340	16966.419000	1183.440430	-7.501903
19491.967340	16966.419000	1182.316406	246.743530
19491.967340	16966.419000	1181.191406	327.149628
19491.967340	16966.419000	1180.067383	177.224564
19491.967340	16966.419000	1178.942383	120.816948
19491.967340	16966.419000	1177.817383	387.566498
19491.967340	16966.419000	1176.692383	64.289345
19491.967340	16966.419000	1175.566406	253.347061
19491.967340	16966.419000	1174.440430	271.967316
19491.967340	16966.419000	1173.314453	160.556122
19491.967340	16966.419000	1172.188477	357.103455
19491.967340	16966.419000	1171.062500	209.778976
19491.967340	16966.419000	1169.935547	362.250793
19491.967340	16966.419000	1168.808594	405.389343
19491.967340	16966.419000	1167.681641	297.889679
19491.967340	16966.419000	1166.553711	228.902252
19491.967340	16966.419000	1165.426758	168.104050
19491.967340	16966.419000	1164.298828	-100.500793
19491.967340	16966.419000	1163.170898	-124.250610
19491.967340	16966.419000	1162.041992	-42.315434
19491.967340	16966.419000	1160.914063	-22.744513
19491.967340	16966.419000	1159.785156	-61.815220
19491.967340	16966.419000	1158.656250	-25.590342
19491.967340	16966.419000	1157.526367	-116.454865
19491.967340	16966.419000	1156.397461	-196.867905
19491.967340	16966.419000	1155.267578	-96.943016
19491.967340	16966.419000	1154.137695	-71.278000
19491.967340	16966.419000	1153.006836	-162.287247
19491.967340	16966.419000	1151.876953	-43.206909
19491.967340	16966.419000	1150.746094	122.856987
19491.967340	16966.419000	1149.615234	-217.602341
19491.967340	16966.419000	1148.484375	-148.738373
19491.967340	16966.419000	1147.352539	-1.271298
19491.967340	16966.419000	1146.220703	-108.891411
19491.967340	16966.419000	1145.088867	-67.253113
19491.967340	16966.419000	1143.957031	-220.753006
19491.967340	16966.419000	1142.825195	-35.774029
19491.967340	16966.419000	1141.692383	-38.363689
19491.967340	16966.419000	1140.559570	63.214706
19491.967340	16966.419000	1139.426758	-87.447136
19491.967340	16966.419000	1138.292969	-113.320671
19491.967340	16966.419000	1137.159180	-153.136826
19491.967340	16966.419000	1136.025391	-51.364460
19491.967340	16966.419000	1134.891602	-25.981163
19491.967340	16966.419000	1133.757813	-246.191116
19491.967340	16966.419000	1132.623047	-41.379971
19491.967340	16966.419000	1131.488281	90.994957
19491.967340	16966.419000	1130.353516	135.183624
19491.967340	16966.419000	1129.217773	-22.879421
19491.967340	16966.419000	1128.083008	-27.022430
19491.967340	16966.419000	1126.947266	-33.894848
19491.967340	16966.419000	1125.811523	-5.289694
19491.967340	16966.419000	1124.674805	-18.388763
19491.967340	16966.419000	1123.539063	-107.887161
19491.967340	16966.419000	1122.402344	-24.832087
19491.967340	16966.419000	1121.265625	78.628151
19491.967340	16966.419000	1120.127930	-82.477432
19491.967340	16966.419000	1118.990234	94.378700
19491.967340	16966.419000	1117.853516	98.191063
19491.967340	16966.419000	1116.714844	49.435150
19491.967340	16966.419000	1115.577148	183.796631
19491.967340	16966.419000	1114.439453	116.666756
19491.967340	16966.419000	1113.300781	106.307755
19491.967340	16966.419000	1112.162109	118.206406
19491.967340	16966.419000	1111.022461	151.066269
19491.967340	16966.419000	1109.883789	263.994934
19491.967340	16966.419000	1108.744141	258.082123
19491.967340	16966.419000	1107.604492	286.024689
19491.967340	16966.419000	1106.463867	244.400146
19491.967340	16966.419000	1105.324219	214.269501
19491.967340	16966.419000	1104.183594	115.173325
19491.967340	16966.419000	1103.042969	140.641724
19491.967340	16966.419000	1101.902344	325.431610
19491.967340	16966.419000	1100.760742	213.793091
19491.967340	16966.419000	1099.619141	270.768127
19491.967340	16966.419000	1098.477539	87.745514
19491.967340	16966.419000	1097.335938	114.695999
19491.967340	16966.419000	1096.193359	201.432114
19491.967340	16966.419000	1095.051758	346.849609
19491.967340	16966.419000	1093.909180	272.834106
19491.967340	16966.419000	1092.765625	347.953979
19491.967340	16966.419000	1091.623047	372.498749
19491.967340	16966.419000	1090.479492	407.960297
19491.967340	16966.419000	1089.335938	121.910255
19491.967340	16966.419000	1088.192383	269.578217
19491.967340	16966.419000	1087.047852	280.618256
19491.967340	16966.419000	1085.903320	268.274902
19491.967340	16966.419000	1084.758789	265.325714
19491.967340	16966.419000	1083.614258	246.301086
19491.967340	16966.419000	1082.469727	75.973610
19491.967340	16966.419000	1081.324219	276.003998
19491.967340	16966.419000	1080.178711	90.989632
19491.967340	16966.419000	1079.033203	308.234344
19491.967340	16966.419000	1077.886719	316.044250
19491.967340	16966.419000	1076.740234	412.566650
19491.967340	16966.419000	1075.593750	121.611259
19491.967340	16966.419000	1074.447266	207.410675
19491.967340	16966.419000	1073.300781	89.137955
19491.967340	16966.419000	1072.153320	268.641022
19491.967340	16966.419000	1071.005859	246.221680
19491.967340	16966.419000	1069.858398	104.808784
19491.967340	16966.419000	1068.709961	45.589096
19491.967340	16966.419000	1067.561523	55.812717
19491.967340	16966.419000	1066.413086	212.498398
19491.967340	16966.419000	1065.264648	226.339722
19491.967340	16966.419000	1064.116211	255.059525
19491.967340	16966.419000	1062.966797	72.287766
19491.967340	16966.419000	1061.817383	138.236664
19491.967340	16966.419000	1060.667969	116.599777
19491.967340	16966.419000	1059.517578	139.070450
19491.967340	16966.419000	1058.368164	-13.692438
19491.967340	16966.419000	1057.217773	53.995388
19491.967340	16966.419000	1056.067383	62.178349
19491.967340	16966.419000	1054.916016	-43.393700
19491.967340	16966.419000	1053.764648	75.444824
19491.967340	16966.419000	1052.613281	293.168762
19491.967340	16966.419000	1051.461914	-45.711868
19491.967340	16966.419000	1050.310547	167.028748
19491.967340	16966.419000	1049.158203	149.312210
19491.967340	16966.419000	1048.005859	343.529846
19491.967340	16966.419000	1046.853516	121.286415
19491.967340	16966.419000	1045.700195	185.658676
19491.967340	16966.419000	1044.547852	0.457684
19491.967340	16966.419000	1043.394531	-98.866425
19491.967340	16966.419000	1042.240234	102.712898
19491.967340	16966.419000	1041.086914	103.626015
19491.967340	16966.419000	1039.932617	37.554348
19491.967340	16966.419000	1038.778320	226.642426
19491.967340	16966.419000	1037.624023	95.835846
19491.967340	16966.419000	1036.469727	142.960037
19491.967340	16966.419000	1035.314453	355.608154
19491.967340	16966.419000	1034.159180	430.828186
19491.967340	16966.419000	1033.003906	460.590118
19491.967340	16966.419000	1031.847656	490.840515
19491.967340	16966.419000	1030.692383	539.112793
19491.967340	16966.419000	1029.536133	596.645569
19491.967340	16966.419000	1028.378906	645.191833
19491.967340	16966.419000	1027.222656	525.806824
19491.967340	16966.419000	1026.065430	210.765015
19491.967340	16966.419000	1024.908203	40.901684
19491.967340	16966.419000	1023.750977	180.250336
19491.967340	16966.419000	1022.593750	194.906967
19491.967340	16966.419000	1021.435547	102.221230
19491.967340	16966.419000	1020.277344	64.349846
19491.967340	16966.419000	1019.119141	113.868294
19491.967340	16966.419000	1017.959961	152.524597
19491.967340	16966.419000	1016.800781	130.044891
19491.967340	16966.419000	1015.641602	166.499786
19491.967340	16966.419000	1014.482422	-25.022562
19491.967340	16966.419000	1013.323242	56.892216
19491.967340	16966.419000	1012.163086	9.909985
19491.967340	16966.419000	1011.002930	254.107590
19491.967340	16966.419000	1009.842773	67.680641
19491.967340	16966.419000	1008.681641	-15.182605
19491.967340	16966.419000	1007.520508	-2.986284
19491.967340	16966.419000	1006.359375	269.891968
19491.967340	16966.419000	1005.198242	212.521759
19491.967340	16966.419000	1004.037109	26.301842
19491.967340	16966.419000	1002.875000	14.785583
19491.967340	16966.419000	1001.712891	292.665253
19491.967340	16966.419000	1000.550781	289.222382
19491.967340	16966.419000	999.387695	78.151917
19491.967340	16966.419000	998.224609	92.027023
19491.967340	16966.419000	997.061523	19.902678
19491.967340	16966.419000	995.898438	-123.903450
19491.967340	16966.419000	994.734375	-4.854722
19491.967340	16966.419000	993.571289	-1.496235
19491.967340	16966.419000	992.407227	-138.400528
19491.967340	16966.419000	991.242188	-52.485359
19491.967340	16966.419000	990.078125	-73.498817
19491.967340	16966.419000	988.913086	-293.762604
19491.967340	16966.419000	987.748047	-9.185765
19491.967340	16966.419000	986.583008	-147.492645
19491.967340	16966.419000	985.416992	-112.174103
19491.967340	16966.419000	984.250977	-310.427246
19491.967340	16966.419000	983.084961	-196.489090
19491.967340	16966.419000	981.918945	-48.032223
19491.967340	16966.419000	980.751953	-11.352288
19491.967340	16966.419000	979.584961	69.076355
19491.967340	16966.419000	978.417969	116.911186
19491.967340	16966.419000	977.250977	-1.921731
19491.967340	16966.419000	976.083008	-142.192734
19491.967340	16966.419000	974.915039	-262.309723
19491.967340	16966.419000	973.747070	-116.206993
19491.967340	16966.419000	972.579102	-155.204620
19491.967340	16966.419000	971.410156	-133.168701
19491.967340	16966.419000	970.242188	60.548744
19491.967340	16966.419000	969.072266	45.340080
19491.967340	16966.419000	967.903320	-163.480515
19491.967340	16966.419000	966.733398	-77.067436
19491.967340	16966.419000	965.563477	-40.184937
19491.967340	16966.419000	964.393555	156.693604
19491.967340	16966.419000	963.223633	-118.555618
19491.967340	16966.419000	962.052734	-46.860355
19491.967340	16966.419000	960.881836	25.138250
19491.967340	16966.419000	959.710938	20.500973
19491.967340	16966.419000	958.540039	-106.399895
19491.967340	16966.419000	957.368164	-106.405266
19491.967340	16966.419000	956.196289	6.406261
19491.967340	16966.419000	955.024414	188.914780
19491.967340	16966.419000	953.851563	73.714882
19491.967340	16966.419000	952.679688	-65.492340
19491.967340	16966.419000	951.506836	-19.257206
19491.967340	16966.419000	950.333984	84.369080
19491.967340	16966.419000	949.160156	144.257401
19491.967340	16966.419000	947.986328	75.089973
19491.967340	16966.419000	946.812500	-9.007038
19491.967340	16966.419000	945.638672	271.484131
19491.967340	16966.419000	944.464844	-47.259571
19491.967340	16966.419000	943.290039	148.368988
19491.967340	16966.419000	942.115234	-99.751663
19491.967340	16966.419000	940.940430	153.112061
19491.967340	16966.419000	939.764648	-121.771614
19491.967340	16966.419000	938.588867	166.659470
19491.967340	16966.419000	937.413086	-13.699035
19491.967340	16966.419000	936.237305	83.558311
19491.967340	16966.419000	935.060547	115.243622
19491.967340	16966.419000	933.883789	180.764786
19491.967340	16966.419000	932.707031	35.865089
19491.967340	16966.419000	931.530273	208.627701
19491.967340	16966.419000	930.352539	-18.085535
19491.967340	16966.419000	929.175781	-30.419819
19491.967340	16966.419000	927.998047	-23.729719
19491.967340	16966.419000	926.819336	18.549305
19491.967340	16966.419000	925.641602	37.747684
19491.967340	16966.419000	924.462891	-193.042923
19491.967340	16966.419000	923.284180	-123.390182
19491.967340	16966.419000	922.104492	15.526656
19491.967340	16966.419000	920.924805	-101.775078
19491.967340	16966.419000	919.746094	-94.330750
19491.967340	16966.419000	919.551758	151.665375
19491.967340	16966.419000	918.386719	-9.803148
19491.967340	16966.419000	917.220703	-106.157379
19491.967340	16966.419000	916.054688	76.561432
19491.967340	16966.419000	914.887695	177.394638
19491.967340	16966.419000	913.721680	-223.059616
19491.967340	16966.419000	912.554688	9.873074
19491.967340	16966.419000	911.387695	91.763794
19491.967340	16966.419000	910.220703	-6.636440
19491.967340	16966.419000	909.052734	8.157991
19491.967340	16966.419000	907.885742	-144.674622
19491.967340	16966.419000	906.717773	-184.336929
19491.967340	16966.419000	905.548828	27.320486
19491.967340	16966.419000	904.380859	157.219101
19491.967340	16966.419000	903.211914	79.818329
19491.967340	16966.419000	902.042969	-1.744345
19491.967340	16966.419000	900.874023	-77.006012
19491.967340	16966.419000	899.704102	270.362579
19491.967340	16966.419000	898.535156	-32.931854
19491.967340	16966.419000	897.365234	8.947885
19491.967340	16966.419000	896.194336	96.805466
19491.967340	16966.419000	895.024414	146.986313
19491.967340	16966.419000	893.853516	387.329529
19491.967340	16966.419000	892.682617	128.167938
19491.967340	16966.419000	891.511719	50.855999
19491.967340	16966.419000	890.340820	249.270645
19491.967340	16966.419000	889.168945	272.189209
19491.967340	16966.419000	887.997070	54.988556
19491.967340	16966.419000	886.825195	25.734018
19491.967340	16966.419000	885.653320	238.571045
19491.967340	16966.419000	884.480469	123.730095
19491.967340	16966.419000	883.307617	29.787186
19491.967340	16966.419000	882.134766	65.186584
19491.967340	16966.419000	880.961914	-30.809088
19491.967340	16966.419000	879.788086	92.137955
19491.967340	16966.419000	878.614258	17.005150
19491.967340	16966.419000	877.440430	279.500397
19491.967340	16966.419000	876.266602	139.750549
19491.967340	16966.419000	875.091797	260.444916
19491.967340	16966.419000	873.916992	133.238647
19491.967340	16966.419000	872.742188	205.972458
19491.967340	16966.419000	871.567383	14.270261
19491.967340	16966.419000	870.391602	199.379868
19491.967340	16966.419000	869.215820	36.876408
19491.967340	16966.419000	868.040039	61.679657
19491.967340	16966.419000	866.864258	-21.705650
19491.967340	16966.419000	865.687500	175.700668
19491.967340	16966.419000	864.510742	-51.162945
19491.967340	16966.419000	863.333984	48.438679
19491.967340	16966.419000	862.157227	278.929199
19491.967340	16966.419000	860.979492	43.842464
19491.967340	16966.419000	859.802734	-135.069443
19491.967340	16966.419000	858.625000	-199.672272
19491.967340	16966.419000	857.446289	-102.268013
19491.967340	16966.419000	856.268555	-104.585968
19491.967340	16966.419000	855.089844	13.491425
19491.967340	16966.419000	853.911133	-312.642303
19491.967340	16966.419000	852.731445	-32.738560
19491.967340	16966.419000	851.552734	-147.144745
19491.967340	16966.419000	850.373047	-18.833284
19491.967340	16966.419000	849.193359	-73.079529
19491.967340	16966.419000	848.013672	-135.610260
19491.967340	16966.419000	846.833008	25.749725
19491.967340	16966.419000	845.652344	-5.713368
19491.967340	16966.419000	844.471680	-30.961706
19491.967340	16966.419000	843.291016	-103.861748
19491.967340	16966.419000	842.110352	-58.690109
19491.967340	16966.419000	840.928711	69.284981
19491.967340	16966.419000	839.747070	-268.638519
19491.967340	16966.419000	838.564453	84.921486
19491.967340	16966.419000	837.382813	-60.435791
19491.967340	16966.419000	836.200195	-27.805227
19491.967340	16966.419000	835.017578	-46.920094
19491.967340	16966.419000	833.834961	74.593353
19491.967340	16966.419000	832.651367	-126.531296
19491.967340	16966.419000	831.467773	-87.777267
19491.967340	16966.419000	830.284180	23.286777
19491.967340	16966.419000	829.100586	101.221092
19491.967340	16966.419000	827.916992	30.345678
19491.967340	16966.419000	826.732422	-65.303238
19491.967340	16966.419000	825.547852	-18.430506
19491.967340	16966.419000	824.363281	-83.096985
19491.967340	16966.419000	823.177734	-120.914955
19491.967340	16966.419000	821.992188	70.360970
19491.967340	16966.419000	820.806641	-43.866207
19491.967340	16966.419000	819.621094	-162.193497
19491.967340	16966.419000	818.434570	35.102650
19491.967340	16966.419000	817.249023	7.502810
19491.967340	16966.419000	816.062500	0.514962
19491.967340	16966.419000	814.875000	125.443390
19491.967340	16966.419000	813.688477	252.351776
19491.967340	16966.419000	812.500977	212.285080
19491.967340	16966.419000	811.313477	211.353104
19491.967340	16966.419000	810.125977	-45.007027
19491.967340	16966.419000	808.937500	116.753281
19491.967340	16966.419000	807.749023	-30.406523
19491.967340	16966.419000	806.560547	5.668478
19491.967340	16966.419000	805.372070	121.966202
19491.967340	16966.419000	804.182617	122.968704
19491.967340	16966.419000	802.994141	-104.403511
19491.967340	16966.419000	801.803711	-49.928207
19491.967340	16966.419000	800.614258	142.264404
19491.967340	16966.419000	799.424805	-146.725479
19491.967340	16966.419000	798.234375	-16.306538
19491.967340	16966.419000	797.043945	222.945709
19491.967340	16966.419000	795.852539	-6.374544
19491.967340	16966.419000	794.662109	80.709175
19491.967340	16966.419000	793.470703	83.528183
19491.967340	16966.419000	792.279297	295.754120
19491.967340	16966.419000	791.087891	173.239151
19491.967340	16966.419000	789.895508	-88.819160
19491.967340	16966.419000	788.703125	197.095642
19491.967340	16966.419000	787.510742	-1.322480
19491.967340	16966.419000	786.318359	-45.850292
19491.967340	16966.419000	785.125000	85.977242
19491.967340	16966.419000	783.931641	-42.675846
19491.967340	16966.419000	782.738281	-87.263077
19491.967340	16966.419000	781.544922	-117.519211
19491.967340	16966.419000	780.350586	243.579269
19491.967340	16966.419000	779.156250	-241.596466
19491.967340	16966.419000	777.961914	252.442444
19491.967340	16966.419000	776.767578	-3.251648
19491.967340	16966.419000	775.572266	-125.793030
19491.967340	16966.419000	774.376953	93.519653
19491.967340	16966.419000	773.181641	-27.017101
19491.967340	16966.419000	771.986328	18.192026
19491.967340	16966.419000	770.790039	155.403717
19491.967340	16966.419000	769.593750	87.997177
19491.967340	16966.419000	768.397461	20.578497
19491.967340	16966.419000	767.201172	-93.871262
19491.967340	16966.419000	766.003906	92.155434
19491.967340	16966.419000	764.806641	208.582855
19491.967340	16966.419000	763.609375	261.586426
19491.967340	16966.419000	762.412109	140.898193
19491.967340	16966.419000	761.213867	63.110535
19491.967340	16966.419000	760.015625	136.410553
19491.967340	16966.419000	758.817383	60.614300
19491.967340	16966.419000	757.618164	25.631430
19491.967340	16966.419000	756.419922	204.876892
19491.967340	16966.419000	755.220703	131.030670
19491.967340	16966.419000	754.021484	120.403122
19491.967340	16966.419000	752.821289	397.279724
19491.967340	16966.419000	751.621094	421.177948
19491.967340	16966.419000	750.420898	33.256664
19491.967340	16966.419000	749.220703	203.869019
19491.967340	16966.419000	748.020508	87.064514
19491.967340	16966.419000	746.819336	332.882385
19491.967340	16966.419000	745.618164	167.130325
19491.967340	16966.419000	744.416992	70.635193
19491.967340	16966.419000	743.214844	22.999580
19491.967340	16966.419000	742.012695	180.919022
19491.967340	16966.419000	740.810547	147.430344
19491.967340	16966.419000	739.608398	299.059601
19491.967340	16966.419000	738.406250	239.021347
19491.967340	16966.419000	737.203125	113.881920
19491.967340	16966.419000	736.000000	389.315552
19491.967340	16966.419000	734.795898	365.749847
19491.967340	16966.419000	733.592773	403.115936
19491.967340	16966.419000	732.388672	411.971283
19491.967340	16966.419000	731.184570	408.583191
19491.967340	16966.419000	729.979492	348.274567
19491.967340	16966.419000	728.775391	306.216156
19491.967340	16966.419000	727.570313	256.006165
19491.967340	16966.419000	726.365234	45.400349
19491.967340	16966.419000	725.160156	76.344742
19491.967340	16966.419000	723.954102	170.129898
19491.967340	16966.419000	722.748047	312.511658
19491.967340	16966.419000	721.541992	215.449799
19491.967340	16966.419000	720.334961	233.964218
19491.967340	16966.419000	719.128906	55.758648
19491.967340	16966.419000	717.921875	35.682659
19491.967340	16966.419000	716.714844	-65.500824
19491.967340	16966.419000	715.506836	155.462372
19491.967340	16966.419000	714.298828	102.810867
19491.967340	16966.419000	713.090820	106.834557
19491.967340	16966.419000	711.882813	199.897583
19491.967340	16966.419000	710.674805	104.596497
19491.967340	16966.419000	709.465820	152.988037
19491.967340	16966.419000	708.256836	-5.100043
19491.967340	16966.419000	707.047852	-25.600462
19491.967340	16966.419000	705.837891	-1.645062
19491.967340	16966.419000	704.627930	-72.801445
19491.967340	16966.419000	703.417969	-99.501320
19491.967340	16966.419000	702.208008	122.394928
19491.967340	16966.419000	700.998047	4.609904
19491.967340	16966.419000	699.787109	111.109261
19491.967340	16966.419000	698.576172	-95.618683
19491.967340	16966.419000	697.364258	-130.633743
19491.967340	16966.419000	696.153320	42.301846
19491.967340	16966.419000	694.941406	79.843803
19491.967340	16966.419000	693.729492	-70.403107
19491.967340	16966.419000	692.516602	41.707226
19491.967340	16966.419000	691.304688	-3.660300
19491.967340	16966.419000	690.091797	108.279633
19491.967340	16966.419000	688.878906	91.043144
19491.967340	16966.419000	687.665039	-252.889816
19491.967340	16966.419000	686.451172	-88.715912
19491.967340	16966.419000	685.237305	-89.937950
19491.967340	16966.419000	684.023438	-0.534346
19491.967340	16966.419000	682.809570	64.601486
19491.967340	16966.419000	681.594727	77.285286
19491.967340	16966.419000	680.379883	114.076530
19491.967340	16966.419000	679.165039	44.087688
19491.967340	16966.419000	677.949219	-38.002312
19491.967340	16966.419000	676.733398	63.031212
19491.967340	16966.419000	675.517578	-21.147476
19491.967340	16966.419000	674.301758	-115.403389
19491.967340	16966.419000	673.084961	-103.073341
19491.967340	16966.419000	671.869141	-34.498665
19491.967340	16966.419000	670.651367	146.581116
19491.967340	16966.419000	669.434570	-72.462112
19491.967340	16966.419000	668.216797	188.827515
19491.967340	16966.419000	667.000000	56.157879
19491.967340	16966.419000	665.781250	9.870067
19491.967340	16966.419000	664.563477	63.964439
19491.967340	16966.419000	663.344727	180.230576
19491.967340	16966.419000	662.125977	69.552986
19491.967340	16966.419000	660.907227	153.554092
19491.967340	16966.419000	659.688477	297.667877
19491.967340	16966.419000	658.468750	210.959549
19491.967340	16966.419000	657.249023	250.601898
19491.967340	16966.419000	656.029297	258.092407
19491.967340	16966.419000	654.808594	55.013794
19491.967340	16966.419000	653.587891	150.643509
19491.967340	16966.419000	652.367188	147.984940
19491.967340	16966.419000	651.146484	-27.034695
19491.967340	16966.419000	649.924805	-7.713650
19491.967340	16966.419000	648.704102	-24.497950
19491.967340	16966.419000	647.482422	64.804466
19491.967340	16966.419000	646.259766	-20.145838
19491.967340	16966.419000	645.037109	12.983641
19491.967340	16966.419000	643.815430	-35.990063
19491.967340	16966.419000	642.591797	177.102295
19491.967340	16966.419000	641.369141	122.025200
19491.967340	16966.419000	640.145508	136.922531
19491.967340	16966.419000	638.921875	187.759811
19491.967340	16966.419000	637.698242	108.600174
19491.967340	16966.419000	636.474609	65.406128
19491.967340	16966.419000	635.250000	-185.618881
19491.967340	16966.419000	634.025391	68.848297
19491.967340	16966.419000	632.800781	101.466515
19491.967340	16966.419000	631.575195	209.912781
19491.967340	16966.419000	630.349609	188.505508
19491.967340	16966.419000	629.124023	67.267815
19491.967340	16966.419000	627.898438	79.750221
19491.967340	16966.419000	626.671875	136.083755
19491.967340	16966.419000	625.445313	84.641670
19491.967340	16966.419000	624.218750	9.253793
19491.967340	16966.419000	622.992188	113.315384
19491.967340	16966.419000	621.764648	-13.945906
19491.967340	16966.419000	620.537109	42.176334
19491.967340	16966.419000	619.309570	-156.816162
19491.967340	16966.419000	618.081055	-66.884262
19491.967340	16966.419000	616.852539	-162.257980
19491.967340	16966.419000	615.624023	-114.242210
19491.967340	16966.419000	614.395508	57.163857
19491.967340	16966.419000	613.166992	-6.414962
19491.967340	16966.419000	611.937500	-231.194489
19491.967340	16966.419000	610.708008	-50.007130
19491.967340	16966.419000	609.477539	53.493767
19491.967340	16966.419000	608.248047	-153.332855
19491.967340	16966.419000	607.017578	-147.336517
19491.967340	16966.419000	605.787109	-161.245026
19491.967340	16966.419000	604.555664	-242.749863
19491.967340	16966.419000	603.325195	-121.550522
19491.967340	16966.419000	602.093750	-238.832581
19491.967340	16966.419000	600.861328	-133.619629
19491.967340	16966.419000	599.629883	-133.722412
19491.967340	16966.419000	598.397461	-155.683990
19491.967340	16966.419000	597.165039	-36.715446
19491.967340	16966.419000	595.932617	-11.092283
19491.967340	16966.419000	594.699219	157.365005
19491.967340	16966.419000	593.465820	-120.614166
19491.967340	16966.419000	592.232422	75.532555
19491.967340	16966.419000	590.999023	-23.874640
19491.967340	16966.419000	589.764648	-145.061539
19491.967340	16966.419000	588.530273	21.194445
19491.967340	16966.419000	587.295898	-22.687881
19491.967340	16966.419000	586.061523	-211.192047
19491.967340	16966.419000	584.826172	-37.136684
19491.967340	16966.419000	583.590820	-128.537460
19491.967340	16966.419000	582.355469	-51.608395
19491.967340	16966.419000	581.119141	-198.410339
19491.967340	16966.419000	579.882813	-127.451141
19491.967340	16966.419000	578.646484	-301.887268
19491.967340	16966.419000	577.410156	-187.423950
19491.967340	16966.419000	576.172852	-203.553741
19491.967340	16966.419000	574.935547	-39.731808
19491.967340	16966.419000	573.698242	35.052376
19491.967340	16966.419000	572.460938	-36.466087
19491.967340	16966.419000	571.222656	-30.884272
19491.967340	16966.419000	569.984375	-39.135906
19491.967340	16966.419000	568.746094	3.975000
19491.967340	16966.419000	567.506836	106.316177
19491.967340	16966.419000	566.267578	200.716537
19491.967340	16966.419000	565.028320	32.528263
19491.967340	16966.419000	563.789063	28.227545
19491.967340	16966.419000	562.548828	154.164474
19491.967340	16966.419000	561.309570	59.097633
19491.967340	16966.419000	560.068359	129.755768
19491.967340	16966.419000	558.828125	-105.264595
19491.967340	16966.419000	557.586914	223.680389
19491.967340	16966.419000	556.345703	-113.746620
19491.967340	16966.419000	555.104492	181.570999
19491.967340	16966.419000	553.863281	193.049683
19491.967340	16966.419000	552.621094	295.142822
19491.967340	16966.419000	551.378906	-38.043697
19491.967340	16966.419000	550.136719	152.676926
19491.967340	16966.419000	548.893555	36.222885
19491.967340	16966.419000	547.650391	-36.872356
19491.967340	16966.419000	546.407227	-70.573471
19491.967340	16966.419000	545.164063	31.494667
19491.967340	16966.419000	543.919922	155.163208
19491.967340	16966.419000	542.675781	29.044498
19491.967340	16966.419000	541.431641	30.783083
19491.967340	16966.419000	540.186523	142.604507
19491.967340	16966.419000	538.941406	124.682487
19491.967340	16966.419000	537.696289	126.424103
19491.967340	16966.419000	536.451172	137.996124
19491.967340	16966.419000	535.205078	114.219643
19491.967340	16966.419000	533.959961	290.742676
19491.967340	16966.419000	532.712891	217.879425
19491.967340	16966.419000	531.466797	66.548279
19491.967340	16966.419000	530.219727	64.420700
19491.967340	16966.419000	528.972656	185.897430
19491.967340	16966.419000	527.725586	346.554962
19491.967340	16966.419000	526.478516	291.437531
19491.967340	16966.419000	525.230469	152.041519
19491.967340	16966.419000	523.982422	2.907938
19491.967340	16966.419000	522.734375	439.805420
19491.967340	16966.419000	521.485352	71.231071
19491.967340	16966.419000	520.236328	266.980591
19491.967340	16966.419000	518.987305	-103.357353
19491.967340	16966.419000	517.737305	109.964111
19491.967340	16966.419000	516.488281	53.036201
19491.967340	16966.419000	515.238281	131.175064
19491.967340	16966.419000	513.988281	185.792145
19491.967340	16966.419000	512.737305	357.758942
19491.967340	16966.419000	511.486328	171.700562
19491.967340	16966.419000	510.235352	312.287048
19491.967340	16966.419000	508.984375	370.683472
19491.967340	16966.419000	507.732422	550.228638
19491.967340	16966.419000	506.480469	403.313904
19491.967340	16966.419000	505.228516	379.535583
19491.967340	16966.419000	503.976563	553.042725
19491.967340	16966.419000	502.723633	634.655945
19491.967340	16966.419000	501.470703	725.969360
19491.967340	16966.419000	500.217773	645.420593
19491.967340	16966.419000	498.963867	586.341736
19491.967340	16966.419000	497.709961	775.071533
19491.967340	16966.419000	496.456055	589.102905
19491.967340	16966.419000	495.202148	812.777344
19491.967340	16966.419000	493.947266	1108.460327
19491.967340	16966.419000	492.692383	967.241150
19491.967340	16966.419000	491.437500	1028.750000
19491.967340	16966.419000	490.181641	1133.046997
19491.967340	16966.419000	488.926758	1032.656250
19491.967340	16966.419000	487.670898	1169.894897
19491.967340	16966.419000	486.414063	993.445129
19491.967340	16966.419000	485.158203	1196.689941
19491.967340	16966.419000	483.901367	1051.301514
19491.967340	16966.419000	482.644531	1300.992065
19491.967340	16966.419000	481.386719	1453.188599
19491.967340	16966.419000	480.128906	1463.203735
19491.967340	16966.419000	478.871094	1346.686401
19491.967340	16966.419000	477.613281	1315.675903
19491.967340	16966.419000	476.355469	1323.450684
19491.967340	16966.419000	475.096680	1607.119751
19491.967340	16966.419000	473.837891	1468.830200
19491.967340	16966.419000	472.578125	1627.738403
19491.967340	16966.419000	471.319336	1495.061890
19491.967340	16966.419000	470.059570	1674.975708
19491.967340	16966.419000	468.799805	1745.924194
19491.967340	16966.419000	467.539063	1630.317383
19491.967340	16966.419000	466.278320	1821.247681
19491.967340	16966.419000	465.017578	1839.221191
19491.967340	16966.419000	463.756836	1990.865479
19491.967340	16966.419000	462.495117	2091.819580
19491.967340	16966.419000	461.233398	1750.395142
19491.967340	16966.419000	459.971680	1695.846313
19491.967340	16966.419000	458.709961	2098.550537
19491.967340	16966.419000	457.447266	2107.449951
19491.967340	16966.419000	456.184570	2298.233643
19491.967340	16966.419000	454.921875	2463.504150
19491.967340	16966.419000	453.658203	2454.141357
19491.967340	16966.419000	452.394531	2611.028564
19491.967340	16966.419000	451.130859	2628.189209
19491.967340	16966.419000	449.867188	2559.893555
19491.967340	16966.419000	448.602539	2326.844727
19491.967340	16966.419000	447.337891	2470.822754
19491.967340	16966.419000	446.073242	2473.218506
19491.967340	16966.419000	444.807617	2132.996338
19491.967340	16966.419000	443.542969	2359.037109
19491.967340	16966.419000	442.276367	2410.640137
19491.967340	16966.419000	441.010742	2388.413330
19491.967340	16966.419000	439.744141	2506.836670
19491.967340	16966.419000	438.478516	2445.164795
19491.967340	16966.419000	437.210938	2419.775146
19491.967340	16966.419000	435.944336	2204.747314
19491.967340	16966.419000	434.676758	2427.549805
19491.967340	16966.419000	433.409180	2478.017822
19491.967340	16966.419000	432.141602	2211.532959
19491.967340	16966.419000	430.873047	2450.085449
19491.967340	16966.419000	429.604492	2414.135498
19491.967340	16966.419000	428.335938	2368.023438
19491.967340	16966.419000	427.067383	2456.327148
19491.967340	16966.419000	425.797852	2385.957031
19491.967340	16966.419000	424.528320	2376.688965
19491.967340	16966.419000	423.258789	2499.750244
19491.967340	16966.419000	421.988281	2446.829346
19491.967340	16966.419000	420.717773	2418.312988
19491.967340	16966.419000	419.447266	2329.450439
19491.967340	16966.419000	418.175781	2505.561523
19491.967340	16966.419000	416.905273	2515.382324
19491.967340	16966.419000	415.633789	2489.812500
19491.967340	16966.419000	414.362305	2698.182129
19491.967340	16966.419000	413.089844	2228.662598
19491.967340	16966.419000	411.817383	2381.549072
19491.967340	16966.419000	410.544922	2520.077148
19491.967340	16966.419000	409.272461	2332.861572
19491.967340	16966.419000	407.999023	2433.068359
19491.967340	16966.419000	406.725586	2553.452148
19491.967340	16966.419000	405.452148	2423.142822
19491.967340	16966.419000	404.177734	2614.527832
19491.967340	16966.419000	402.903320	2332.525879
19491.967340	16966.419000	401.628906	2533.349365
19491.967340	16966.419000	400.354492	2364.561279
19491.967340	16966.419000	399.079102	2513.244629
19491.967340	16966.419000	397.803711	2238.729004
19491.967340	16966.419000	396.528320	2406.218018
19491.967340	16966.419000	395.251953	2328.915039
19491.967340	16966.419000	393.976563	2265.799805
19491.967340	16966.419000	392.700195	1906.283447
19491.967340	16966.419000	391.422852	2068.742676
19491.967340	16966.419000	390.145508	2176.175781
19491.967340	16966.419000	388.869141	2065.812988
19491.967340	16966.419000	387.590820	2248.951904
19491.967340	16966.419000	386.313477	2308.094971
19491.967340	16966.419000	385.035156	2262.356445
19491.967340	16966.419000	383.756836	2134.767090
19491.967340	16966.419000	382.478516	1835.414307
19491.967340	16966.419000	381.199219	2140.958008
19491.967340	16966.419000	379.919922	1915.000366
19491.967340	16966.419000	378.640625	2165.493408
19491.967340	16966.419000	377.360352	1984.014771
19491.967340	16966.419000	376.080078	1959.500000
19491.967340	16966.419000	374.799805	1965.689209
19491.967340	16966.419000	373.519531	2042.634277
19491.967340	16966.419000	372.238281	1789.103149
19491.967340	16966.419000	370.957031	1969.127197
19491.967340	16966.419000	369.675781	1614.448608
19491.967340	16966.419000	368.394531	1698.811035
19491.967340	16966.419000	367.112305	1760.015991
19491.967340	16966.419000	365.830078	1561.500854
19491.967340	16966.419000	364.546875	1696.550171
19491.967340	16966.419000	363.264648	1405.996094
19491.967340	16966.419000	361.981445	1631.829224
19491.967340	16966.419000	360.698242	1317.663330
19491.967340	16966.419000	359.414063	1361.371704
19491.967340	16966.419000	358.129883	1534.073242
19491.967340	16966.419000	356.845703	1622.270264
19491.967340	16966.419000	355.561523	1519.301636
19491.967340	16966.419000	354.276367	1392.726074
19491.967340	16966.419000	352.991211	1413.899902
19491.967340	16966.419000	351.706055	1460.854248
19491.967340	16966.419000	350.420898	1215.724487
19491.967340	16966.419000	349.134766	1232.175415
19491.967340	16966.419000	347.848633	1287.510498
19491.967340	16966.419000	346.561523	1041.147217
19491.967340	16966.419000	345.275391	1059.961060
19491.967340	16966.419000	343.988281	1026.091919
19491.967340	16966.419000	342.700195	770.360168
19491.967340	16966.419000	341.413086	885.821655
19491.967340	16966.419000	340.125000	893.279541
19491.967340	16966.419000	338.836914	720.648193
19491.967340	16966.419000	337.548828	857.851624
19491.967340	16966.419000	336.259766	845.105225
19491.967340	16966.419000	334.970703	640.772217
19491.967340	16966.419000	333.681641	381.518738
19491.967340	16966.419000	332.391602	292.940063
19491.967340	16966.419000	331.101563	598.758972
19491.967340	16966.419000	329.811523	242.406815
19491.967340	16966.419000	328.521484	439.477478
19491.967340	16966.419000	327.230469	306.114838
19491.967340	16966.419000	325.939453	115.453835
19491.967340	16966.419000	324.648438	270.992188
19491.967340	16966.419000	323.356445	306.300690
19491.967340	16966.419000	322.064453	128.696915
19491.967340	16966.419000	320.772461	132.048904
19491.967340	16966.419000	319.480469	-15.130387
19491.967340	16966.419000	318.187500	84.445709
19491.967340	16966.419000	316.894531	-106.712440
19491.967340	16966.419000	315.601563	13.055541
19491.967340	16966.419000	314.307617	-133.573868
19491.967340	16966.419000	313.013672	-378.086365
19491.967340	16966.419000	311.719727	-438.844269
19491.967340	16966.419000	310.425781	-51.465553
19491.967340	16966.419000	309.130859	12.482319
19491.967340	16966.419000	307.835938	106.557480
19491.967340	16966.419000	306.541016	-1.699387
19491.967340	16966.419000	305.245117	70.881470
19491.967340	16966.419000	303.949219	-6.154324
19491.967340	16966.419000	302.653320	412.726318
19491.967340	16966.419000	301.356445	51.134396
19491.967340	16966.419000	300.060547	209.848969
19491.967340	16966.419000	298.763672	352.257080
