#X		#Y		#Wave		#Intensity
19423.215160	16876.971667	2000.043945	108.711533
19423.215160	16876.971667	1999.080078	4.229337
19423.215160	16876.971667	1998.116211	64.204109
19423.215160	16876.971667	1997.151367	-128.564651
19423.215160	16876.971667	1996.186523	43.006256
19423.215160	16876.971667	1995.222656	73.351509
19423.215160	16876.971667	1994.256836	-34.966576
19423.215160	16876.971667	1993.291992	5.369786
19423.215160	16876.971667	1992.327148	236.370483
19423.215160	16876.971667	1991.361328	39.077873
19423.215160	16876.971667	1990.395508	20.087013
19423.215160	16876.971667	1989.429688	194.143921
19423.215160	16876.971667	1988.463867	-104.374481
19423.215160	16876.971667	1987.497070	-11.928419
19423.215160	16876.971667	1986.531250	35.989697
19423.215160	16876.971667	1985.564453	-39.717258
19423.215160	16876.971667	1984.597656	126.900452
19423.215160	16876.971667	1983.630859	-35.263336
19423.215160	16876.971667	1982.664063	-254.188782
19423.215160	16876.971667	1981.696289	16.207321
19423.215160	16876.971667	1980.728516	207.466629
19423.215160	16876.971667	1979.761719	28.182571
19423.215160	16876.971667	1978.792969	165.070007
19423.215160	16876.971667	1977.825195	-14.114109
19423.215160	16876.971667	1976.857422	-99.418159
19423.215160	16876.971667	1975.888672	212.677933
19423.215160	16876.971667	1974.919922	78.028557
19423.215160	16876.971667	1973.951172	51.990906
19423.215160	16876.971667	1972.982422	-80.101204
19423.215160	16876.971667	1972.013672	110.935699
19423.215160	16876.971667	1971.043945	82.453941
19423.215160	16876.971667	1970.075195	110.683212
19423.215160	16876.971667	1969.105469	25.522680
19423.215160	16876.971667	1968.135742	26.646320
19423.215160	16876.971667	1967.165039	49.947639
19423.215160	16876.971667	1966.195313	171.773651
19423.215160	16876.971667	1965.224609	175.329346
19423.215160	16876.971667	1964.253906	82.840584
19423.215160	16876.971667	1963.283203	19.925747
19423.215160	16876.971667	1962.312500	-30.661995
19423.215160	16876.971667	1961.341797	68.895012
19423.215160	16876.971667	1960.370117	30.610600
19423.215160	16876.971667	1959.399414	-34.732376
19423.215160	16876.971667	1958.427734	126.246017
19423.215160	16876.971667	1957.455078	129.760986
19423.215160	16876.971667	1956.483398	-112.629074
19423.215160	16876.971667	1955.511719	-32.880909
19423.215160	16876.971667	1954.539063	147.607300
19423.215160	16876.971667	1953.566406	-33.239941
19423.215160	16876.971667	1952.593750	292.126740
19423.215160	16876.971667	1951.621094	288.173706
19423.215160	16876.971667	1950.647461	247.371017
19423.215160	16876.971667	1949.674805	218.846695
19423.215160	16876.971667	1948.701172	70.015892
19423.215160	16876.971667	1947.727539	210.893158
19423.215160	16876.971667	1946.753906	108.725273
19423.215160	16876.971667	1945.780273	67.927933
19423.215160	16876.971667	1944.805664	115.458534
19423.215160	16876.971667	1943.831055	185.032959
19423.215160	16876.971667	1942.856445	117.227127
19423.215160	16876.971667	1941.881836	211.267395
19423.215160	16876.971667	1940.907227	-60.030048
19423.215160	16876.971667	1939.932617	70.744766
19423.215160	16876.971667	1938.957031	127.936935
19423.215160	16876.971667	1937.981445	305.154114
19423.215160	16876.971667	1937.005859	-29.712214
19423.215160	16876.971667	1936.030273	-53.406338
19423.215160	16876.971667	1935.054688	148.186859
19423.215160	16876.971667	1934.078125	168.509155
19423.215160	16876.971667	1933.101563	149.641006
19423.215160	16876.971667	1932.125000	-89.510445
19423.215160	16876.971667	1931.148438	67.830147
19423.215160	16876.971667	1930.171875	237.328720
19423.215160	16876.971667	1929.194336	74.078400
19423.215160	16876.971667	1928.217773	11.140860
19423.215160	16876.971667	1927.240234	-44.450958
19423.215160	16876.971667	1926.262695	-144.044128
19423.215160	16876.971667	1925.284180	105.920250
19423.215160	16876.971667	1924.306641	-35.243034
19423.215160	16876.971667	1923.328125	45.980293
19423.215160	16876.971667	1922.350586	102.726410
19423.215160	16876.971667	1921.372070	-13.979726
19423.215160	16876.971667	1920.392578	67.146042
19423.215160	16876.971667	1919.414063	-25.127178
19423.215160	16876.971667	1918.434570	82.790916
19423.215160	16876.971667	1917.456055	-21.687901
19423.215160	16876.971667	1916.476563	137.399658
19423.215160	16876.971667	1915.497070	162.226318
19423.215160	16876.971667	1914.516602	52.867443
19423.215160	16876.971667	1913.537109	2.064062
19423.215160	16876.971667	1912.556641	21.977591
19423.215160	16876.971667	1911.576172	36.991768
19423.215160	16876.971667	1910.595703	142.170151
19423.215160	16876.971667	1909.615234	140.065536
19423.215160	16876.971667	1908.633789	40.484665
19423.215160	16876.971667	1907.653320	52.984207
19423.215160	16876.971667	1906.671875	155.583801
19423.215160	16876.971667	1905.690430	43.832317
19423.215160	16876.971667	1904.708984	-26.502558
19423.215160	16876.971667	1903.727539	29.755032
19423.215160	16876.971667	1902.745117	12.964471
19423.215160	16876.971667	1901.762695	3.463780
19423.215160	16876.971667	1900.780273	142.358521
19423.215160	16876.971667	1899.797852	-22.870771
19423.215160	16876.971667	1898.815430	-5.652701
19423.215160	16876.971667	1897.832031	218.226517
19423.215160	16876.971667	1896.849609	23.856142
19423.215160	16876.971667	1895.866211	-10.031655
19423.215160	16876.971667	1894.882813	55.715706
19423.215160	16876.971667	1893.898438	104.416458
19423.215160	16876.971667	1892.915039	119.073036
19423.215160	16876.971667	1891.930664	-172.320770
19423.215160	16876.971667	1890.947266	-43.514427
19423.215160	16876.971667	1889.962891	-36.164604
19423.215160	16876.971667	1888.977539	5.153535
19423.215160	16876.971667	1887.993164	92.552917
19423.215160	16876.971667	1887.007813	-111.278503
19423.215160	16876.971667	1886.023438	-62.736523
19423.215160	16876.971667	1885.038086	46.415573
19423.215160	16876.971667	1884.051758	-77.303642
19423.215160	16876.971667	1883.066406	14.808736
19423.215160	16876.971667	1882.081055	85.053192
19423.215160	16876.971667	1881.094727	-7.137021
19423.215160	16876.971667	1880.108398	126.066628
19423.215160	16876.971667	1879.122070	181.672974
19423.215160	16876.971667	1878.135742	-0.157783
19423.215160	16876.971667	1877.148438	215.277054
19423.215160	16876.971667	1876.162109	-12.529408
19423.215160	16876.971667	1875.174805	110.796944
19423.215160	16876.971667	1874.187500	120.291740
19423.215160	16876.971667	1873.199219	100.728905
19423.215160	16876.971667	1872.211914	-102.743088
19423.215160	16876.971667	1871.223633	27.710682
19423.215160	16876.971667	1870.236328	119.397919
19423.215160	16876.971667	1869.248047	-142.044769
19423.215160	16876.971667	1868.258789	242.184326
19423.215160	16876.971667	1867.270508	183.855881
19423.215160	16876.971667	1866.282227	123.118713
19423.215160	16876.971667	1865.292969	161.470245
19423.215160	16876.971667	1864.303711	156.302658
19423.215160	16876.971667	1863.314453	-68.702461
19423.215160	16876.971667	1862.324219	114.534294
19423.215160	16876.971667	1861.334961	-35.549290
19423.215160	16876.971667	1860.344727	116.197754
19423.215160	16876.971667	1859.354492	91.662758
19423.215160	16876.971667	1858.364258	88.842743
19423.215160	16876.971667	1857.374023	-12.921521
19423.215160	16876.971667	1856.383789	184.487091
19423.215160	16876.971667	1855.392578	389.043304
19423.215160	16876.971667	1854.401367	161.834747
19423.215160	16876.971667	1853.410156	74.541985
19423.215160	16876.971667	1852.418945	83.694221
19423.215160	16876.971667	1851.426758	153.084503
19423.215160	16876.971667	1850.435547	215.203644
19423.215160	16876.971667	1849.443359	79.720764
19423.215160	16876.971667	1848.451172	4.494997
19423.215160	16876.971667	1847.458984	37.660019
19423.215160	16876.971667	1846.466797	193.603424
19423.215160	16876.971667	1845.473633	67.794868
19423.215160	16876.971667	1844.480469	230.864044
19423.215160	16876.971667	1843.487305	-94.683327
19423.215160	16876.971667	1842.494141	32.230755
19423.215160	16876.971667	1841.500977	-91.111618
19423.215160	16876.971667	1840.506836	16.479828
19423.215160	16876.971667	1839.513672	32.631924
19423.215160	16876.971667	1838.519531	219.469467
19423.215160	16876.971667	1837.525391	223.524551
19423.215160	16876.971667	1836.530273	4.042045
19423.215160	16876.971667	1835.536133	0.893046
19423.215160	16876.971667	1834.541016	52.986374
19423.215160	16876.971667	1833.545898	220.342453
19423.215160	16876.971667	1832.550781	63.397633
19423.215160	16876.971667	1831.555664	-14.266234
19423.215160	16876.971667	1830.560547	167.357498
19423.215160	16876.971667	1829.564453	238.482315
19423.215160	16876.971667	1828.568359	112.778122
19423.215160	16876.971667	1827.572266	126.264236
19423.215160	16876.971667	1826.576172	142.126022
19423.215160	16876.971667	1825.580078	167.555649
19423.215160	16876.971667	1824.583008	180.967651
19423.215160	16876.971667	1823.585938	247.100372
19423.215160	16876.971667	1822.588867	61.492649
19423.215160	16876.971667	1821.591797	180.309311
19423.215160	16876.971667	1820.594727	40.270836
19423.215160	16876.971667	1819.596680	99.112930
19423.215160	16876.971667	1818.599609	-67.246864
19423.215160	16876.971667	1817.601563	223.849579
19423.215160	16876.971667	1816.603516	-16.739166
19423.215160	16876.971667	1815.604492	204.771332
19423.215160	16876.971667	1814.606445	126.991142
19423.215160	16876.971667	1813.607422	-115.901260
19423.215160	16876.971667	1812.608398	-26.156628
19423.215160	16876.971667	1811.609375	34.827335
19423.215160	16876.971667	1810.610352	301.447845
19423.215160	16876.971667	1809.610352	-41.816498
19423.215160	16876.971667	1808.611328	119.477661
19423.215160	16876.971667	1807.611328	5.800488
19423.215160	16876.971667	1806.611328	-12.262705
19423.215160	16876.971667	1805.610352	29.391603
19423.215160	16876.971667	1804.610352	85.339737
19423.215160	16876.971667	1803.609375	224.838776
19423.215160	16876.971667	1802.608398	175.603989
19423.215160	16876.971667	1801.607422	78.609749
19423.215160	16876.971667	1800.606445	117.694618
19423.215160	16876.971667	1799.605469	192.538025
19423.215160	16876.971667	1798.603516	-35.726425
19423.215160	16876.971667	1797.601563	-61.138214
19423.215160	16876.971667	1796.599609	111.416634
19423.215160	16876.971667	1795.597656	64.468109
19423.215160	16876.971667	1794.595703	198.727844
19423.215160	16876.971667	1793.592773	56.365459
19423.215160	16876.971667	1792.589844	14.137478
19423.215160	16876.971667	1791.587891	-11.421137
19423.215160	16876.971667	1790.583984	-58.443748
19423.215160	16876.971667	1789.581055	-93.566116
19423.215160	16876.971667	1788.577148	180.922150
19423.215160	16876.971667	1787.574219	257.628510
19423.215160	16876.971667	1786.570313	134.285690
19423.215160	16876.971667	1785.566406	63.328159
19423.215160	16876.971667	1784.561523	-17.153841
19423.215160	16876.971667	1783.557617	-26.250864
19423.215160	16876.971667	1782.552734	-75.819275
19423.215160	16876.971667	1781.547852	-63.558292
19423.215160	16876.971667	1780.542969	-20.418392
19423.215160	16876.971667	1779.538086	13.162641
19423.215160	16876.971667	1778.532227	60.961395
19423.215160	16876.971667	1777.527344	6.508775
19423.215160	16876.971667	1776.521484	125.514458
19423.215160	16876.971667	1775.515625	-19.281128
19423.215160	16876.971667	1774.508789	194.632858
19423.215160	16876.971667	1773.502930	-38.062042
19423.215160	16876.971667	1772.496094	-21.379049
19423.215160	16876.971667	1771.489258	135.333527
19423.215160	16876.971667	1770.482422	132.918182
19423.215160	16876.971667	1769.475586	83.005508
19423.215160	16876.971667	1768.467773	-95.051079
19423.215160	16876.971667	1767.460938	165.793655
19423.215160	16876.971667	1766.453125	-76.322533
19423.215160	16876.971667	1765.445313	108.463188
19423.215160	16876.971667	1764.437500	172.224777
19423.215160	16876.971667	1763.428711	-81.717705
19423.215160	16876.971667	1762.420898	152.622726
19423.215160	16876.971667	1761.412109	107.226273
19423.215160	16876.971667	1760.403320	66.547737
19423.215160	16876.971667	1759.393555	295.872864
19423.215160	16876.971667	1758.384766	110.636230
19423.215160	16876.971667	1757.375000	34.348007
19423.215160	16876.971667	1756.366211	14.865750
19423.215160	16876.971667	1755.356445	241.504196
19423.215160	16876.971667	1754.345703	58.626282
19423.215160	16876.971667	1753.335938	107.643501
19423.215160	16876.971667	1752.325195	-65.757545
19423.215160	16876.971667	1751.315430	115.627754
19423.215160	16876.971667	1750.304688	1.325702
19423.215160	16876.971667	1749.292969	182.544937
19423.215160	16876.971667	1748.282227	-73.630760
19423.215160	16876.971667	1747.270508	-20.164591
19423.215160	16876.971667	1746.259766	35.603565
19423.215160	16876.971667	1745.248047	-97.681236
19423.215160	16876.971667	1744.235352	-49.092552
19423.215160	16876.971667	1743.223633	-28.899725
19423.215160	16876.971667	1742.211914	-22.923920
19423.215160	16876.971667	1741.199219	-90.172020
19423.215160	16876.971667	1740.186523	3.049903
19423.215160	16876.971667	1739.173828	115.070763
19423.215160	16876.971667	1738.160156	52.421661
19423.215160	16876.971667	1737.147461	10.984170
19423.215160	16876.971667	1736.133789	7.249342
19423.215160	16876.971667	1735.120117	114.291206
19423.215160	16876.971667	1734.106445	101.019768
19423.215160	16876.971667	1733.091797	-105.562386
19423.215160	16876.971667	1732.078125	39.010735
19423.215160	16876.971667	1731.063477	56.254219
19423.215160	16876.971667	1730.048828	-103.222519
19423.215160	16876.971667	1729.034180	-78.983093
19423.215160	16876.971667	1728.019531	70.001663
19423.215160	16876.971667	1727.003906	89.398201
19423.215160	16876.971667	1725.988281	16.943073
19423.215160	16876.971667	1724.972656	-8.463446
19423.215160	16876.971667	1723.957031	67.269363
19423.215160	16876.971667	1722.941406	147.631622
19423.215160	16876.971667	1721.924805	32.699768
19423.215160	16876.971667	1720.909180	4.774738
19423.215160	16876.971667	1719.892578	122.578758
19423.215160	16876.971667	1718.875977	103.955177
19423.215160	16876.971667	1717.858398	3.031023
19423.215160	16876.971667	1716.841797	7.841032
19423.215160	16876.971667	1715.824219	0.853196
19423.215160	16876.971667	1714.806641	76.031166
19423.215160	16876.971667	1713.789063	19.622946
19423.215160	16876.971667	1712.770508	214.416519
19423.215160	16876.971667	1711.752930	12.364080
19423.215160	16876.971667	1710.734375	-30.060932
19423.215160	16876.971667	1709.715820	-18.545980
19423.215160	16876.971667	1708.697266	105.532944
19423.215160	16876.971667	1707.678711	-5.053656
19423.215160	16876.971667	1706.659180	74.317924
19423.215160	16876.971667	1705.640625	24.650223
19423.215160	16876.971667	1704.621094	141.399612
19423.215160	16876.971667	1703.600586	82.261307
19423.215160	16876.971667	1702.581055	175.425613
19423.215160	16876.971667	1701.561523	125.584549
19423.215160	16876.971667	1700.541016	38.230740
19423.215160	16876.971667	1699.520508	285.782684
19423.215160	16876.971667	1698.500000	-17.095472
19423.215160	16876.971667	1697.478516	220.910034
19423.215160	16876.971667	1696.458008	276.201050
19423.215160	16876.971667	1695.436523	345.461761
19423.215160	16876.971667	1694.415039	178.322784
19423.215160	16876.971667	1693.393555	142.208069
19423.215160	16876.971667	1692.372070	159.856979
19423.215160	16876.971667	1691.349609	130.676819
19423.215160	16876.971667	1690.327148	269.801422
19423.215160	16876.971667	1689.304688	327.008209
19423.215160	16876.971667	1688.282227	255.604004
19423.215160	16876.971667	1687.259766	46.314461
19423.215160	16876.971667	1686.236328	108.060448
19423.215160	16876.971667	1685.213867	302.881531
19423.215160	16876.971667	1684.190430	210.327209
19423.215160	16876.971667	1683.166016	222.830139
19423.215160	16876.971667	1682.142578	232.950668
19423.215160	16876.971667	1681.119141	252.357635
19423.215160	16876.971667	1680.094727	241.371094
19423.215160	16876.971667	1679.070313	351.664429
19423.215160	16876.971667	1678.045898	263.594299
19423.215160	16876.971667	1677.020508	247.805817
19423.215160	16876.971667	1675.996094	481.480988
19423.215160	16876.971667	1674.970703	388.633484
19423.215160	16876.971667	1673.945313	81.337357
19423.215160	16876.971667	1672.919922	291.466858
19423.215160	16876.971667	1671.893555	389.628845
19423.215160	16876.971667	1670.868164	315.328064
19423.215160	16876.971667	1669.841797	282.931274
19423.215160	16876.971667	1668.815430	436.791138
19423.215160	16876.971667	1667.789063	334.450867
19423.215160	16876.971667	1666.761719	439.269135
19423.215160	16876.971667	1665.735352	413.680756
19423.215160	16876.971667	1664.708008	448.552216
19423.215160	16876.971667	1663.680664	415.903351
19423.215160	16876.971667	1662.653320	494.868195
19423.215160	16876.971667	1661.625000	559.803406
19423.215160	16876.971667	1660.597656	492.151001
19423.215160	16876.971667	1659.569336	540.705811
19423.215160	16876.971667	1658.541016	496.236908
19423.215160	16876.971667	1657.512695	556.309143
19423.215160	16876.971667	1656.483398	558.232056
19423.215160	16876.971667	1655.455078	690.194153
19423.215160	16876.971667	1654.425781	571.249756
19423.215160	16876.971667	1653.396484	510.358551
19423.215160	16876.971667	1652.366211	486.588837
19423.215160	16876.971667	1651.336914	838.794495
19423.215160	16876.971667	1650.306641	645.494385
19423.215160	16876.971667	1649.276367	737.601501
19423.215160	16876.971667	1648.246094	551.280396
19423.215160	16876.971667	1647.215820	712.870239
19423.215160	16876.971667	1646.185547	688.862793
19423.215160	16876.971667	1645.154297	720.460754
19423.215160	16876.971667	1644.123047	670.886963
19423.215160	16876.971667	1643.091797	646.787415
19423.215160	16876.971667	1642.060547	923.864685
19423.215160	16876.971667	1641.028320	834.788208
19423.215160	16876.971667	1639.997070	678.552490
19423.215160	16876.971667	1638.964844	1034.083862
19423.215160	16876.971667	1637.931641	1236.637573
19423.215160	16876.971667	1636.899414	892.819519
19423.215160	16876.971667	1635.867188	808.296326
19423.215160	16876.971667	1634.833984	1038.444458
19423.215160	16876.971667	1633.800781	1016.317932
19423.215160	16876.971667	1632.767578	982.602966
19423.215160	16876.971667	1631.734375	1048.306885
19423.215160	16876.971667	1630.700195	1111.636963
19423.215160	16876.971667	1629.666016	1070.892944
19423.215160	16876.971667	1628.631836	1018.579956
19423.215160	16876.971667	1627.597656	1028.645996
19423.215160	16876.971667	1626.563477	909.309204
19423.215160	16876.971667	1625.528320	884.685303
19423.215160	16876.971667	1624.493164	938.560059
19423.215160	16876.971667	1623.458008	1084.741821
19423.215160	16876.971667	1622.422852	1136.196899
19423.215160	16876.971667	1621.387695	1099.903320
19423.215160	16876.971667	1620.351563	1178.968872
19423.215160	16876.971667	1619.315430	1024.965698
19423.215160	16876.971667	1618.279297	1131.646362
19423.215160	16876.971667	1617.243164	1088.362061
19423.215160	16876.971667	1616.207031	1171.886841
19423.215160	16876.971667	1615.169922	1285.318481
19423.215160	16876.971667	1614.132813	1311.102295
19423.215160	16876.971667	1613.095703	1175.549683
19423.215160	16876.971667	1612.058594	1189.785034
19423.215160	16876.971667	1611.020508	1141.794922
19423.215160	16876.971667	1609.983398	1365.567383
19423.215160	16876.971667	1608.945313	1253.053101
19423.215160	16876.971667	1607.907227	1377.683838
19423.215160	16876.971667	1606.868164	1288.186401
19423.215160	16876.971667	1605.830078	1053.737305
19423.215160	16876.971667	1604.791016	1035.631104
19423.215160	16876.971667	1603.751953	1153.235962
19423.215160	16876.971667	1602.712891	1135.088013
19423.215160	16876.971667	1601.673828	1142.227783
19423.215160	16876.971667	1600.633789	1084.972656
19423.215160	16876.971667	1599.594727	1179.438110
19423.215160	16876.971667	1598.554688	1000.377258
19423.215160	16876.971667	1597.513672	1028.155029
19423.215160	16876.971667	1596.473633	1053.622192
19423.215160	16876.971667	1595.433594	922.891113
19423.215160	16876.971667	1594.392578	1017.233154
19423.215160	16876.971667	1593.351563	1079.388062
19423.215160	16876.971667	1592.310547	1125.443481
19423.215160	16876.971667	1591.268555	994.756897
19423.215160	16876.971667	1590.227539	1240.420166
19423.215160	16876.971667	1589.185547	1075.340942
19423.215160	16876.971667	1588.143555	1096.102539
19423.215160	16876.971667	1587.100586	1025.120239
19423.215160	16876.971667	1586.058594	1185.732910
19423.215160	16876.971667	1585.015625	1178.938965
19423.215160	16876.971667	1583.972656	1300.488037
19423.215160	16876.971667	1582.929688	1142.442139
19423.215160	16876.971667	1581.886719	1039.440918
19423.215160	16876.971667	1580.843750	1335.021118
19423.215160	16876.971667	1579.799805	1277.817749
19423.215160	16876.971667	1578.755859	1248.114258
19423.215160	16876.971667	1577.711914	1165.775879
19423.215160	16876.971667	1576.666992	1250.539917
19423.215160	16876.971667	1575.623047	1291.806030
19423.215160	16876.971667	1574.578125	1101.989502
19423.215160	16876.971667	1573.533203	1362.856567
19423.215160	16876.971667	1572.488281	1179.975342
19423.215160	16876.971667	1571.443359	1141.217651
19423.215160	16876.971667	1570.397461	1267.067139
19423.215160	16876.971667	1569.351563	1235.175659
19423.215160	16876.971667	1568.305664	1258.149414
19423.215160	16876.971667	1567.259766	1265.131592
19423.215160	16876.971667	1566.213867	1315.522583
19423.215160	16876.971667	1565.166992	1162.647827
19423.215160	16876.971667	1564.120117	1176.525269
19423.215160	16876.971667	1563.073242	1117.361816
19423.215160	16876.971667	1562.026367	903.033020
19423.215160	16876.971667	1560.978516	1149.751343
19423.215160	16876.971667	1559.930664	1127.172363
19423.215160	16876.971667	1558.883789	828.619446
19423.215160	16876.971667	1557.834961	1027.359863
19423.215160	16876.971667	1556.787109	811.059509
19423.215160	16876.971667	1555.739258	943.659424
19423.215160	16876.971667	1554.690430	659.117004
19423.215160	16876.971667	1553.641602	693.742004
19423.215160	16876.971667	1552.592773	778.499084
19423.215160	16876.971667	1551.542969	870.072449
19423.215160	16876.971667	1550.494141	809.051270
19423.215160	16876.971667	1549.444336	659.268860
19423.215160	16876.971667	1548.394531	714.461609
19423.215160	16876.971667	1547.344727	694.547363
19423.215160	16876.971667	1546.293945	658.731873
19423.215160	16876.971667	1545.244141	679.846252
19423.215160	16876.971667	1544.193359	725.996643
19423.215160	16876.971667	1543.142578	560.646667
19423.215160	16876.971667	1542.090820	547.735779
19423.215160	16876.971667	1541.040039	589.429810
19423.215160	16876.971667	1539.988281	524.303711
19423.215160	16876.971667	1538.936523	538.775330
19423.215160	16876.971667	1537.884766	414.676544
19423.215160	16876.971667	1536.833008	436.047180
19423.215160	16876.971667	1535.780273	491.506378
19423.215160	16876.971667	1534.727539	705.931763
19423.215160	16876.971667	1533.674805	345.926666
19423.215160	16876.971667	1532.622070	573.989868
19423.215160	16876.971667	1531.569336	559.176941
19423.215160	16876.971667	1530.515625	442.300507
19423.215160	16876.971667	1529.461914	618.147217
19423.215160	16876.971667	1528.408203	446.954071
19423.215160	16876.971667	1527.354492	400.589142
19423.215160	16876.971667	1526.299805	435.896484
19423.215160	16876.971667	1525.246094	466.705902
19423.215160	16876.971667	1524.191406	506.607178
19423.215160	16876.971667	1523.136719	401.525330
19423.215160	16876.971667	1522.081055	414.325165
19423.215160	16876.971667	1521.026367	300.337036
19423.215160	16876.971667	1519.970703	73.212662
19423.215160	16876.971667	1518.915039	276.389557
19423.215160	16876.971667	1517.859375	312.031525
19423.215160	16876.971667	1516.802734	216.443054
19423.215160	16876.971667	1515.747070	152.625900
19423.215160	16876.971667	1514.690430	308.316223
19423.215160	16876.971667	1513.633789	0.332111
19423.215160	16876.971667	1512.577148	183.231949
19423.215160	16876.971667	1511.519531	78.976662
19423.215160	16876.971667	1510.461914	302.580505
19423.215160	16876.971667	1509.405273	24.438364
19423.215160	16876.971667	1508.346680	46.971977
19423.215160	16876.971667	1507.289063	33.412403
19423.215160	16876.971667	1506.231445	53.795872
19423.215160	16876.971667	1505.172852	128.422501
19423.215160	16876.971667	1504.114258	162.438034
19423.215160	16876.971667	1503.055664	128.781647
19423.215160	16876.971667	1501.996094	-168.856750
19423.215160	16876.971667	1500.937500	-35.338284
19423.215160	16876.971667	1499.877930	75.625458
19423.215160	16876.971667	1498.818359	-25.409952
19423.215160	16876.971667	1497.757813	65.335480
19423.215160	16876.971667	1496.698242	-22.002806
19423.215160	16876.971667	1495.637695	-48.382038
19423.215160	16876.971667	1494.577148	-49.894363
19423.215160	16876.971667	1493.516602	-94.151436
19423.215160	16876.971667	1492.456055	-9.913347
19423.215160	16876.971667	1491.394531	-90.068703
19423.215160	16876.971667	1490.333008	-102.564407
19423.215160	16876.971667	1489.271484	-313.116638
19423.215160	16876.971667	1488.209961	100.020355
19423.215160	16876.971667	1487.148438	60.695812
19423.215160	16876.971667	1486.085938	106.959923
19423.215160	16876.971667	1485.023438	-40.195137
19423.215160	16876.971667	1483.960938	78.191200
19423.215160	16876.971667	1482.898438	61.675182
19423.215160	16876.971667	1481.834961	81.211548
19423.215160	16876.971667	1480.772461	31.136789
19423.215160	16876.971667	1479.708984	-99.761253
19423.215160	16876.971667	1478.644531	45.853168
19423.215160	16876.971667	1477.581055	-64.602844
19423.215160	16876.971667	1476.517578	-82.839485
19423.215160	16876.971667	1475.453125	-80.832298
19423.215160	16876.971667	1474.388672	-141.532257
19423.215160	16876.971667	1473.323242	-18.130575
19423.215160	16876.971667	1472.258789	71.585960
19423.215160	16876.971667	1471.193359	-13.611277
19423.215160	16876.971667	1470.127930	-64.892326
19423.215160	16876.971667	1469.062500	65.444496
19423.215160	16876.971667	1467.997070	-71.022202
19423.215160	16876.971667	1466.930664	88.563644
19423.215160	16876.971667	1465.865234	82.356689
19423.215160	16876.971667	1464.798828	203.875244
19423.215160	16876.971667	1463.731445	119.253830
19423.215160	16876.971667	1462.665039	216.215912
19423.215160	16876.971667	1461.597656	114.369164
19423.215160	16876.971667	1460.530273	231.618942
19423.215160	16876.971667	1459.462891	263.650269
19423.215160	16876.971667	1458.395508	103.975258
19423.215160	16876.971667	1457.327148	68.933052
19423.215160	16876.971667	1456.259766	132.926819
19423.215160	16876.971667	1455.191406	319.508453
19423.215160	16876.971667	1454.123047	95.835754
19423.215160	16876.971667	1453.053711	264.087982
19423.215160	16876.971667	1451.985352	152.067963
19423.215160	16876.971667	1450.916016	45.084126
19423.215160	16876.971667	1449.846680	331.907166
19423.215160	16876.971667	1448.776367	133.207855
19423.215160	16876.971667	1447.707031	39.263935
19423.215160	16876.971667	1446.636719	46.319988
19423.215160	16876.971667	1445.566406	137.185410
19423.215160	16876.971667	1444.496094	50.761871
19423.215160	16876.971667	1443.425781	88.545784
19423.215160	16876.971667	1442.354492	68.386101
19423.215160	16876.971667	1441.283203	125.612350
19423.215160	16876.971667	1440.211914	-13.560336
19423.215160	16876.971667	1439.140625	149.309708
19423.215160	16876.971667	1438.069336	-75.806557
19423.215160	16876.971667	1436.997070	-35.496300
19423.215160	16876.971667	1435.924805	153.626160
19423.215160	16876.971667	1434.852539	-177.996536
19423.215160	16876.971667	1433.780273	29.612366
19423.215160	16876.971667	1432.707031	-0.017776
19423.215160	16876.971667	1431.633789	62.886044
19423.215160	16876.971667	1430.560547	112.485153
19423.215160	16876.971667	1429.487305	-51.580612
19423.215160	16876.971667	1428.413086	42.805313
19423.215160	16876.971667	1427.339844	39.528557
19423.215160	16876.971667	1426.265625	18.834848
19423.215160	16876.971667	1425.191406	12.641146
19423.215160	16876.971667	1424.116211	-46.045044
19423.215160	16876.971667	1423.041992	-99.644501
19423.215160	16876.971667	1421.966797	-182.608093
19423.215160	16876.971667	1420.891602	-187.857162
19423.215160	16876.971667	1419.816406	10.538105
19423.215160	16876.971667	1418.740234	-198.268906
19423.215160	16876.971667	1417.665039	6.205379
19423.215160	16876.971667	1416.588867	93.379082
19423.215160	16876.971667	1415.512695	88.959297
19423.215160	16876.971667	1414.435547	99.615372
19423.215160	16876.971667	1413.359375	74.400414
19423.215160	16876.971667	1412.282227	120.901215
19423.215160	16876.971667	1411.205078	83.718018
19423.215160	16876.971667	1410.127930	-160.573013
19423.215160	16876.971667	1409.049805	188.879532
19423.215160	16876.971667	1407.972656	104.146347
19423.215160	16876.971667	1406.894531	73.661766
19423.215160	16876.971667	1405.816406	214.600723
19423.215160	16876.971667	1404.737305	193.492645
19423.215160	16876.971667	1403.659180	166.660446
19423.215160	16876.971667	1402.580078	115.945343
19423.215160	16876.971667	1401.500977	90.998444
19423.215160	16876.971667	1400.421875	91.776688
19423.215160	16876.971667	1399.341797	146.359741
19423.215160	16876.971667	1398.262695	-59.867008
19423.215160	16876.971667	1397.182617	143.535233
19423.215160	16876.971667	1396.102539	1.652586
19423.215160	16876.971667	1395.021484	-41.684963
19423.215160	16876.971667	1393.941406	45.140629
19423.215160	16876.971667	1392.860352	0.802206
19423.215160	16876.971667	1391.779297	109.953873
19423.215160	16876.971667	1390.698242	124.028061
19423.215160	16876.971667	1389.616211	32.465496
19423.215160	16876.971667	1388.535156	-76.450699
19423.215160	16876.971667	1387.453125	-6.010715
19423.215160	16876.971667	1386.371094	121.145111
19423.215160	16876.971667	1385.288086	-63.150585
19423.215160	16876.971667	1384.206055	51.881638
19423.215160	16876.971667	1383.123047	-4.508678
19423.215160	16876.971667	1382.040039	-33.493515
19423.215160	16876.971667	1380.957031	-50.665916
19423.215160	16876.971667	1379.873047	87.266121
19423.215160	16876.971667	1378.789063	193.019958
19423.215160	16876.971667	1377.705078	81.576767
19423.215160	16876.971667	1376.621094	337.811218
19423.215160	16876.971667	1375.537109	277.099976
19423.215160	16876.971667	1374.452148	150.259781
19423.215160	16876.971667	1373.367188	147.724365
19423.215160	16876.971667	1372.282227	313.307831
19423.215160	16876.971667	1371.197266	87.526398
19423.215160	16876.971667	1370.112305	40.809406
19423.215160	16876.971667	1369.026367	207.075577
19423.215160	16876.971667	1367.940430	149.856766
19423.215160	16876.971667	1366.854492	68.359596
19423.215160	16876.971667	1365.767578	3.670995
19423.215160	16876.971667	1364.681641	210.727295
19423.215160	16876.971667	1363.594727	16.938169
19423.215160	16876.971667	1362.507813	244.692413
19423.215160	16876.971667	1361.419922	269.569397
19423.215160	16876.971667	1360.333008	-5.714905
19423.215160	16876.971667	1359.245117	98.571030
19423.215160	16876.971667	1358.157227	257.862518
19423.215160	16876.971667	1357.069336	67.534088
19423.215160	16876.971667	1355.981445	31.547152
19423.215160	16876.971667	1354.892578	6.945398
19423.215160	16876.971667	1353.803711	154.122757
19423.215160	16876.971667	1352.714844	31.622665
19423.215160	16876.971667	1351.625000	47.952873
19423.215160	16876.971667	1350.536133	33.190090
19423.215160	16876.971667	1349.446289	1.508633
19423.215160	16876.971667	1348.356445	174.742416
19423.215160	16876.971667	1347.266602	142.327423
19423.215160	16876.971667	1346.175781	108.527580
19423.215160	16876.971667	1345.085938	61.206882
19423.215160	16876.971667	1343.995117	44.002277
19423.215160	16876.971667	1342.903320	77.068657
19423.215160	16876.971667	1341.812500	52.565430
19423.215160	16876.971667	1340.720703	91.300850
19423.215160	16876.971667	1339.629883	56.814888
19423.215160	16876.971667	1338.538086	39.553764
19423.215160	16876.971667	1337.445313	186.891068
19423.215160	16876.971667	1336.353516	241.318466
19423.215160	16876.971667	1335.260742	69.730804
19423.215160	16876.971667	1334.167969	-38.775372
19423.215160	16876.971667	1333.075195	21.668394
19423.215160	16876.971667	1331.981445	146.533905
19423.215160	16876.971667	1330.888672	-14.258227
19423.215160	16876.971667	1329.794922	-93.367180
19423.215160	16876.971667	1328.701172	-66.938995
19423.215160	16876.971667	1327.606445	57.298161
19423.215160	16876.971667	1326.512695	143.105164
19423.215160	16876.971667	1325.417969	255.858475
19423.215160	16876.971667	1324.323242	197.402985
19423.215160	16876.971667	1323.227539	52.187508
19423.215160	16876.971667	1322.132813	106.432327
19423.215160	16876.971667	1321.037109	79.512451
19423.215160	16876.971667	1319.941406	134.309555
19423.215160	16876.971667	1318.845703	187.231094
19423.215160	16876.971667	1317.750000	-37.603615
19423.215160	16876.971667	1316.653320	12.547544
19423.215160	16876.971667	1315.556641	79.797440
19423.215160	16876.971667	1314.459961	232.439209
19423.215160	16876.971667	1313.363281	81.750366
19423.215160	16876.971667	1312.265625	55.979080
19423.215160	16876.971667	1311.167969	-11.898757
19423.215160	16876.971667	1310.070313	17.252743
19423.215160	16876.971667	1308.972656	146.323364
19423.215160	16876.971667	1307.874023	179.858353
19423.215160	16876.971667	1306.776367	-6.754769
19423.215160	16876.971667	1305.677734	42.370262
19423.215160	16876.971667	1304.579102	-2.672860
19423.215160	16876.971667	1303.479492	-31.415865
19423.215160	16876.971667	1302.380859	-76.039055
19423.215160	16876.971667	1301.281250	-138.786621
19423.215160	16876.971667	1300.181641	-38.758480
19423.215160	16876.971667	1299.081055	4.876129
19423.215160	16876.971667	1297.981445	-125.378937
19423.215160	16876.971667	1296.880859	46.511776
19423.215160	16876.971667	1295.780273	-26.021570
19423.215160	16876.971667	1294.679688	-192.352921
19423.215160	16876.971667	1293.578125	-55.624989
19423.215160	16876.971667	1292.476563	-110.769066
19423.215160	16876.971667	1291.375000	-8.763632
19423.215160	16876.971667	1290.273438	-82.276596
19423.215160	16876.971667	1289.171875	24.999704
19423.215160	16876.971667	1288.069336	6.314357
19423.215160	16876.971667	1286.966797	24.982883
19423.215160	16876.971667	1285.864258	3.200632
19423.215160	16876.971667	1284.761719	11.243021
19423.215160	16876.971667	1283.658203	49.341694
19423.215160	16876.971667	1282.554688	104.857903
19423.215160	16876.971667	1281.451172	55.194984
19423.215160	16876.971667	1280.347656	35.120529
19423.215160	16876.971667	1279.244141	4.896273
19423.215160	16876.971667	1278.139648	-68.332909
19423.215160	16876.971667	1277.035156	-10.697165
19423.215160	16876.971667	1275.930664	16.663857
19423.215160	16876.971667	1274.825195	95.019135
19423.215160	16876.971667	1273.720703	-80.279610
19423.215160	16876.971667	1272.615234	-9.005928
19423.215160	16876.971667	1271.508789	81.332443
19423.215160	16876.971667	1270.403320	52.446430
19423.215160	16876.971667	1269.297852	-37.029720
19423.215160	16876.971667	1268.191406	84.328392
19423.215160	16876.971667	1267.084961	-93.276665
19423.215160	16876.971667	1265.977539	-40.352093
19423.215160	16876.971667	1264.871094	37.587193
19423.215160	16876.971667	1263.763672	26.916458
19423.215160	16876.971667	1262.656250	14.618453
19423.215160	16876.971667	1261.548828	-51.778526
19423.215160	16876.971667	1260.440430	70.096336
19423.215160	16876.971667	1259.333008	111.926155
19423.215160	16876.971667	1258.224609	-26.157761
19423.215160	16876.971667	1257.115234	37.001839
19423.215160	16876.971667	1256.006836	169.576248
19423.215160	16876.971667	1254.897461	-68.750381
19423.215160	16876.971667	1253.788086	114.905899
19423.215160	16876.971667	1252.678711	45.950344
19423.215160	16876.971667	1251.569336	98.107521
19423.215160	16876.971667	1250.458984	216.948563
19423.215160	16876.971667	1249.349609	159.696365
19423.215160	16876.971667	1248.239258	226.319382
19423.215160	16876.971667	1247.127930	168.995346
19423.215160	16876.971667	1246.017578	256.870972
19423.215160	16876.971667	1244.906250	244.743805
19423.215160	16876.971667	1243.794922	357.658875
19423.215160	16876.971667	1242.683594	303.082001
19423.215160	16876.971667	1241.571289	144.094070
19423.215160	16876.971667	1240.459961	232.243149
19423.215160	16876.971667	1239.347656	133.918640
19423.215160	16876.971667	1238.234375	245.236725
19423.215160	16876.971667	1237.122070	260.054047
19423.215160	16876.971667	1236.008789	239.395752
19423.215160	16876.971667	1234.896484	124.637054
19423.215160	16876.971667	1233.782227	212.436783
19423.215160	16876.971667	1232.668945	144.548157
19423.215160	16876.971667	1231.555664	159.649796
19423.215160	16876.971667	1230.441406	220.927094
19423.215160	16876.971667	1229.327148	68.376266
19423.215160	16876.971667	1228.211914	161.014740
19423.215160	16876.971667	1227.097656	50.199219
19423.215160	16876.971667	1225.982422	-79.004166
19423.215160	16876.971667	1224.867188	15.109800
19423.215160	16876.971667	1223.751953	-25.178596
19423.215160	16876.971667	1222.635742	84.244713
19423.215160	16876.971667	1221.520508	-1.139410
19423.215160	16876.971667	1220.404297	16.563181
19423.215160	16876.971667	1219.287109	77.541916
19423.215160	16876.971667	1218.170898	-15.861900
19423.215160	16876.971667	1217.053711	-178.334274
19423.215160	16876.971667	1215.936523	64.516655
19423.215160	16876.971667	1214.819336	19.507339
19423.215160	16876.971667	1213.702148	12.196410
19423.215160	16876.971667	1212.583984	121.309158
19423.215160	16876.971667	1211.465820	26.996325
19423.215160	16876.971667	1210.347656	-36.810390
19423.215160	16876.971667	1209.229492	54.918362
19423.215160	16876.971667	1208.110352	28.720308
19423.215160	16876.971667	1206.992188	-37.195148
19423.215160	16876.971667	1205.873047	70.591591
19423.215160	16876.971667	1204.752930	-71.005402
19423.215160	16876.971667	1203.633789	94.923141
19423.215160	16876.971667	1202.513672	43.426575
19423.215160	16876.971667	1201.393555	-78.462280
19423.215160	16876.971667	1200.273438	-86.882477
19423.215160	16876.971667	1199.152344	-126.233971
19423.215160	16876.971667	1198.032227	-50.741940
19423.215160	16876.971667	1196.911133	-104.125359
19423.215160	16876.971667	1195.790039	-77.110992
19423.215160	16876.971667	1194.667969	-120.925560
19423.215160	16876.971667	1193.545898	-99.407555
19423.215160	16876.971667	1192.424805	-185.842148
19423.215160	16876.971667	1191.301758	-73.788315
19423.215160	16876.971667	1190.179688	-65.757072
19423.215160	16876.971667	1189.056641	-94.421898
19423.215160	16876.971667	1187.933594	5.140135
19423.215160	16876.971667	1186.810547	-76.637695
19423.215160	16876.971667	1185.687500	-61.916813
19423.215160	16876.971667	1184.563477	-78.015991
19423.215160	16876.971667	1183.440430	-11.862554
19423.215160	16876.971667	1182.316406	8.848123
19423.215160	16876.971667	1181.191406	-2.219307
19423.215160	16876.971667	1180.067383	87.462181
19423.215160	16876.971667	1178.942383	6.105691
19423.215160	16876.971667	1177.817383	44.547157
19423.215160	16876.971667	1176.692383	41.465050
19423.215160	16876.971667	1175.566406	52.154598
19423.215160	16876.971667	1174.440430	8.226788
19423.215160	16876.971667	1173.314453	-65.193596
19423.215160	16876.971667	1172.188477	27.877625
19423.215160	16876.971667	1171.062500	61.227856
19423.215160	16876.971667	1169.935547	-29.334677
19423.215160	16876.971667	1168.808594	74.008308
19423.215160	16876.971667	1167.681641	92.288872
19423.215160	16876.971667	1166.553711	110.374702
19423.215160	16876.971667	1165.426758	24.710102
19423.215160	16876.971667	1164.298828	23.562300
19423.215160	16876.971667	1163.170898	75.102394
19423.215160	16876.971667	1162.041992	-70.257652
19423.215160	16876.971667	1160.914063	-36.121929
19423.215160	16876.971667	1159.785156	66.801819
19423.215160	16876.971667	1158.656250	29.923216
19423.215160	16876.971667	1157.526367	4.600332
19423.215160	16876.971667	1156.397461	-112.542915
19423.215160	16876.971667	1155.267578	58.446484
19423.215160	16876.971667	1154.137695	62.615112
19423.215160	16876.971667	1153.006836	-30.149343
19423.215160	16876.971667	1151.876953	31.276529
19423.215160	16876.971667	1150.746094	33.994759
19423.215160	16876.971667	1149.615234	-0.004939
19423.215160	16876.971667	1148.484375	69.906845
19423.215160	16876.971667	1147.352539	35.879765
19423.215160	16876.971667	1146.220703	-44.721741
19423.215160	16876.971667	1145.088867	-82.661789
19423.215160	16876.971667	1143.957031	-102.916405
19423.215160	16876.971667	1142.825195	5.776678
19423.215160	16876.971667	1141.692383	-58.115723
19423.215160	16876.971667	1140.559570	-70.784500
19423.215160	16876.971667	1139.426758	66.963318
19423.215160	16876.971667	1138.292969	14.412264
19423.215160	16876.971667	1137.159180	-30.896402
19423.215160	16876.971667	1136.025391	70.258644
19423.215160	16876.971667	1134.891602	83.401466
19423.215160	16876.971667	1133.757813	140.345688
19423.215160	16876.971667	1132.623047	-10.323589
19423.215160	16876.971667	1131.488281	180.010910
19423.215160	16876.971667	1130.353516	50.613052
19423.215160	16876.971667	1129.217773	105.372452
19423.215160	16876.971667	1128.083008	217.744827
19423.215160	16876.971667	1126.947266	88.660507
19423.215160	16876.971667	1125.811523	124.086296
19423.215160	16876.971667	1124.674805	228.698700
19423.215160	16876.971667	1123.539063	256.865631
19423.215160	16876.971667	1122.402344	149.556488
19423.215160	16876.971667	1121.265625	273.315521
19423.215160	16876.971667	1120.127930	230.809799
19423.215160	16876.971667	1118.990234	186.638367
19423.215160	16876.971667	1117.853516	224.382507
19423.215160	16876.971667	1116.714844	163.521866
19423.215160	16876.971667	1115.577148	205.428574
19423.215160	16876.971667	1114.439453	101.768600
19423.215160	16876.971667	1113.300781	125.801941
19423.215160	16876.971667	1112.162109	176.694534
19423.215160	16876.971667	1111.022461	67.576881
19423.215160	16876.971667	1109.883789	151.312195
19423.215160	16876.971667	1108.744141	277.484741
19423.215160	16876.971667	1107.604492	236.129898
19423.215160	16876.971667	1106.463867	296.590851
19423.215160	16876.971667	1105.324219	281.020935
19423.215160	16876.971667	1104.183594	233.053772
19423.215160	16876.971667	1103.042969	256.433044
19423.215160	16876.971667	1101.902344	237.868256
19423.215160	16876.971667	1100.760742	230.099777
19423.215160	16876.971667	1099.619141	243.838821
19423.215160	16876.971667	1098.477539	214.575684
19423.215160	16876.971667	1097.335938	149.058960
19423.215160	16876.971667	1096.193359	193.879410
19423.215160	16876.971667	1095.051758	286.032959
19423.215160	16876.971667	1093.909180	273.307434
19423.215160	16876.971667	1092.765625	142.051895
19423.215160	16876.971667	1091.623047	283.828583
19423.215160	16876.971667	1090.479492	211.917191
19423.215160	16876.971667	1089.335938	438.328949
19423.215160	16876.971667	1088.192383	318.684631
19423.215160	16876.971667	1087.047852	145.371460
19423.215160	16876.971667	1085.903320	280.082550
19423.215160	16876.971667	1084.758789	247.795624
19423.215160	16876.971667	1083.614258	143.206238
19423.215160	16876.971667	1082.469727	193.944016
19423.215160	16876.971667	1081.324219	248.968658
19423.215160	16876.971667	1080.178711	324.976593
19423.215160	16876.971667	1079.033203	259.631195
19423.215160	16876.971667	1077.886719	200.140533
19423.215160	16876.971667	1076.740234	244.055786
19423.215160	16876.971667	1075.593750	253.640411
19423.215160	16876.971667	1074.447266	302.913788
19423.215160	16876.971667	1073.300781	279.223907
19423.215160	16876.971667	1072.153320	304.939758
19423.215160	16876.971667	1071.005859	256.957611
19423.215160	16876.971667	1069.858398	254.836838
19423.215160	16876.971667	1068.709961	397.375061
19423.215160	16876.971667	1067.561523	317.527832
19423.215160	16876.971667	1066.413086	355.440033
19423.215160	16876.971667	1065.264648	274.667297
19423.215160	16876.971667	1064.116211	235.262787
19423.215160	16876.971667	1062.966797	277.350464
19423.215160	16876.971667	1061.817383	297.656769
19423.215160	16876.971667	1060.667969	296.455597
19423.215160	16876.971667	1059.517578	297.285828
19423.215160	16876.971667	1058.368164	228.164841
19423.215160	16876.971667	1057.217773	150.854919
19423.215160	16876.971667	1056.067383	229.660507
19423.215160	16876.971667	1054.916016	364.801910
19423.215160	16876.971667	1053.764648	259.423523
19423.215160	16876.971667	1052.613281	252.624039
19423.215160	16876.971667	1051.461914	266.823456
19423.215160	16876.971667	1050.310547	249.561874
19423.215160	16876.971667	1049.158203	312.554565
19423.215160	16876.971667	1048.005859	167.180115
19423.215160	16876.971667	1046.853516	193.334152
19423.215160	16876.971667	1045.700195	226.882675
19423.215160	16876.971667	1044.547852	319.305450
19423.215160	16876.971667	1043.394531	305.239594
19423.215160	16876.971667	1042.240234	207.374557
19423.215160	16876.971667	1041.086914	204.918488
19423.215160	16876.971667	1039.932617	384.623444
19423.215160	16876.971667	1038.778320	435.943756
19423.215160	16876.971667	1037.624023	353.580292
19423.215160	16876.971667	1036.469727	531.323242
19423.215160	16876.971667	1035.314453	468.468567
19423.215160	16876.971667	1034.159180	566.904785
19423.215160	16876.971667	1033.003906	661.026123
19423.215160	16876.971667	1031.847656	841.248108
19423.215160	16876.971667	1030.692383	784.032043
19423.215160	16876.971667	1029.536133	872.410706
19423.215160	16876.971667	1028.378906	690.439758
19423.215160	16876.971667	1027.222656	698.231018
19423.215160	16876.971667	1026.065430	354.232239
19423.215160	16876.971667	1024.908203	381.320374
19423.215160	16876.971667	1023.750977	313.418518
19423.215160	16876.971667	1022.593750	296.799957
19423.215160	16876.971667	1021.435547	139.131241
19423.215160	16876.971667	1020.277344	243.221024
19423.215160	16876.971667	1019.119141	135.683914
19423.215160	16876.971667	1017.959961	242.494461
19423.215160	16876.971667	1016.800781	200.990753
19423.215160	16876.971667	1015.641602	101.775742
19423.215160	16876.971667	1014.482422	176.740891
19423.215160	16876.971667	1013.323242	232.568726
19423.215160	16876.971667	1012.163086	83.314690
19423.215160	16876.971667	1011.002930	106.441162
19423.215160	16876.971667	1009.842773	61.724422
19423.215160	16876.971667	1008.681641	79.049927
19423.215160	16876.971667	1007.520508	71.100372
19423.215160	16876.971667	1006.359375	123.843964
19423.215160	16876.971667	1005.198242	271.074585
19423.215160	16876.971667	1004.037109	246.440628
19423.215160	16876.971667	1002.875000	241.342102
19423.215160	16876.971667	1001.712891	280.126404
19423.215160	16876.971667	1000.550781	289.481537
19423.215160	16876.971667	999.387695	125.178482
19423.215160	16876.971667	998.224609	188.547699
19423.215160	16876.971667	997.061523	171.107742
19423.215160	16876.971667	995.898438	162.597824
19423.215160	16876.971667	994.734375	70.301147
19423.215160	16876.971667	993.571289	102.852974
19423.215160	16876.971667	992.407227	-36.234543
19423.215160	16876.971667	991.242188	60.074669
19423.215160	16876.971667	990.078125	31.164074
19423.215160	16876.971667	988.913086	-58.953316
19423.215160	16876.971667	987.748047	78.909615
19423.215160	16876.971667	986.583008	25.102495
19423.215160	16876.971667	985.416992	-30.066217
19423.215160	16876.971667	984.250977	-33.273121
19423.215160	16876.971667	983.084961	35.457897
19423.215160	16876.971667	981.918945	2.645909
19423.215160	16876.971667	980.751953	124.852257
19423.215160	16876.971667	979.584961	-64.123993
19423.215160	16876.971667	978.417969	46.755764
19423.215160	16876.971667	977.250977	-75.149048
19423.215160	16876.971667	976.083008	38.817612
19423.215160	16876.971667	974.915039	-24.379620
19423.215160	16876.971667	973.747070	100.475121
19423.215160	16876.971667	972.579102	19.702202
19423.215160	16876.971667	971.410156	-17.129280
19423.215160	16876.971667	970.242188	-27.062668
19423.215160	16876.971667	969.072266	33.105343
19423.215160	16876.971667	967.903320	164.406418
19423.215160	16876.971667	966.733398	-43.811840
19423.215160	16876.971667	965.563477	-7.291269
19423.215160	16876.971667	964.393555	-9.044030
19423.215160	16876.971667	963.223633	47.428455
19423.215160	16876.971667	962.052734	93.506813
19423.215160	16876.971667	960.881836	11.202110
19423.215160	16876.971667	959.710938	-102.454353
19423.215160	16876.971667	958.540039	120.271355
19423.215160	16876.971667	957.368164	5.770595
19423.215160	16876.971667	956.196289	59.618401
19423.215160	16876.971667	955.024414	158.995468
19423.215160	16876.971667	953.851563	158.217010
19423.215160	16876.971667	952.679688	-49.360481
19423.215160	16876.971667	951.506836	27.003748
19423.215160	16876.971667	950.333984	15.995022
19423.215160	16876.971667	949.160156	67.412964
19423.215160	16876.971667	947.986328	36.372070
19423.215160	16876.971667	946.812500	119.949997
19423.215160	16876.971667	945.638672	-25.973862
19423.215160	16876.971667	944.464844	-29.059650
19423.215160	16876.971667	943.290039	67.663681
19423.215160	16876.971667	942.115234	-2.970706
19423.215160	16876.971667	940.940430	-20.944750
19423.215160	16876.971667	939.764648	-106.619881
19423.215160	16876.971667	938.588867	5.343840
19423.215160	16876.971667	937.413086	-18.185452
19423.215160	16876.971667	936.237305	136.903046
19423.215160	16876.971667	935.060547	41.937912
19423.215160	16876.971667	933.883789	-56.664364
19423.215160	16876.971667	932.707031	0.727515
19423.215160	16876.971667	931.530273	33.845421
19423.215160	16876.971667	930.352539	160.762131
19423.215160	16876.971667	929.175781	120.487167
19423.215160	16876.971667	927.998047	8.864891
19423.215160	16876.971667	926.819336	17.561306
19423.215160	16876.971667	925.641602	-43.260910
19423.215160	16876.971667	924.462891	123.292046
19423.215160	16876.971667	923.284180	-8.789883
19423.215160	16876.971667	922.104492	71.394829
19423.215160	16876.971667	920.924805	144.073853
19423.215160	16876.971667	919.746094	146.822876
19423.215160	16876.971667	919.551758	80.202934
19423.215160	16876.971667	918.386719	64.702736
19423.215160	16876.971667	917.220703	129.923996
19423.215160	16876.971667	916.054688	-59.947338
19423.215160	16876.971667	914.887695	-75.288429
19423.215160	16876.971667	913.721680	-99.959808
19423.215160	16876.971667	912.554688	49.762428
19423.215160	16876.971667	911.387695	47.651958
19423.215160	16876.971667	910.220703	133.656769
19423.215160	16876.971667	909.052734	94.149307
19423.215160	16876.971667	907.885742	0.379501
19423.215160	16876.971667	906.717773	-196.303970
19423.215160	16876.971667	905.548828	-46.476475
19423.215160	16876.971667	904.380859	86.485664
19423.215160	16876.971667	903.211914	-35.090645
19423.215160	16876.971667	902.042969	-31.199661
19423.215160	16876.971667	900.874023	-118.931587
19423.215160	16876.971667	899.704102	-126.147163
19423.215160	16876.971667	898.535156	102.312988
19423.215160	16876.971667	897.365234	-31.982695
19423.215160	16876.971667	896.194336	-9.149723
19423.215160	16876.971667	895.024414	77.265907
19423.215160	16876.971667	893.853516	19.824554
19423.215160	16876.971667	892.682617	-71.167694
19423.215160	16876.971667	891.511719	54.591434
19423.215160	16876.971667	890.340820	152.342178
19423.215160	16876.971667	889.168945	42.872986
19423.215160	16876.971667	887.997070	-31.030794
19423.215160	16876.971667	886.825195	-37.664608
19423.215160	16876.971667	885.653320	-62.898140
19423.215160	16876.971667	884.480469	76.099663
19423.215160	16876.971667	883.307617	21.128061
19423.215160	16876.971667	882.134766	-46.817432
19423.215160	16876.971667	880.961914	15.825561
19423.215160	16876.971667	879.788086	-128.394012
19423.215160	16876.971667	878.614258	-47.004280
19423.215160	16876.971667	877.440430	40.000446
19423.215160	16876.971667	876.266602	11.534538
19423.215160	16876.971667	875.091797	27.841400
19423.215160	16876.971667	873.916992	133.579651
19423.215160	16876.971667	872.742188	73.646530
19423.215160	16876.971667	871.567383	11.936795
19423.215160	16876.971667	870.391602	8.005013
19423.215160	16876.971667	869.215820	45.067158
19423.215160	16876.971667	868.040039	-77.796997
19423.215160	16876.971667	866.864258	70.975212
19423.215160	16876.971667	865.687500	41.251957
19423.215160	16876.971667	864.510742	-18.141685
19423.215160	16876.971667	863.333984	19.199177
19423.215160	16876.971667	862.157227	86.318092
19423.215160	16876.971667	860.979492	-26.735498
19423.215160	16876.971667	859.802734	-130.398117
19423.215160	16876.971667	858.625000	85.468590
19423.215160	16876.971667	857.446289	20.949772
19423.215160	16876.971667	856.268555	-13.783076
19423.215160	16876.971667	855.089844	-72.562035
19423.215160	16876.971667	853.911133	9.768401
19423.215160	16876.971667	852.731445	-76.689865
19423.215160	16876.971667	851.552734	5.732732
19423.215160	16876.971667	850.373047	-104.672043
19423.215160	16876.971667	849.193359	-25.856867
19423.215160	16876.971667	848.013672	-32.280388
19423.215160	16876.971667	846.833008	33.644306
19423.215160	16876.971667	845.652344	5.104947
19423.215160	16876.971667	844.471680	28.510014
19423.215160	16876.971667	843.291016	51.966698
19423.215160	16876.971667	842.110352	-193.030136
19423.215160	16876.971667	840.928711	-12.042363
19423.215160	16876.971667	839.747070	13.447474
19423.215160	16876.971667	838.564453	-22.077522
19423.215160	16876.971667	837.382813	14.626454
19423.215160	16876.971667	836.200195	-35.562935
19423.215160	16876.971667	835.017578	16.049217
19423.215160	16876.971667	833.834961	-37.699112
19423.215160	16876.971667	832.651367	-71.024887
19423.215160	16876.971667	831.467773	75.010246
19423.215160	16876.971667	830.284180	-30.278757
19423.215160	16876.971667	829.100586	-92.972466
19423.215160	16876.971667	827.916992	-70.612396
19423.215160	16876.971667	826.732422	-24.190315
19423.215160	16876.971667	825.547852	121.975937
19423.215160	16876.971667	824.363281	77.994186
19423.215160	16876.971667	823.177734	76.542168
19423.215160	16876.971667	821.992188	152.647537
19423.215160	16876.971667	820.806641	27.679783
19423.215160	16876.971667	819.621094	-67.670380
19423.215160	16876.971667	818.434570	30.712877
19423.215160	16876.971667	817.249023	158.602219
19423.215160	16876.971667	816.062500	139.024384
19423.215160	16876.971667	814.875000	84.494843
19423.215160	16876.971667	813.688477	194.024734
19423.215160	16876.971667	812.500977	88.021835
19423.215160	16876.971667	811.313477	22.632359
19423.215160	16876.971667	810.125977	242.747070
19423.215160	16876.971667	808.937500	107.491173
19423.215160	16876.971667	807.749023	9.150850
19423.215160	16876.971667	806.560547	140.939545
19423.215160	16876.971667	805.372070	-5.117311
19423.215160	16876.971667	804.182617	150.628006
19423.215160	16876.971667	802.994141	89.318092
19423.215160	16876.971667	801.803711	134.739395
19423.215160	16876.971667	800.614258	301.513123
19423.215160	16876.971667	799.424805	38.150211
19423.215160	16876.971667	798.234375	197.607513
19423.215160	16876.971667	797.043945	244.960724
19423.215160	16876.971667	795.852539	281.315674
19423.215160	16876.971667	794.662109	216.673721
19423.215160	16876.971667	793.470703	249.415527
19423.215160	16876.971667	792.279297	148.164459
19423.215160	16876.971667	791.087891	208.501831
19423.215160	16876.971667	789.895508	208.295151
19423.215160	16876.971667	788.703125	145.740433
19423.215160	16876.971667	787.510742	88.742134
19423.215160	16876.971667	786.318359	171.168152
19423.215160	16876.971667	785.125000	365.435760
19423.215160	16876.971667	783.931641	165.526459
19423.215160	16876.971667	782.738281	324.938873
19423.215160	16876.971667	781.544922	326.723907
19423.215160	16876.971667	780.350586	299.223145
19423.215160	16876.971667	779.156250	282.742126
19423.215160	16876.971667	777.961914	266.284821
19423.215160	16876.971667	776.767578	275.481598
19423.215160	16876.971667	775.572266	308.491882
19423.215160	16876.971667	774.376953	207.905258
19423.215160	16876.971667	773.181641	169.581573
19423.215160	16876.971667	771.986328	252.017838
19423.215160	16876.971667	770.790039	307.001373
19423.215160	16876.971667	769.593750	371.111359
19423.215160	16876.971667	768.397461	252.382401
19423.215160	16876.971667	767.201172	340.246460
19423.215160	16876.971667	766.003906	353.159271
19423.215160	16876.971667	764.806641	174.228256
19423.215160	16876.971667	763.609375	358.874146
19423.215160	16876.971667	762.412109	406.469330
19423.215160	16876.971667	761.213867	503.346344
19423.215160	16876.971667	760.015625	428.578400
19423.215160	16876.971667	758.817383	353.833221
19423.215160	16876.971667	757.618164	525.457458
19423.215160	16876.971667	756.419922	385.024109
19423.215160	16876.971667	755.220703	441.633850
19423.215160	16876.971667	754.021484	472.673920
19423.215160	16876.971667	752.821289	492.751526
19423.215160	16876.971667	751.621094	459.939362
19423.215160	16876.971667	750.420898	305.013947
19423.215160	16876.971667	749.220703	430.733215
19423.215160	16876.971667	748.020508	574.592407
19423.215160	16876.971667	746.819336	507.097443
19423.215160	16876.971667	745.618164	439.602417
19423.215160	16876.971667	744.416992	574.188843
19423.215160	16876.971667	743.214844	550.337341
19423.215160	16876.971667	742.012695	457.308533
19423.215160	16876.971667	740.810547	588.072693
19423.215160	16876.971667	739.608398	591.410706
19423.215160	16876.971667	738.406250	685.640808
19423.215160	16876.971667	737.203125	727.066101
19423.215160	16876.971667	736.000000	810.241882
19423.215160	16876.971667	734.795898	826.095032
19423.215160	16876.971667	733.592773	900.035767
19423.215160	16876.971667	732.388672	982.985779
19423.215160	16876.971667	731.184570	920.537659
19423.215160	16876.971667	729.979492	948.868530
19423.215160	16876.971667	728.775391	1040.672607
19423.215160	16876.971667	727.570313	747.551453
19423.215160	16876.971667	726.365234	697.686523
19423.215160	16876.971667	725.160156	684.069458
19423.215160	16876.971667	723.954102	675.842590
19423.215160	16876.971667	722.748047	549.659668
19423.215160	16876.971667	721.541992	535.888733
19423.215160	16876.971667	720.334961	590.951782
19423.215160	16876.971667	719.128906	620.536865
19423.215160	16876.971667	717.921875	439.822754
19423.215160	16876.971667	716.714844	500.082153
19423.215160	16876.971667	715.506836	636.324097
19423.215160	16876.971667	714.298828	600.374634
19423.215160	16876.971667	713.090820	647.649231
19423.215160	16876.971667	711.882813	615.163940
19423.215160	16876.971667	710.674805	609.753967
19423.215160	16876.971667	709.465820	629.595032
19423.215160	16876.971667	708.256836	638.480835
19423.215160	16876.971667	707.047852	607.475281
19423.215160	16876.971667	705.837891	759.042297
19423.215160	16876.971667	704.627930	682.633057
19423.215160	16876.971667	703.417969	741.730469
19423.215160	16876.971667	702.208008	675.997375
19423.215160	16876.971667	700.998047	696.919189
19423.215160	16876.971667	699.787109	632.822632
19423.215160	16876.971667	698.576172	729.391357
19423.215160	16876.971667	697.364258	684.962280
19423.215160	16876.971667	696.153320	678.347534
19423.215160	16876.971667	694.941406	695.089661
19423.215160	16876.971667	693.729492	789.306702
19423.215160	16876.971667	692.516602	618.142822
19423.215160	16876.971667	691.304688	630.920715
19423.215160	16876.971667	690.091797	670.625610
19423.215160	16876.971667	688.878906	719.203491
19423.215160	16876.971667	687.665039	672.091736
19423.215160	16876.971667	686.451172	727.604248
19423.215160	16876.971667	685.237305	701.872498
19423.215160	16876.971667	684.023438	834.558105
19423.215160	16876.971667	682.809570	839.164978
19423.215160	16876.971667	681.594727	935.478149
19423.215160	16876.971667	680.379883	815.555908
19423.215160	16876.971667	679.165039	879.149658
19423.215160	16876.971667	677.949219	888.585205
19423.215160	16876.971667	676.733398	802.506165
19423.215160	16876.971667	675.517578	872.824219
19423.215160	16876.971667	674.301758	921.379883
19423.215160	16876.971667	673.084961	991.344177
19423.215160	16876.971667	671.869141	910.107605
19423.215160	16876.971667	670.651367	893.461548
19423.215160	16876.971667	669.434570	993.471558
19423.215160	16876.971667	668.216797	1033.992554
19423.215160	16876.971667	667.000000	959.371033
19423.215160	16876.971667	665.781250	1051.641724
19423.215160	16876.971667	664.563477	851.035889
19423.215160	16876.971667	663.344727	881.924927
19423.215160	16876.971667	662.125977	871.353577
19423.215160	16876.971667	660.907227	910.860901
19423.215160	16876.971667	659.688477	1016.559204
19423.215160	16876.971667	658.468750	1005.454529
19423.215160	16876.971667	657.249023	947.555664
19423.215160	16876.971667	656.029297	789.103943
19423.215160	16876.971667	654.808594	920.928833
19423.215160	16876.971667	653.587891	765.778381
19423.215160	16876.971667	652.367188	977.822144
19423.215160	16876.971667	651.146484	929.846069
19423.215160	16876.971667	649.924805	682.907104
19423.215160	16876.971667	648.704102	724.177368
19423.215160	16876.971667	647.482422	808.209656
19423.215160	16876.971667	646.259766	761.359802
19423.215160	16876.971667	645.037109	936.236023
19423.215160	16876.971667	643.815430	930.151245
19423.215160	16876.971667	642.591797	900.622864
19423.215160	16876.971667	641.369141	858.398071
19423.215160	16876.971667	640.145508	773.085693
19423.215160	16876.971667	638.921875	707.279358
19423.215160	16876.971667	637.698242	859.344727
19423.215160	16876.971667	636.474609	771.714722
19423.215160	16876.971667	635.250000	819.693542
19423.215160	16876.971667	634.025391	819.229919
19423.215160	16876.971667	632.800781	904.281738
19423.215160	16876.971667	631.575195	803.422363
19423.215160	16876.971667	630.349609	891.608582
19423.215160	16876.971667	629.124023	743.994568
19423.215160	16876.971667	627.898438	772.875671
19423.215160	16876.971667	626.671875	591.050537
19423.215160	16876.971667	625.445313	806.802856
19423.215160	16876.971667	624.218750	808.294312
19423.215160	16876.971667	622.992188	802.450928
19423.215160	16876.971667	621.764648	739.369080
19423.215160	16876.971667	620.537109	754.512573
19423.215160	16876.971667	619.309570	712.435425
19423.215160	16876.971667	618.081055	748.537476
19423.215160	16876.971667	616.852539	716.748962
19423.215160	16876.971667	615.624023	670.524841
19423.215160	16876.971667	614.395508	681.074768
19423.215160	16876.971667	613.166992	751.922119
19423.215160	16876.971667	611.937500	610.795898
19423.215160	16876.971667	610.708008	795.059509
19423.215160	16876.971667	609.477539	845.645691
19423.215160	16876.971667	608.248047	702.192932
19423.215160	16876.971667	607.017578	771.920593
19423.215160	16876.971667	605.787109	656.566406
19423.215160	16876.971667	604.555664	599.690735
19423.215160	16876.971667	603.325195	743.398926
19423.215160	16876.971667	602.093750	581.321289
19423.215160	16876.971667	600.861328	644.637207
19423.215160	16876.971667	599.629883	624.281860
19423.215160	16876.971667	598.397461	594.849976
19423.215160	16876.971667	597.165039	602.498108
19423.215160	16876.971667	595.932617	615.264587
19423.215160	16876.971667	594.699219	569.276917
19423.215160	16876.971667	593.465820	482.316040
19423.215160	16876.971667	592.232422	568.969055
19423.215160	16876.971667	590.999023	471.012024
19423.215160	16876.971667	589.764648	553.683777
19423.215160	16876.971667	588.530273	512.078674
19423.215160	16876.971667	587.295898	541.165405
19423.215160	16876.971667	586.061523	424.797394
19423.215160	16876.971667	584.826172	495.999786
19423.215160	16876.971667	583.590820	388.153015
19423.215160	16876.971667	582.355469	517.370483
19423.215160	16876.971667	581.119141	474.663422
19423.215160	16876.971667	579.882813	391.091614
19423.215160	16876.971667	578.646484	500.199310
19423.215160	16876.971667	577.410156	548.942993
19423.215160	16876.971667	576.172852	560.340393
19423.215160	16876.971667	574.935547	477.853943
19423.215160	16876.971667	573.698242	490.673798
19423.215160	16876.971667	572.460938	393.747803
19423.215160	16876.971667	571.222656	399.154999
19423.215160	16876.971667	569.984375	383.191681
19423.215160	16876.971667	568.746094	420.048615
19423.215160	16876.971667	567.506836	334.881317
19423.215160	16876.971667	566.267578	420.819672
19423.215160	16876.971667	565.028320	358.306610
19423.215160	16876.971667	563.789063	555.049316
19423.215160	16876.971667	562.548828	437.518524
19423.215160	16876.971667	561.309570	536.840759
19423.215160	16876.971667	560.068359	531.906067
19423.215160	16876.971667	558.828125	338.190857
19423.215160	16876.971667	557.586914	407.036957
19423.215160	16876.971667	556.345703	191.983917
19423.215160	16876.971667	555.104492	306.358490
19423.215160	16876.971667	553.863281	454.016357
19423.215160	16876.971667	552.621094	280.935150
19423.215160	16876.971667	551.378906	400.086273
19423.215160	16876.971667	550.136719	233.873932
19423.215160	16876.971667	548.893555	354.479767
19423.215160	16876.971667	547.650391	265.514832
19423.215160	16876.971667	546.407227	285.544617
19423.215160	16876.971667	545.164063	298.416412
19423.215160	16876.971667	543.919922	232.025620
19423.215160	16876.971667	542.675781	197.202667
19423.215160	16876.971667	541.431641	299.396545
19423.215160	16876.971667	540.186523	216.908417
19423.215160	16876.971667	538.941406	169.499237
19423.215160	16876.971667	537.696289	160.663605
19423.215160	16876.971667	536.451172	316.831207
19423.215160	16876.971667	535.205078	142.728973
19423.215160	16876.971667	533.959961	38.853455
19423.215160	16876.971667	532.712891	194.679092
19423.215160	16876.971667	531.466797	222.280670
19423.215160	16876.971667	530.219727	249.788589
19423.215160	16876.971667	528.972656	35.168812
19423.215160	16876.971667	527.725586	2.957336
19423.215160	16876.971667	526.478516	142.521729
19423.215160	16876.971667	525.230469	104.921432
19423.215160	16876.971667	523.982422	86.567062
19423.215160	16876.971667	522.734375	17.366358
19423.215160	16876.971667	521.485352	47.992062
19423.215160	16876.971667	520.236328	45.294960
19423.215160	16876.971667	518.987305	25.059357
19423.215160	16876.971667	517.737305	8.294947
19423.215160	16876.971667	516.488281	-20.720829
19423.215160	16876.971667	515.238281	-37.504799
19423.215160	16876.971667	513.988281	145.148544
19423.215160	16876.971667	512.737305	179.028305
19423.215160	16876.971667	511.486328	39.767269
19423.215160	16876.971667	510.235352	15.959981
19423.215160	16876.971667	508.984375	-2.586140
19423.215160	16876.971667	507.732422	164.120743
19423.215160	16876.971667	506.480469	121.105057
19423.215160	16876.971667	505.228516	-16.201202
19423.215160	16876.971667	503.976563	-18.943235
19423.215160	16876.971667	502.723633	-189.292160
19423.215160	16876.971667	501.470703	-109.893532
19423.215160	16876.971667	500.217773	-161.389603
19423.215160	16876.971667	498.963867	24.485140
19423.215160	16876.971667	497.709961	93.441467
19423.215160	16876.971667	496.456055	139.747742
19423.215160	16876.971667	495.202148	55.304630
19423.215160	16876.971667	493.947266	-32.538254
19423.215160	16876.971667	492.692383	47.062923
19423.215160	16876.971667	491.437500	135.417435
19423.215160	16876.971667	490.181641	164.558624
19423.215160	16876.971667	488.926758	199.008713
19423.215160	16876.971667	487.670898	163.854218
19423.215160	16876.971667	486.414063	90.487007
19423.215160	16876.971667	485.158203	-19.297813
19423.215160	16876.971667	483.901367	-40.182941
19423.215160	16876.971667	482.644531	92.174576
19423.215160	16876.971667	481.386719	-62.482216
19423.215160	16876.971667	480.128906	-49.981556
19423.215160	16876.971667	478.871094	103.488258
19423.215160	16876.971667	477.613281	-45.502350
19423.215160	16876.971667	476.355469	-10.051520
19423.215160	16876.971667	475.096680	51.569759
19423.215160	16876.971667	473.837891	15.999659
19423.215160	16876.971667	472.578125	10.101503
19423.215160	16876.971667	471.319336	84.247513
19423.215160	16876.971667	470.059570	153.286072
19423.215160	16876.971667	468.799805	69.676773
19423.215160	16876.971667	467.539063	180.631607
19423.215160	16876.971667	466.278320	147.669266
19423.215160	16876.971667	465.017578	133.962631
19423.215160	16876.971667	463.756836	77.060417
19423.215160	16876.971667	462.495117	-9.143741
19423.215160	16876.971667	461.233398	163.181259
19423.215160	16876.971667	459.971680	117.197456
19423.215160	16876.971667	458.709961	-60.301422
19423.215160	16876.971667	457.447266	6.736850
19423.215160	16876.971667	456.184570	-12.689368
19423.215160	16876.971667	454.921875	-75.227318
19423.215160	16876.971667	453.658203	-57.920097
19423.215160	16876.971667	452.394531	-5.817711
19423.215160	16876.971667	451.130859	32.597538
19423.215160	16876.971667	449.867188	116.167839
19423.215160	16876.971667	448.602539	-33.671165
19423.215160	16876.971667	447.337891	81.369408
19423.215160	16876.971667	446.073242	-159.678497
19423.215160	16876.971667	444.807617	133.772797
19423.215160	16876.971667	443.542969	128.261017
19423.215160	16876.971667	442.276367	27.872547
19423.215160	16876.971667	441.010742	-61.914516
19423.215160	16876.971667	439.744141	12.612068
19423.215160	16876.971667	438.478516	16.487717
19423.215160	16876.971667	437.210938	-105.516991
19423.215160	16876.971667	435.944336	40.284550
19423.215160	16876.971667	434.676758	-46.802235
19423.215160	16876.971667	433.409180	-28.422857
19423.215160	16876.971667	432.141602	150.555405
19423.215160	16876.971667	430.873047	-51.554466
19423.215160	16876.971667	429.604492	-115.462921
19423.215160	16876.971667	428.335938	17.351812
19423.215160	16876.971667	427.067383	-78.979012
19423.215160	16876.971667	425.797852	-111.363640
19423.215160	16876.971667	424.528320	18.361374
19423.215160	16876.971667	423.258789	31.039442
19423.215160	16876.971667	421.988281	42.116367
19423.215160	16876.971667	420.717773	122.186569
19423.215160	16876.971667	419.447266	161.028671
19423.215160	16876.971667	418.175781	89.815384
19423.215160	16876.971667	416.905273	266.516235
19423.215160	16876.971667	415.633789	123.260681
19423.215160	16876.971667	414.362305	153.864349
19423.215160	16876.971667	413.089844	-1.181403
19423.215160	16876.971667	411.817383	134.444702
19423.215160	16876.971667	410.544922	65.534798
19423.215160	16876.971667	409.272461	-102.966179
19423.215160	16876.971667	407.999023	-18.813583
19423.215160	16876.971667	406.725586	137.466156
19423.215160	16876.971667	405.452148	116.807381
19423.215160	16876.971667	404.177734	77.262032
19423.215160	16876.971667	402.903320	-24.079615
19423.215160	16876.971667	401.628906	157.757843
19423.215160	16876.971667	400.354492	80.382462
19423.215160	16876.971667	399.079102	165.935669
19423.215160	16876.971667	397.803711	210.209213
19423.215160	16876.971667	396.528320	184.061935
19423.215160	16876.971667	395.251953	34.373127
19423.215160	16876.971667	393.976563	-115.382011
19423.215160	16876.971667	392.700195	-37.331085
19423.215160	16876.971667	391.422852	49.067883
19423.215160	16876.971667	390.145508	148.933044
19423.215160	16876.971667	388.869141	60.169952
19423.215160	16876.971667	387.590820	67.064285
19423.215160	16876.971667	386.313477	-46.126392
19423.215160	16876.971667	385.035156	91.996590
19423.215160	16876.971667	383.756836	31.268101
19423.215160	16876.971667	382.478516	74.564285
19423.215160	16876.971667	381.199219	266.247620
19423.215160	16876.971667	379.919922	129.154205
19423.215160	16876.971667	378.640625	66.902939
19423.215160	16876.971667	377.360352	34.968487
19423.215160	16876.971667	376.080078	0.842073
19423.215160	16876.971667	374.799805	89.201958
19423.215160	16876.971667	373.519531	26.656996
19423.215160	16876.971667	372.238281	113.798492
19423.215160	16876.971667	370.957031	166.121674
19423.215160	16876.971667	369.675781	14.630960
19423.215160	16876.971667	368.394531	178.195328
19423.215160	16876.971667	367.112305	146.426208
19423.215160	16876.971667	365.830078	69.527443
19423.215160	16876.971667	364.546875	189.635513
19423.215160	16876.971667	363.264648	122.978806
19423.215160	16876.971667	361.981445	38.365471
19423.215160	16876.971667	360.698242	2.239841
19423.215160	16876.971667	359.414063	164.449478
19423.215160	16876.971667	358.129883	202.863617
19423.215160	16876.971667	356.845703	120.921104
19423.215160	16876.971667	355.561523	19.110693
19423.215160	16876.971667	354.276367	-90.710670
19423.215160	16876.971667	352.991211	104.599594
19423.215160	16876.971667	351.706055	119.811890
19423.215160	16876.971667	350.420898	74.075493
19423.215160	16876.971667	349.134766	278.615479
19423.215160	16876.971667	347.848633	18.996397
19423.215160	16876.971667	346.561523	182.926910
19423.215160	16876.971667	345.275391	68.096420
19423.215160	16876.971667	343.988281	165.703339
19423.215160	16876.971667	342.700195	159.509521
19423.215160	16876.971667	341.413086	52.970570
19423.215160	16876.971667	340.125000	197.571365
19423.215160	16876.971667	338.836914	178.801559
19423.215160	16876.971667	337.548828	-76.302910
19423.215160	16876.971667	336.259766	-36.474186
19423.215160	16876.971667	334.970703	4.494846
19423.215160	16876.971667	333.681641	-92.588356
19423.215160	16876.971667	332.391602	-3.806045
19423.215160	16876.971667	331.101563	29.880819
19423.215160	16876.971667	329.811523	54.195412
19423.215160	16876.971667	328.521484	-19.087435
19423.215160	16876.971667	327.230469	-3.637598
19423.215160	16876.971667	325.939453	-123.202255
19423.215160	16876.971667	324.648438	-101.686996
19423.215160	16876.971667	323.356445	-30.791759
19423.215160	16876.971667	322.064453	-27.423443
19423.215160	16876.971667	320.772461	-59.478985
19423.215160	16876.971667	319.480469	-0.111551
19423.215160	16876.971667	318.187500	-79.675362
19423.215160	16876.971667	316.894531	-95.128281
19423.215160	16876.971667	315.601563	-87.216881
19423.215160	16876.971667	314.307617	-17.258667
19423.215160	16876.971667	313.013672	43.653919
19423.215160	16876.971667	311.719727	-2.627112
19423.215160	16876.971667	310.425781	-48.007259
19423.215160	16876.971667	309.130859	170.848587
19423.215160	16876.971667	307.835938	57.475853
19423.215160	16876.971667	306.541016	56.088558
19423.215160	16876.971667	305.245117	-54.795967
19423.215160	16876.971667	303.949219	79.321686
19423.215160	16876.971667	302.653320	-16.077930
19423.215160	16876.971667	301.356445	126.261932
19423.215160	16876.971667	300.060547	49.113995
19423.215160	16876.971667	298.763672	165.436478
