#X		#Y		#Wave		#Intensity
19456.956649	16935.242000	2000.043945	250.270187
19456.956649	16935.242000	1999.080078	-82.676651
19456.956649	16935.242000	1998.116211	-19.103319
19456.956649	16935.242000	1997.151367	-94.493843
19456.956649	16935.242000	1996.186523	-53.573029
19456.956649	16935.242000	1995.222656	-5.410764
19456.956649	16935.242000	1994.256836	-21.802809
19456.956649	16935.242000	1993.291992	162.230148
19456.956649	16935.242000	1992.327148	-35.238129
19456.956649	16935.242000	1991.361328	-64.443153
19456.956649	16935.242000	1990.395508	205.689545
19456.956649	16935.242000	1989.429688	-24.259371
19456.956649	16935.242000	1988.463867	5.517184
19456.956649	16935.242000	1987.497070	69.790611
19456.956649	16935.242000	1986.531250	-12.002438
19456.956649	16935.242000	1985.564453	-9.810080
19456.956649	16935.242000	1984.597656	-289.563354
19456.956649	16935.242000	1983.630859	-203.508316
19456.956649	16935.242000	1982.664063	-3.916471
19456.956649	16935.242000	1981.696289	296.808563
19456.956649	16935.242000	1980.728516	127.952652
19456.956649	16935.242000	1979.761719	35.622398
19456.956649	16935.242000	1978.792969	-187.635849
19456.956649	16935.242000	1977.825195	114.984276
19456.956649	16935.242000	1976.857422	-56.550339
19456.956649	16935.242000	1975.888672	-524.265442
19456.956649	16935.242000	1974.919922	49.439514
19456.956649	16935.242000	1973.951172	230.577423
19456.956649	16935.242000	1972.982422	-103.963814
19456.956649	16935.242000	1972.013672	-90.714386
19456.956649	16935.242000	1971.043945	-107.122627
19456.956649	16935.242000	1970.075195	191.964951
19456.956649	16935.242000	1969.105469	276.439484
19456.956649	16935.242000	1968.135742	-11.299630
19456.956649	16935.242000	1967.165039	11.470613
19456.956649	16935.242000	1966.195313	248.495728
19456.956649	16935.242000	1965.224609	207.062607
19456.956649	16935.242000	1964.253906	81.869431
19456.956649	16935.242000	1963.283203	23.149115
19456.956649	16935.242000	1962.312500	264.728241
19456.956649	16935.242000	1961.341797	149.300476
19456.956649	16935.242000	1960.370117	198.748245
19456.956649	16935.242000	1959.399414	137.422760
19456.956649	16935.242000	1958.427734	235.975052
19456.956649	16935.242000	1957.455078	86.065277
19456.956649	16935.242000	1956.483398	-100.709198
19456.956649	16935.242000	1955.511719	196.869568
19456.956649	16935.242000	1954.539063	295.214661
19456.956649	16935.242000	1953.566406	51.899075
19456.956649	16935.242000	1952.593750	-125.010963
19456.956649	16935.242000	1951.621094	128.031174
19456.956649	16935.242000	1950.647461	5.166790
19456.956649	16935.242000	1949.674805	78.780334
19456.956649	16935.242000	1948.701172	-53.888432
19456.956649	16935.242000	1947.727539	-19.598713
19456.956649	16935.242000	1946.753906	399.990784
19456.956649	16935.242000	1945.780273	240.293594
19456.956649	16935.242000	1944.805664	-61.649044
19456.956649	16935.242000	1943.831055	225.218002
19456.956649	16935.242000	1942.856445	374.628418
19456.956649	16935.242000	1941.881836	23.755281
19456.956649	16935.242000	1940.907227	-145.577972
19456.956649	16935.242000	1939.932617	79.776268
19456.956649	16935.242000	1938.957031	-35.598125
19456.956649	16935.242000	1937.981445	8.328380
19456.956649	16935.242000	1937.005859	62.035286
19456.956649	16935.242000	1936.030273	103.470802
19456.956649	16935.242000	1935.054688	78.768631
19456.956649	16935.242000	1934.078125	93.254616
19456.956649	16935.242000	1933.101563	249.713959
19456.956649	16935.242000	1932.125000	-19.747101
19456.956649	16935.242000	1931.148438	129.335068
19456.956649	16935.242000	1930.171875	146.248260
19456.956649	16935.242000	1929.194336	229.206802
19456.956649	16935.242000	1928.217773	25.989069
19456.956649	16935.242000	1927.240234	57.595219
19456.956649	16935.242000	1926.262695	20.739876
19456.956649	16935.242000	1925.284180	130.564957
19456.956649	16935.242000	1924.306641	-4.034157
19456.956649	16935.242000	1923.328125	37.350807
19456.956649	16935.242000	1922.350586	56.734287
19456.956649	16935.242000	1921.372070	166.493240
19456.956649	16935.242000	1920.392578	-368.471588
19456.956649	16935.242000	1919.414063	39.209591
19456.956649	16935.242000	1918.434570	263.665619
19456.956649	16935.242000	1917.456055	95.096260
19456.956649	16935.242000	1916.476563	-288.135284
19456.956649	16935.242000	1915.497070	-168.629272
19456.956649	16935.242000	1914.516602	282.585999
19456.956649	16935.242000	1913.537109	58.081196
19456.956649	16935.242000	1912.556641	-137.067627
19456.956649	16935.242000	1911.576172	-68.839798
19456.956649	16935.242000	1910.595703	-120.065346
19456.956649	16935.242000	1909.615234	-117.650528
19456.956649	16935.242000	1908.633789	182.036407
19456.956649	16935.242000	1907.653320	-124.973175
19456.956649	16935.242000	1906.671875	113.726746
19456.956649	16935.242000	1905.690430	194.060974
19456.956649	16935.242000	1904.708984	169.675858
19456.956649	16935.242000	1903.727539	-88.379898
19456.956649	16935.242000	1902.745117	16.310486
19456.956649	16935.242000	1901.762695	167.202927
19456.956649	16935.242000	1900.780273	26.096039
19456.956649	16935.242000	1899.797852	276.677094
19456.956649	16935.242000	1898.815430	281.535675
19456.956649	16935.242000	1897.832031	305.856079
19456.956649	16935.242000	1896.849609	6.835308
19456.956649	16935.242000	1895.866211	310.732788
19456.956649	16935.242000	1894.882813	96.892914
19456.956649	16935.242000	1893.898438	89.671799
19456.956649	16935.242000	1892.915039	-245.501251
19456.956649	16935.242000	1891.930664	-211.359039
19456.956649	16935.242000	1890.947266	-167.515274
19456.956649	16935.242000	1889.962891	51.129280
19456.956649	16935.242000	1888.977539	12.388636
19456.956649	16935.242000	1887.993164	-133.128342
19456.956649	16935.242000	1887.007813	-11.662295
19456.956649	16935.242000	1886.023438	112.178802
19456.956649	16935.242000	1885.038086	95.294907
19456.956649	16935.242000	1884.051758	430.074188
19456.956649	16935.242000	1883.066406	-33.015224
19456.956649	16935.242000	1882.081055	-224.412292
19456.956649	16935.242000	1881.094727	-49.735718
19456.956649	16935.242000	1880.108398	-231.362076
19456.956649	16935.242000	1879.122070	-88.252869
19456.956649	16935.242000	1878.135742	25.731928
19456.956649	16935.242000	1877.148438	-51.665115
19456.956649	16935.242000	1876.162109	323.791687
19456.956649	16935.242000	1875.174805	-49.015446
19456.956649	16935.242000	1874.187500	258.515381
19456.956649	16935.242000	1873.199219	260.984070
19456.956649	16935.242000	1872.211914	-346.332642
19456.956649	16935.242000	1871.223633	-5.064364
19456.956649	16935.242000	1870.236328	-454.897278
19456.956649	16935.242000	1869.248047	-58.130920
19456.956649	16935.242000	1868.258789	-249.072678
19456.956649	16935.242000	1867.270508	-207.883286
19456.956649	16935.242000	1866.282227	-21.697296
19456.956649	16935.242000	1865.292969	-11.996930
19456.956649	16935.242000	1864.303711	-55.467415
19456.956649	16935.242000	1863.314453	-62.699318
19456.956649	16935.242000	1862.324219	-19.217899
19456.956649	16935.242000	1861.334961	-60.289280
19456.956649	16935.242000	1860.344727	202.845291
19456.956649	16935.242000	1859.354492	-96.559898
19456.956649	16935.242000	1858.364258	31.301035
19456.956649	16935.242000	1857.374023	190.464447
19456.956649	16935.242000	1856.383789	98.652252
19456.956649	16935.242000	1855.392578	-111.330902
19456.956649	16935.242000	1854.401367	129.710739
19456.956649	16935.242000	1853.410156	117.473656
19456.956649	16935.242000	1852.418945	-32.189381
19456.956649	16935.242000	1851.426758	235.155090
19456.956649	16935.242000	1850.435547	-85.612198
19456.956649	16935.242000	1849.443359	258.692841
19456.956649	16935.242000	1848.451172	-45.142132
19456.956649	16935.242000	1847.458984	70.177017
19456.956649	16935.242000	1846.466797	-38.512596
19456.956649	16935.242000	1845.473633	136.900085
19456.956649	16935.242000	1844.480469	-113.826508
19456.956649	16935.242000	1843.487305	83.136940
19456.956649	16935.242000	1842.494141	494.145111
19456.956649	16935.242000	1841.500977	-90.988297
19456.956649	16935.242000	1840.506836	60.076126
19456.956649	16935.242000	1839.513672	453.930634
19456.956649	16935.242000	1838.519531	539.854431
19456.956649	16935.242000	1837.525391	-73.819664
19456.956649	16935.242000	1836.530273	89.017220
19456.956649	16935.242000	1835.536133	83.545486
19456.956649	16935.242000	1834.541016	102.069458
19456.956649	16935.242000	1833.545898	-150.884506
19456.956649	16935.242000	1832.550781	30.911358
19456.956649	16935.242000	1831.555664	231.811768
19456.956649	16935.242000	1830.560547	228.536667
19456.956649	16935.242000	1829.564453	-46.002609
19456.956649	16935.242000	1828.568359	233.876755
19456.956649	16935.242000	1827.572266	264.076355
19456.956649	16935.242000	1826.576172	227.054428
19456.956649	16935.242000	1825.580078	26.907927
19456.956649	16935.242000	1824.583008	184.098755
19456.956649	16935.242000	1823.585938	305.224030
19456.956649	16935.242000	1822.588867	169.769318
19456.956649	16935.242000	1821.591797	-59.148853
19456.956649	16935.242000	1820.594727	378.113312
19456.956649	16935.242000	1819.596680	400.705048
19456.956649	16935.242000	1818.599609	528.628540
19456.956649	16935.242000	1817.601563	232.573441
19456.956649	16935.242000	1816.603516	-20.321735
19456.956649	16935.242000	1815.604492	-0.259506
19456.956649	16935.242000	1814.606445	-102.325195
19456.956649	16935.242000	1813.607422	188.055313
19456.956649	16935.242000	1812.608398	50.003147
19456.956649	16935.242000	1811.609375	318.611389
19456.956649	16935.242000	1810.610352	288.104004
19456.956649	16935.242000	1809.610352	145.170807
19456.956649	16935.242000	1808.611328	-79.052177
19456.956649	16935.242000	1807.611328	141.356262
19456.956649	16935.242000	1806.611328	292.318359
19456.956649	16935.242000	1805.610352	419.275696
19456.956649	16935.242000	1804.610352	161.501450
19456.956649	16935.242000	1803.609375	116.348106
19456.956649	16935.242000	1802.608398	171.451035
19456.956649	16935.242000	1801.607422	333.915100
19456.956649	16935.242000	1800.606445	92.827682
19456.956649	16935.242000	1799.605469	35.549530
19456.956649	16935.242000	1798.603516	47.433971
19456.956649	16935.242000	1797.601563	137.983902
19456.956649	16935.242000	1796.599609	137.794525
19456.956649	16935.242000	1795.597656	204.320358
19456.956649	16935.242000	1794.595703	-117.909767
19456.956649	16935.242000	1793.592773	132.082199
19456.956649	16935.242000	1792.589844	103.037773
19456.956649	16935.242000	1791.587891	321.780792
19456.956649	16935.242000	1790.583984	373.593750
19456.956649	16935.242000	1789.581055	172.806503
19456.956649	16935.242000	1788.577148	238.785446
19456.956649	16935.242000	1787.574219	128.456375
19456.956649	16935.242000	1786.570313	310.945251
19456.956649	16935.242000	1785.566406	536.144470
19456.956649	16935.242000	1784.561523	339.941772
19456.956649	16935.242000	1783.557617	422.144379
19456.956649	16935.242000	1782.552734	164.043793
19456.956649	16935.242000	1781.547852	186.645996
19456.956649	16935.242000	1780.542969	256.731873
19456.956649	16935.242000	1779.538086	212.592102
19456.956649	16935.242000	1778.532227	227.828888
19456.956649	16935.242000	1777.527344	250.117554
19456.956649	16935.242000	1776.521484	291.338654
19456.956649	16935.242000	1775.515625	142.402939
19456.956649	16935.242000	1774.508789	69.463234
19456.956649	16935.242000	1773.502930	134.228607
19456.956649	16935.242000	1772.496094	-67.051758
19456.956649	16935.242000	1771.489258	49.796925
19456.956649	16935.242000	1770.482422	-87.448265
19456.956649	16935.242000	1769.475586	-172.508270
19456.956649	16935.242000	1768.467773	-22.709183
19456.956649	16935.242000	1767.460938	153.053528
19456.956649	16935.242000	1766.453125	269.377899
19456.956649	16935.242000	1765.445313	314.443085
19456.956649	16935.242000	1764.437500	342.817291
19456.956649	16935.242000	1763.428711	473.037354
19456.956649	16935.242000	1762.420898	53.288696
19456.956649	16935.242000	1761.412109	76.731178
19456.956649	16935.242000	1760.403320	230.388123
19456.956649	16935.242000	1759.393555	391.016907
19456.956649	16935.242000	1758.384766	295.742950
19456.956649	16935.242000	1757.375000	8.637737
19456.956649	16935.242000	1756.366211	147.682480
19456.956649	16935.242000	1755.356445	7.305789
19456.956649	16935.242000	1754.345703	89.349174
19456.956649	16935.242000	1753.335938	140.524811
19456.956649	16935.242000	1752.325195	89.887840
19456.956649	16935.242000	1751.315430	339.553101
19456.956649	16935.242000	1750.304688	0.261036
19456.956649	16935.242000	1749.292969	20.368834
19456.956649	16935.242000	1748.282227	82.939056
19456.956649	16935.242000	1747.270508	-152.362473
19456.956649	16935.242000	1746.259766	-99.388878
19456.956649	16935.242000	1745.248047	-6.355491
19456.956649	16935.242000	1744.235352	268.430878
19456.956649	16935.242000	1743.223633	-101.640205
19456.956649	16935.242000	1742.211914	130.406509
19456.956649	16935.242000	1741.199219	-67.334793
19456.956649	16935.242000	1740.186523	74.776131
19456.956649	16935.242000	1739.173828	-78.202019
19456.956649	16935.242000	1738.160156	-92.007301
19456.956649	16935.242000	1737.147461	-174.288300
19456.956649	16935.242000	1736.133789	-188.224411
19456.956649	16935.242000	1735.120117	7.614089
19456.956649	16935.242000	1734.106445	66.573074
19456.956649	16935.242000	1733.091797	-74.911995
19456.956649	16935.242000	1732.078125	-221.129532
19456.956649	16935.242000	1731.063477	35.511856
19456.956649	16935.242000	1730.048828	-16.602579
19456.956649	16935.242000	1729.034180	-200.664032
19456.956649	16935.242000	1728.019531	-149.260132
19456.956649	16935.242000	1727.003906	-109.727287
19456.956649	16935.242000	1725.988281	-176.205292
19456.956649	16935.242000	1724.972656	152.628372
19456.956649	16935.242000	1723.957031	-5.790461
19456.956649	16935.242000	1722.941406	-187.746658
19456.956649	16935.242000	1721.924805	-92.176476
19456.956649	16935.242000	1720.909180	-74.315903
19456.956649	16935.242000	1719.892578	-42.432362
19456.956649	16935.242000	1718.875977	-161.077225
19456.956649	16935.242000	1717.858398	-204.548309
19456.956649	16935.242000	1716.841797	33.897503
19456.956649	16935.242000	1715.824219	-263.464722
19456.956649	16935.242000	1714.806641	-213.156784
19456.956649	16935.242000	1713.789063	-97.186043
19456.956649	16935.242000	1712.770508	-272.479553
19456.956649	16935.242000	1711.752930	136.751480
19456.956649	16935.242000	1710.734375	160.834229
19456.956649	16935.242000	1709.715820	41.692619
19456.956649	16935.242000	1708.697266	-28.202183
19456.956649	16935.242000	1707.678711	-196.662216
19456.956649	16935.242000	1706.659180	-175.165619
19456.956649	16935.242000	1705.640625	-78.707909
19456.956649	16935.242000	1704.621094	-80.825928
19456.956649	16935.242000	1703.600586	-36.136539
19456.956649	16935.242000	1702.581055	-26.679796
19456.956649	16935.242000	1701.561523	-94.613579
19456.956649	16935.242000	1700.541016	104.458672
19456.956649	16935.242000	1699.520508	66.832756
19456.956649	16935.242000	1698.500000	-111.342346
19456.956649	16935.242000	1697.478516	-226.306946
19456.956649	16935.242000	1696.458008	-51.033875
19456.956649	16935.242000	1695.436523	266.858948
19456.956649	16935.242000	1694.415039	512.030945
19456.956649	16935.242000	1693.393555	116.049065
19456.956649	16935.242000	1692.372070	295.537018
19456.956649	16935.242000	1691.349609	65.650719
19456.956649	16935.242000	1690.327148	310.416992
19456.956649	16935.242000	1689.304688	274.514221
19456.956649	16935.242000	1688.282227	413.851288
19456.956649	16935.242000	1687.259766	258.649506
19456.956649	16935.242000	1686.236328	117.461052
19456.956649	16935.242000	1685.213867	462.121063
19456.956649	16935.242000	1684.190430	337.176483
19456.956649	16935.242000	1683.166016	55.780216
19456.956649	16935.242000	1682.142578	199.310699
19456.956649	16935.242000	1681.119141	352.066101
19456.956649	16935.242000	1680.094727	140.664764
19456.956649	16935.242000	1679.070313	237.261169
19456.956649	16935.242000	1678.045898	371.090454
19456.956649	16935.242000	1677.020508	94.337181
19456.956649	16935.242000	1675.996094	169.741776
19456.956649	16935.242000	1674.970703	298.676575
19456.956649	16935.242000	1673.945313	369.241669
19456.956649	16935.242000	1672.919922	278.928101
19456.956649	16935.242000	1671.893555	141.994446
19456.956649	16935.242000	1670.868164	356.828125
19456.956649	16935.242000	1669.841797	294.365479
19456.956649	16935.242000	1668.815430	350.636627
19456.956649	16935.242000	1667.789063	318.370850
19456.956649	16935.242000	1666.761719	323.309021
19456.956649	16935.242000	1665.735352	442.239410
19456.956649	16935.242000	1664.708008	286.512024
19456.956649	16935.242000	1663.680664	416.942383
19456.956649	16935.242000	1662.653320	347.250031
19456.956649	16935.242000	1661.625000	286.837830
19456.956649	16935.242000	1660.597656	572.843994
19456.956649	16935.242000	1659.569336	437.944489
19456.956649	16935.242000	1658.541016	240.304550
19456.956649	16935.242000	1657.512695	549.264893
19456.956649	16935.242000	1656.483398	628.060303
19456.956649	16935.242000	1655.455078	618.530518
19456.956649	16935.242000	1654.425781	474.267151
19456.956649	16935.242000	1653.396484	687.591980
19456.956649	16935.242000	1652.366211	740.614624
19456.956649	16935.242000	1651.336914	399.024689
19456.956649	16935.242000	1650.306641	523.952759
19456.956649	16935.242000	1649.276367	873.849487
19456.956649	16935.242000	1648.246094	873.313538
19456.956649	16935.242000	1647.215820	935.367310
19456.956649	16935.242000	1646.185547	930.125000
19456.956649	16935.242000	1645.154297	934.121948
19456.956649	16935.242000	1644.123047	956.631287
19456.956649	16935.242000	1643.091797	983.741882
19456.956649	16935.242000	1642.060547	1052.521118
19456.956649	16935.242000	1641.028320	1056.381104
19456.956649	16935.242000	1639.997070	962.949646
19456.956649	16935.242000	1638.964844	1024.669189
19456.956649	16935.242000	1637.931641	1264.601318
19456.956649	16935.242000	1636.899414	1226.664795
19456.956649	16935.242000	1635.867188	1413.203491
19456.956649	16935.242000	1634.833984	1238.691895
19456.956649	16935.242000	1633.800781	1048.038330
19456.956649	16935.242000	1632.767578	1255.259277
19456.956649	16935.242000	1631.734375	1127.078613
19456.956649	16935.242000	1630.700195	966.558533
19456.956649	16935.242000	1629.666016	1340.054810
19456.956649	16935.242000	1628.631836	1140.240112
19456.956649	16935.242000	1627.597656	1273.224976
19456.956649	16935.242000	1626.563477	1373.803345
19456.956649	16935.242000	1625.528320	1176.369629
19456.956649	16935.242000	1624.493164	1581.730591
19456.956649	16935.242000	1623.458008	1358.918579
19456.956649	16935.242000	1622.422852	1540.157227
19456.956649	16935.242000	1621.387695	1474.367432
19456.956649	16935.242000	1620.351563	1676.262207
19456.956649	16935.242000	1619.315430	1538.937134
19456.956649	16935.242000	1618.279297	1463.942261
19456.956649	16935.242000	1617.243164	1584.997314
19456.956649	16935.242000	1616.207031	2127.950928
19456.956649	16935.242000	1615.169922	1571.074707
19456.956649	16935.242000	1614.132813	1821.103027
19456.956649	16935.242000	1613.095703	1925.859253
19456.956649	16935.242000	1612.058594	1832.442139
19456.956649	16935.242000	1611.020508	2040.814453
19456.956649	16935.242000	1609.983398	2064.875732
19456.956649	16935.242000	1608.945313	2019.849854
19456.956649	16935.242000	1607.907227	1845.930054
19456.956649	16935.242000	1606.868164	1994.313721
19456.956649	16935.242000	1605.830078	1677.808594
19456.956649	16935.242000	1604.791016	1522.485962
19456.956649	16935.242000	1603.751953	1397.138916
19456.956649	16935.242000	1602.712891	2122.809570
19456.956649	16935.242000	1601.673828	1698.494873
19456.956649	16935.242000	1600.633789	1957.152222
19456.956649	16935.242000	1599.594727	1670.979736
19456.956649	16935.242000	1598.554688	1729.640625
19456.956649	16935.242000	1597.513672	1627.456299
19456.956649	16935.242000	1596.473633	1637.898438
19456.956649	16935.242000	1595.433594	1662.138916
19456.956649	16935.242000	1594.392578	1973.420166
19456.956649	16935.242000	1593.351563	1485.648560
19456.956649	16935.242000	1592.310547	1907.067139
19456.956649	16935.242000	1591.268555	1747.719238
19456.956649	16935.242000	1590.227539	1978.529175
19456.956649	16935.242000	1589.185547	1608.227173
19456.956649	16935.242000	1588.143555	1646.357788
19456.956649	16935.242000	1587.100586	1789.982178
19456.956649	16935.242000	1586.058594	1688.266602
19456.956649	16935.242000	1585.015625	1673.720581
19456.956649	16935.242000	1583.972656	1540.039185
19456.956649	16935.242000	1582.929688	2025.110107
19456.956649	16935.242000	1581.886719	1996.860229
19456.956649	16935.242000	1580.843750	1741.899780
19456.956649	16935.242000	1579.799805	1853.471924
19456.956649	16935.242000	1578.755859	1791.028931
19456.956649	16935.242000	1577.711914	1799.613037
19456.956649	16935.242000	1576.666992	2069.135010
19456.956649	16935.242000	1575.623047	1645.266602
19456.956649	16935.242000	1574.578125	1928.519775
19456.956649	16935.242000	1573.533203	2021.856812
19456.956649	16935.242000	1572.488281	1767.595093
19456.956649	16935.242000	1571.443359	1906.743408
19456.956649	16935.242000	1570.397461	1929.291138
19456.956649	16935.242000	1569.351563	1602.190552
19456.956649	16935.242000	1568.305664	1976.786255
19456.956649	16935.242000	1567.259766	1713.870239
19456.956649	16935.242000	1566.213867	1805.154419
19456.956649	16935.242000	1565.166992	1569.874634
19456.956649	16935.242000	1564.120117	1663.531372
19456.956649	16935.242000	1563.073242	1811.992920
19456.956649	16935.242000	1562.026367	1570.158691
19456.956649	16935.242000	1560.978516	1830.496948
19456.956649	16935.242000	1559.930664	1892.299194
19456.956649	16935.242000	1558.883789	1682.692627
19456.956649	16935.242000	1557.834961	1320.414673
19456.956649	16935.242000	1556.787109	1216.001343
19456.956649	16935.242000	1555.739258	1091.171021
19456.956649	16935.242000	1554.690430	1296.935425
19456.956649	16935.242000	1553.641602	1409.249512
19456.956649	16935.242000	1552.592773	1268.684570
19456.956649	16935.242000	1551.542969	1237.572876
19456.956649	16935.242000	1550.494141	637.178772
19456.956649	16935.242000	1549.444336	813.540466
19456.956649	16935.242000	1548.394531	1187.960449
19456.956649	16935.242000	1547.344727	1052.449585
19456.956649	16935.242000	1546.293945	907.953430
19456.956649	16935.242000	1545.244141	950.155640
19456.956649	16935.242000	1544.193359	967.384216
19456.956649	16935.242000	1543.142578	957.384644
19456.956649	16935.242000	1542.090820	986.112732
19456.956649	16935.242000	1541.040039	1130.851074
19456.956649	16935.242000	1539.988281	932.383301
19456.956649	16935.242000	1538.936523	920.413635
19456.956649	16935.242000	1537.884766	1331.132324
19456.956649	16935.242000	1536.833008	1037.557983
19456.956649	16935.242000	1535.780273	1141.630859
19456.956649	16935.242000	1534.727539	1179.888916
19456.956649	16935.242000	1533.674805	1363.508667
19456.956649	16935.242000	1532.622070	1297.453979
19456.956649	16935.242000	1531.569336	1106.688354
19456.956649	16935.242000	1530.515625	1120.281738
19456.956649	16935.242000	1529.461914	920.712769
19456.956649	16935.242000	1528.408203	1013.884705
19456.956649	16935.242000	1527.354492	805.513184
19456.956649	16935.242000	1526.299805	771.875183
19456.956649	16935.242000	1525.246094	1239.282349
19456.956649	16935.242000	1524.191406	840.877747
19456.956649	16935.242000	1523.136719	825.639954
19456.956649	16935.242000	1522.081055	1191.072754
19456.956649	16935.242000	1521.026367	759.203796
19456.956649	16935.242000	1519.970703	850.684875
19456.956649	16935.242000	1518.915039	833.546631
19456.956649	16935.242000	1517.859375	646.739014
19456.956649	16935.242000	1516.802734	525.725342
19456.956649	16935.242000	1515.747070	341.499115
19456.956649	16935.242000	1514.690430	383.660187
19456.956649	16935.242000	1513.633789	317.334503
19456.956649	16935.242000	1512.577148	438.819550
19456.956649	16935.242000	1511.519531	494.786163
19456.956649	16935.242000	1510.461914	528.221313
19456.956649	16935.242000	1509.405273	674.742371
19456.956649	16935.242000	1508.346680	414.581635
19456.956649	16935.242000	1507.289063	299.207336
19456.956649	16935.242000	1506.231445	278.841156
19456.956649	16935.242000	1505.172852	19.211027
19456.956649	16935.242000	1504.114258	3.623622
19456.956649	16935.242000	1503.055664	58.118595
19456.956649	16935.242000	1501.996094	338.379181
19456.956649	16935.242000	1500.937500	228.273178
19456.956649	16935.242000	1499.877930	111.547394
19456.956649	16935.242000	1498.818359	-25.329872
19456.956649	16935.242000	1497.757813	0.317171
19456.956649	16935.242000	1496.698242	89.187492
19456.956649	16935.242000	1495.637695	38.370491
19456.956649	16935.242000	1494.577148	188.261765
19456.956649	16935.242000	1493.516602	137.658676
19456.956649	16935.242000	1492.456055	195.319565
19456.956649	16935.242000	1491.394531	63.864109
19456.956649	16935.242000	1490.333008	-80.939484
19456.956649	16935.242000	1489.271484	141.413162
19456.956649	16935.242000	1488.209961	12.627599
19456.956649	16935.242000	1487.148438	192.333176
19456.956649	16935.242000	1486.085938	-35.195637
19456.956649	16935.242000	1485.023438	25.437704
19456.956649	16935.242000	1483.960938	182.876205
19456.956649	16935.242000	1482.898438	92.999191
19456.956649	16935.242000	1481.834961	151.671356
19456.956649	16935.242000	1480.772461	309.340393
19456.956649	16935.242000	1479.708984	336.711975
19456.956649	16935.242000	1478.644531	339.476227
19456.956649	16935.242000	1477.581055	25.619240
19456.956649	16935.242000	1476.517578	426.171906
19456.956649	16935.242000	1475.453125	586.437012
19456.956649	16935.242000	1474.388672	86.888077
19456.956649	16935.242000	1473.323242	274.236267
19456.956649	16935.242000	1472.258789	75.972412
19456.956649	16935.242000	1471.193359	198.444443
19456.956649	16935.242000	1470.127930	-62.476185
19456.956649	16935.242000	1469.062500	-190.662216
19456.956649	16935.242000	1467.997070	-41.076248
19456.956649	16935.242000	1466.930664	97.481766
19456.956649	16935.242000	1465.865234	-43.776051
19456.956649	16935.242000	1464.798828	108.347115
19456.956649	16935.242000	1463.731445	300.998322
19456.956649	16935.242000	1462.665039	234.156586
19456.956649	16935.242000	1461.597656	419.718567
19456.956649	16935.242000	1460.530273	375.298828
19456.956649	16935.242000	1459.462891	258.065491
19456.956649	16935.242000	1458.395508	319.052032
19456.956649	16935.242000	1457.327148	422.566772
19456.956649	16935.242000	1456.259766	478.931091
19456.956649	16935.242000	1455.191406	352.544891
19456.956649	16935.242000	1454.123047	233.201691
19456.956649	16935.242000	1453.053711	379.682922
19456.956649	16935.242000	1451.985352	333.818817
19456.956649	16935.242000	1450.916016	413.115570
19456.956649	16935.242000	1449.846680	234.479462
19456.956649	16935.242000	1448.776367	274.512695
19456.956649	16935.242000	1447.707031	205.976166
19456.956649	16935.242000	1446.636719	437.583984
19456.956649	16935.242000	1445.566406	-43.799076
19456.956649	16935.242000	1444.496094	-108.317467
19456.956649	16935.242000	1443.425781	23.569880
19456.956649	16935.242000	1442.354492	-290.711975
19456.956649	16935.242000	1441.283203	32.435627
19456.956649	16935.242000	1440.211914	62.901398
19456.956649	16935.242000	1439.140625	-377.084198
19456.956649	16935.242000	1438.069336	-106.657875
19456.956649	16935.242000	1436.997070	-10.218265
19456.956649	16935.242000	1435.924805	-202.579422
19456.956649	16935.242000	1434.852539	1.867982
19456.956649	16935.242000	1433.780273	-38.585064
19456.956649	16935.242000	1432.707031	-325.793823
19456.956649	16935.242000	1431.633789	-325.768127
19456.956649	16935.242000	1430.560547	32.493866
19456.956649	16935.242000	1429.487305	-213.587982
19456.956649	16935.242000	1428.413086	90.777969
19456.956649	16935.242000	1427.339844	-166.173386
19456.956649	16935.242000	1426.265625	-233.671051
19456.956649	16935.242000	1425.191406	-259.450256
19456.956649	16935.242000	1424.116211	303.634552
19456.956649	16935.242000	1423.041992	-14.743175
19456.956649	16935.242000	1421.966797	-342.911224
19456.956649	16935.242000	1420.891602	-220.023285
19456.956649	16935.242000	1419.816406	-9.962337
19456.956649	16935.242000	1418.740234	-234.836182
19456.956649	16935.242000	1417.665039	-108.224556
19456.956649	16935.242000	1416.588867	114.926720
19456.956649	16935.242000	1415.512695	62.412567
19456.956649	16935.242000	1414.435547	148.926361
19456.956649	16935.242000	1413.359375	-57.827396
19456.956649	16935.242000	1412.282227	112.815689
19456.956649	16935.242000	1411.205078	196.515289
19456.956649	16935.242000	1410.127930	186.687180
19456.956649	16935.242000	1409.049805	20.847486
19456.956649	16935.242000	1407.972656	474.533539
19456.956649	16935.242000	1406.894531	321.129547
19456.956649	16935.242000	1405.816406	179.318054
19456.956649	16935.242000	1404.737305	494.537445
19456.956649	16935.242000	1403.659180	350.408112
19456.956649	16935.242000	1402.580078	473.649078
19456.956649	16935.242000	1401.500977	606.270569
19456.956649	16935.242000	1400.421875	543.932312
19456.956649	16935.242000	1399.341797	404.563507
19456.956649	16935.242000	1398.262695	642.707214
19456.956649	16935.242000	1397.182617	468.773041
19456.956649	16935.242000	1396.102539	440.516541
19456.956649	16935.242000	1395.021484	516.265747
19456.956649	16935.242000	1393.941406	238.701553
19456.956649	16935.242000	1392.860352	590.519409
19456.956649	16935.242000	1391.779297	447.083893
19456.956649	16935.242000	1390.698242	174.726654
19456.956649	16935.242000	1389.616211	428.998779
19456.956649	16935.242000	1388.535156	502.978455
19456.956649	16935.242000	1387.453125	315.467712
19456.956649	16935.242000	1386.371094	360.351990
19456.956649	16935.242000	1385.288086	852.235596
19456.956649	16935.242000	1384.206055	810.883240
19456.956649	16935.242000	1383.123047	688.457153
19456.956649	16935.242000	1382.040039	561.121643
19456.956649	16935.242000	1380.957031	437.319641
19456.956649	16935.242000	1379.873047	654.255371
19456.956649	16935.242000	1378.789063	543.915161
19456.956649	16935.242000	1377.705078	889.417542
19456.956649	16935.242000	1376.621094	627.578491
19456.956649	16935.242000	1375.537109	532.432556
19456.956649	16935.242000	1374.452148	730.024353
19456.956649	16935.242000	1373.367188	597.427551
19456.956649	16935.242000	1372.282227	555.241089
19456.956649	16935.242000	1371.197266	462.804352
19456.956649	16935.242000	1370.112305	586.019043
19456.956649	16935.242000	1369.026367	499.717346
19456.956649	16935.242000	1367.940430	695.482117
19456.956649	16935.242000	1366.854492	412.461151
19456.956649	16935.242000	1365.767578	577.221313
19456.956649	16935.242000	1364.681641	380.201416
19456.956649	16935.242000	1363.594727	423.881470
19456.956649	16935.242000	1362.507813	331.353607
19456.956649	16935.242000	1361.419922	388.081482
19456.956649	16935.242000	1360.333008	727.100708
19456.956649	16935.242000	1359.245117	440.521027
19456.956649	16935.242000	1358.157227	486.766144
19456.956649	16935.242000	1357.069336	553.526794
19456.956649	16935.242000	1355.981445	376.015137
19456.956649	16935.242000	1354.892578	467.433685
19456.956649	16935.242000	1353.803711	500.799469
19456.956649	16935.242000	1352.714844	329.178223
19456.956649	16935.242000	1351.625000	437.862427
19456.956649	16935.242000	1350.536133	270.089233
19456.956649	16935.242000	1349.446289	437.684723
19456.956649	16935.242000	1348.356445	468.311981
19456.956649	16935.242000	1347.266602	629.255371
19456.956649	16935.242000	1346.175781	712.050049
19456.956649	16935.242000	1345.085938	699.545532
19456.956649	16935.242000	1343.995117	449.021881
19456.956649	16935.242000	1342.903320	733.919922
19456.956649	16935.242000	1341.812500	742.662903
19456.956649	16935.242000	1340.720703	667.572327
19456.956649	16935.242000	1339.629883	746.506592
19456.956649	16935.242000	1338.538086	746.518066
19456.956649	16935.242000	1337.445313	714.307312
19456.956649	16935.242000	1336.353516	750.255737
19456.956649	16935.242000	1335.260742	536.738281
19456.956649	16935.242000	1334.167969	812.336914
19456.956649	16935.242000	1333.075195	761.687439
19456.956649	16935.242000	1331.981445	640.560364
19456.956649	16935.242000	1330.888672	371.168213
19456.956649	16935.242000	1329.794922	415.746216
19456.956649	16935.242000	1328.701172	526.100342
19456.956649	16935.242000	1327.606445	396.561890
19456.956649	16935.242000	1326.512695	594.172913
19456.956649	16935.242000	1325.417969	691.729675
19456.956649	16935.242000	1324.323242	490.043762
19456.956649	16935.242000	1323.227539	561.802124
19456.956649	16935.242000	1322.132813	427.694733
19456.956649	16935.242000	1321.037109	263.330872
19456.956649	16935.242000	1319.941406	478.865540
19456.956649	16935.242000	1318.845703	535.172913
19456.956649	16935.242000	1317.750000	557.103638
19456.956649	16935.242000	1316.653320	107.044342
19456.956649	16935.242000	1315.556641	413.356812
19456.956649	16935.242000	1314.459961	81.922943
19456.956649	16935.242000	1313.363281	195.224289
19456.956649	16935.242000	1312.265625	97.434807
19456.956649	16935.242000	1311.167969	106.572243
19456.956649	16935.242000	1310.070313	43.418888
19456.956649	16935.242000	1308.972656	142.053925
19456.956649	16935.242000	1307.874023	254.874207
19456.956649	16935.242000	1306.776367	-39.059219
19456.956649	16935.242000	1305.677734	183.044418
19456.956649	16935.242000	1304.579102	286.118469
19456.956649	16935.242000	1303.479492	105.860809
19456.956649	16935.242000	1302.380859	337.201141
19456.956649	16935.242000	1301.281250	256.358368
19456.956649	16935.242000	1300.181641	125.607483
19456.956649	16935.242000	1299.081055	183.708984
19456.956649	16935.242000	1297.981445	236.510132
19456.956649	16935.242000	1296.880859	163.189285
19456.956649	16935.242000	1295.780273	358.232025
19456.956649	16935.242000	1294.679688	199.660919
19456.956649	16935.242000	1293.578125	341.961334
19456.956649	16935.242000	1292.476563	273.253479
19456.956649	16935.242000	1291.375000	418.677094
19456.956649	16935.242000	1290.273438	545.864014
19456.956649	16935.242000	1289.171875	268.100372
19456.956649	16935.242000	1288.069336	318.262482
19456.956649	16935.242000	1286.966797	339.439056
19456.956649	16935.242000	1285.864258	502.801025
19456.956649	16935.242000	1284.761719	207.597427
19456.956649	16935.242000	1283.658203	237.571869
19456.956649	16935.242000	1282.554688	-35.919510
19456.956649	16935.242000	1281.451172	367.184845
19456.956649	16935.242000	1280.347656	642.362427
19456.956649	16935.242000	1279.244141	460.528412
19456.956649	16935.242000	1278.139648	595.854248
19456.956649	16935.242000	1277.035156	689.941956
19456.956649	16935.242000	1275.930664	552.771118
19456.956649	16935.242000	1274.825195	826.681213
19456.956649	16935.242000	1273.720703	712.298889
19456.956649	16935.242000	1272.615234	836.028931
19456.956649	16935.242000	1271.508789	861.970093
19456.956649	16935.242000	1270.403320	849.738892
19456.956649	16935.242000	1269.297852	752.030579
19456.956649	16935.242000	1268.191406	904.962158
19456.956649	16935.242000	1267.084961	649.237000
19456.956649	16935.242000	1265.977539	664.708618
19456.956649	16935.242000	1264.871094	639.258911
19456.956649	16935.242000	1263.763672	660.466919
19456.956649	16935.242000	1262.656250	679.662903
19456.956649	16935.242000	1261.548828	749.824280
19456.956649	16935.242000	1260.440430	634.931702
19456.956649	16935.242000	1259.333008	417.032898
19456.956649	16935.242000	1258.224609	561.285278
19456.956649	16935.242000	1257.115234	397.344269
19456.956649	16935.242000	1256.006836	428.901917
19456.956649	16935.242000	1254.897461	80.344376
19456.956649	16935.242000	1253.788086	50.708595
19456.956649	16935.242000	1252.678711	190.774887
19456.956649	16935.242000	1251.569336	79.550102
19456.956649	16935.242000	1250.458984	33.950588
19456.956649	16935.242000	1249.349609	199.162354
19456.956649	16935.242000	1248.239258	192.962372
19456.956649	16935.242000	1247.127930	300.484528
19456.956649	16935.242000	1246.017578	213.877625
19456.956649	16935.242000	1244.906250	23.807423
19456.956649	16935.242000	1243.794922	143.578308
19456.956649	16935.242000	1242.683594	146.302658
19456.956649	16935.242000	1241.571289	265.891022
19456.956649	16935.242000	1240.459961	-5.683613
19456.956649	16935.242000	1239.347656	-134.278870
19456.956649	16935.242000	1238.234375	19.678593
19456.956649	16935.242000	1237.122070	-114.867622
19456.956649	16935.242000	1236.008789	-36.388340
19456.956649	16935.242000	1234.896484	-39.227070
19456.956649	16935.242000	1233.782227	-50.546566
19456.956649	16935.242000	1232.668945	33.730129
19456.956649	16935.242000	1231.555664	67.328110
19456.956649	16935.242000	1230.441406	46.697094
19456.956649	16935.242000	1229.327148	-203.505035
19456.956649	16935.242000	1228.211914	-406.629364
19456.956649	16935.242000	1227.097656	-210.068222
19456.956649	16935.242000	1225.982422	-258.602905
19456.956649	16935.242000	1224.867188	-344.223969
19456.956649	16935.242000	1223.751953	-269.069031
19456.956649	16935.242000	1222.635742	-319.991089
19456.956649	16935.242000	1221.520508	-244.173462
19456.956649	16935.242000	1220.404297	-341.502930
19456.956649	16935.242000	1219.287109	-252.009644
19456.956649	16935.242000	1218.170898	-233.945282
19456.956649	16935.242000	1217.053711	-370.202484
19456.956649	16935.242000	1215.936523	-120.746361
19456.956649	16935.242000	1214.819336	-234.808228
19456.956649	16935.242000	1213.702148	-36.881104
19456.956649	16935.242000	1212.583984	-305.771149
19456.956649	16935.242000	1211.465820	-158.976624
19456.956649	16935.242000	1210.347656	-464.463196
19456.956649	16935.242000	1209.229492	-129.637970
19456.956649	16935.242000	1208.110352	-254.141052
19456.956649	16935.242000	1206.992188	54.992889
19456.956649	16935.242000	1205.873047	41.162090
19456.956649	16935.242000	1204.752930	99.514130
19456.956649	16935.242000	1203.633789	58.237160
19456.956649	16935.242000	1202.513672	168.412903
19456.956649	16935.242000	1201.393555	92.019806
19456.956649	16935.242000	1200.273438	314.504364
19456.956649	16935.242000	1199.152344	186.507568
19456.956649	16935.242000	1198.032227	238.682617
19456.956649	16935.242000	1196.911133	191.613007
19456.956649	16935.242000	1195.790039	206.876938
19456.956649	16935.242000	1194.667969	165.330185
19456.956649	16935.242000	1193.545898	396.287323
19456.956649	16935.242000	1192.424805	335.264160
19456.956649	16935.242000	1191.301758	321.505157
19456.956649	16935.242000	1190.179688	352.393311
19456.956649	16935.242000	1189.056641	134.674011
19456.956649	16935.242000	1187.933594	263.093536
19456.956649	16935.242000	1186.810547	185.518433
19456.956649	16935.242000	1185.687500	171.912796
19456.956649	16935.242000	1184.563477	96.860764
19456.956649	16935.242000	1183.440430	166.029877
19456.956649	16935.242000	1182.316406	67.235535
19456.956649	16935.242000	1181.191406	140.205490
19456.956649	16935.242000	1180.067383	-5.146418
19456.956649	16935.242000	1178.942383	29.163012
19456.956649	16935.242000	1177.817383	-59.031677
19456.956649	16935.242000	1176.692383	50.198551
19456.956649	16935.242000	1175.566406	28.968874
19456.956649	16935.242000	1174.440430	124.604179
19456.956649	16935.242000	1173.314453	211.709305
19456.956649	16935.242000	1172.188477	315.238678
19456.956649	16935.242000	1171.062500	348.769867
19456.956649	16935.242000	1169.935547	395.031158
19456.956649	16935.242000	1168.808594	508.427704
19456.956649	16935.242000	1167.681641	383.371033
19456.956649	16935.242000	1166.553711	361.413605
19456.956649	16935.242000	1165.426758	197.895981
19456.956649	16935.242000	1164.298828	216.138474
19456.956649	16935.242000	1163.170898	143.523026
19456.956649	16935.242000	1162.041992	166.350021
19456.956649	16935.242000	1160.914063	-10.816996
19456.956649	16935.242000	1159.785156	102.834206
19456.956649	16935.242000	1158.656250	191.252151
19456.956649	16935.242000	1157.526367	47.065216
19456.956649	16935.242000	1156.397461	148.274796
19456.956649	16935.242000	1155.267578	71.839317
19456.956649	16935.242000	1154.137695	14.439920
19456.956649	16935.242000	1153.006836	41.593513
19456.956649	16935.242000	1151.876953	-3.133698
19456.956649	16935.242000	1150.746094	-176.221085
19456.956649	16935.242000	1149.615234	-171.926773
19456.956649	16935.242000	1148.484375	66.918694
19456.956649	16935.242000	1147.352539	-216.560516
19456.956649	16935.242000	1146.220703	-130.903641
19456.956649	16935.242000	1145.088867	-250.435349
19456.956649	16935.242000	1143.957031	15.121298
19456.956649	16935.242000	1142.825195	-137.661880
19456.956649	16935.242000	1141.692383	24.762901
19456.956649	16935.242000	1140.559570	30.766861
19456.956649	16935.242000	1139.426758	-246.865250
19456.956649	16935.242000	1138.292969	-168.790848
19456.956649	16935.242000	1137.159180	-287.462769
19456.956649	16935.242000	1136.025391	63.643990
19456.956649	16935.242000	1134.891602	-145.211182
19456.956649	16935.242000	1133.757813	-207.614578
19456.956649	16935.242000	1132.623047	-77.751160
19456.956649	16935.242000	1131.488281	14.569097
19456.956649	16935.242000	1130.353516	122.578255
19456.956649	16935.242000	1129.217773	3.380328
19456.956649	16935.242000	1128.083008	-20.354826
19456.956649	16935.242000	1126.947266	-54.241173
19456.956649	16935.242000	1125.811523	-173.664597
19456.956649	16935.242000	1124.674805	-17.726353
19456.956649	16935.242000	1123.539063	-168.152618
19456.956649	16935.242000	1122.402344	-31.956167
19456.956649	16935.242000	1121.265625	-79.919144
19456.956649	16935.242000	1120.127930	-210.557037
19456.956649	16935.242000	1118.990234	78.656746
19456.956649	16935.242000	1117.853516	-98.497124
19456.956649	16935.242000	1116.714844	164.376572
19456.956649	16935.242000	1115.577148	74.661438
19456.956649	16935.242000	1114.439453	105.523575
19456.956649	16935.242000	1113.300781	-8.753936
19456.956649	16935.242000	1112.162109	-134.722290
19456.956649	16935.242000	1111.022461	1.878070
19456.956649	16935.242000	1109.883789	-110.552696
19456.956649	16935.242000	1108.744141	156.580856
19456.956649	16935.242000	1107.604492	111.512939
19456.956649	16935.242000	1106.463867	110.147446
19456.956649	16935.242000	1105.324219	-47.683350
19456.956649	16935.242000	1104.183594	49.099968
19456.956649	16935.242000	1103.042969	151.528732
19456.956649	16935.242000	1101.902344	-69.612038
19456.956649	16935.242000	1100.760742	-85.272194
19456.956649	16935.242000	1099.619141	38.288769
19456.956649	16935.242000	1098.477539	251.973083
19456.956649	16935.242000	1097.335938	96.880257
19456.956649	16935.242000	1096.193359	265.812195
19456.956649	16935.242000	1095.051758	234.354187
19456.956649	16935.242000	1093.909180	262.899200
19456.956649	16935.242000	1092.765625	83.046570
19456.956649	16935.242000	1091.623047	361.878052
19456.956649	16935.242000	1090.479492	330.760895
19456.956649	16935.242000	1089.335938	237.389297
19456.956649	16935.242000	1088.192383	478.116730
19456.956649	16935.242000	1087.047852	477.629486
19456.956649	16935.242000	1085.903320	442.125854
19456.956649	16935.242000	1084.758789	409.859741
19456.956649	16935.242000	1083.614258	168.897537
19456.956649	16935.242000	1082.469727	297.340790
19456.956649	16935.242000	1081.324219	126.945869
19456.956649	16935.242000	1080.178711	339.811798
19456.956649	16935.242000	1079.033203	309.083099
19456.956649	16935.242000	1077.886719	225.516006
19456.956649	16935.242000	1076.740234	201.449951
19456.956649	16935.242000	1075.593750	71.910355
19456.956649	16935.242000	1074.447266	296.867981
19456.956649	16935.242000	1073.300781	29.770138
19456.956649	16935.242000	1072.153320	432.060333
19456.956649	16935.242000	1071.005859	287.900543
19456.956649	16935.242000	1069.858398	184.257645
19456.956649	16935.242000	1068.709961	149.176559
19456.956649	16935.242000	1067.561523	239.575317
19456.956649	16935.242000	1066.413086	110.075134
19456.956649	16935.242000	1065.264648	365.371399
19456.956649	16935.242000	1064.116211	124.821678
19456.956649	16935.242000	1062.966797	196.814346
19456.956649	16935.242000	1061.817383	233.574448
19456.956649	16935.242000	1060.667969	81.439964
19456.956649	16935.242000	1059.517578	46.398796
19456.956649	16935.242000	1058.368164	94.454063
19456.956649	16935.242000	1057.217773	94.677048
19456.956649	16935.242000	1056.067383	-89.277252
19456.956649	16935.242000	1054.916016	-70.173103
19456.956649	16935.242000	1053.764648	57.671951
19456.956649	16935.242000	1052.613281	120.824501
19456.956649	16935.242000	1051.461914	279.440979
19456.956649	16935.242000	1050.310547	168.804764
19456.956649	16935.242000	1049.158203	367.049805
19456.956649	16935.242000	1048.005859	232.933075
19456.956649	16935.242000	1046.853516	13.419628
19456.956649	16935.242000	1045.700195	-53.700489
19456.956649	16935.242000	1044.547852	1.555725
19456.956649	16935.242000	1043.394531	58.660683
19456.956649	16935.242000	1042.240234	5.991408
19456.956649	16935.242000	1041.086914	98.449211
19456.956649	16935.242000	1039.932617	226.021820
19456.956649	16935.242000	1038.778320	163.523346
19456.956649	16935.242000	1037.624023	-129.038177
19456.956649	16935.242000	1036.469727	61.980118
19456.956649	16935.242000	1035.314453	149.840500
19456.956649	16935.242000	1034.159180	490.540863
19456.956649	16935.242000	1033.003906	501.083466
19456.956649	16935.242000	1031.847656	249.556595
19456.956649	16935.242000	1030.692383	524.602783
19456.956649	16935.242000	1029.536133	298.781158
19456.956649	16935.242000	1028.378906	453.459045
19456.956649	16935.242000	1027.222656	336.960907
19456.956649	16935.242000	1026.065430	224.435425
19456.956649	16935.242000	1024.908203	188.074341
19456.956649	16935.242000	1023.750977	256.120117
19456.956649	16935.242000	1022.593750	162.678558
19456.956649	16935.242000	1021.435547	157.612976
19456.956649	16935.242000	1020.277344	250.251984
19456.956649	16935.242000	1019.119141	299.834229
19456.956649	16935.242000	1017.959961	40.738483
19456.956649	16935.242000	1016.800781	6.334577
19456.956649	16935.242000	1015.641602	104.157997
19456.956649	16935.242000	1014.482422	137.679794
19456.956649	16935.242000	1013.323242	113.402267
19456.956649	16935.242000	1012.163086	-25.671005
19456.956649	16935.242000	1011.002930	49.509739
19456.956649	16935.242000	1009.842773	-40.707489
19456.956649	16935.242000	1008.681641	174.422958
19456.956649	16935.242000	1007.520508	183.376755
19456.956649	16935.242000	1006.359375	350.648438
19456.956649	16935.242000	1005.198242	143.673874
19456.956649	16935.242000	1004.037109	224.101913
19456.956649	16935.242000	1002.875000	243.635010
19456.956649	16935.242000	1001.712891	409.534241
19456.956649	16935.242000	1000.550781	418.768738
19456.956649	16935.242000	999.387695	258.154144
19456.956649	16935.242000	998.224609	-40.679218
19456.956649	16935.242000	997.061523	-109.736786
19456.956649	16935.242000	995.898438	-68.807251
19456.956649	16935.242000	994.734375	-48.897408
19456.956649	16935.242000	993.571289	-205.287460
19456.956649	16935.242000	992.407227	-221.600784
19456.956649	16935.242000	991.242188	-239.651596
19456.956649	16935.242000	990.078125	80.245018
19456.956649	16935.242000	988.913086	-76.548248
19456.956649	16935.242000	987.748047	-43.332291
19456.956649	16935.242000	986.583008	-190.382095
19456.956649	16935.242000	985.416992	-94.292648
19456.956649	16935.242000	984.250977	-10.788558
19456.956649	16935.242000	983.084961	-273.002228
19456.956649	16935.242000	981.918945	-103.900047
19456.956649	16935.242000	980.751953	38.512669
19456.956649	16935.242000	979.584961	-20.205296
19456.956649	16935.242000	978.417969	25.467941
19456.956649	16935.242000	977.250977	-103.896904
19456.956649	16935.242000	976.083008	-329.059174
19456.956649	16935.242000	974.915039	75.573242
19456.956649	16935.242000	973.747070	-342.592987
19456.956649	16935.242000	972.579102	-19.803577
19456.956649	16935.242000	971.410156	-84.089478
19456.956649	16935.242000	970.242188	-113.121941
19456.956649	16935.242000	969.072266	118.241524
19456.956649	16935.242000	967.903320	-358.259918
19456.956649	16935.242000	966.733398	175.930374
19456.956649	16935.242000	965.563477	159.285645
19456.956649	16935.242000	964.393555	31.357065
19456.956649	16935.242000	963.223633	-6.849088
19456.956649	16935.242000	962.052734	-189.391418
19456.956649	16935.242000	960.881836	-23.776997
19456.956649	16935.242000	959.710938	165.695740
19456.956649	16935.242000	958.540039	-167.513824
19456.956649	16935.242000	957.368164	-25.792534
19456.956649	16935.242000	956.196289	-216.452042
19456.956649	16935.242000	955.024414	210.715073
19456.956649	16935.242000	953.851563	78.817963
19456.956649	16935.242000	952.679688	82.815262
19456.956649	16935.242000	951.506836	-68.223618
19456.956649	16935.242000	950.333984	139.844910
19456.956649	16935.242000	949.160156	76.274406
19456.956649	16935.242000	947.986328	-51.326656
19456.956649	16935.242000	946.812500	111.504990
19456.956649	16935.242000	945.638672	171.744324
19456.956649	16935.242000	944.464844	-6.508668
19456.956649	16935.242000	943.290039	170.325577
19456.956649	16935.242000	942.115234	233.593964
19456.956649	16935.242000	940.940430	159.955032
19456.956649	16935.242000	939.764648	111.000008
19456.956649	16935.242000	938.588867	263.761383
19456.956649	16935.242000	937.413086	339.100830
19456.956649	16935.242000	936.237305	160.329285
19456.956649	16935.242000	935.060547	315.668640
19456.956649	16935.242000	933.883789	283.331238
19456.956649	16935.242000	932.707031	-33.448261
19456.956649	16935.242000	931.530273	-48.462463
19456.956649	16935.242000	930.352539	61.336624
19456.956649	16935.242000	929.175781	291.766083
19456.956649	16935.242000	927.998047	89.222305
19456.956649	16935.242000	926.819336	37.426273
19456.956649	16935.242000	925.641602	50.249859
19456.956649	16935.242000	924.462891	-85.473175
19456.956649	16935.242000	923.284180	28.475513
19456.956649	16935.242000	922.104492	181.133957
19456.956649	16935.242000	920.924805	-32.074390
19456.956649	16935.242000	919.746094	-21.921320
19456.956649	16935.242000	919.551758	261.990326
19456.956649	16935.242000	918.386719	253.007217
19456.956649	16935.242000	917.220703	222.508987
19456.956649	16935.242000	916.054688	245.749252
19456.956649	16935.242000	914.887695	279.713135
19456.956649	16935.242000	913.721680	47.149864
19456.956649	16935.242000	912.554688	74.650520
19456.956649	16935.242000	911.387695	142.933594
19456.956649	16935.242000	910.220703	-5.756534
19456.956649	16935.242000	909.052734	174.141312
19456.956649	16935.242000	907.885742	171.452728
19456.956649	16935.242000	906.717773	297.538055
19456.956649	16935.242000	905.548828	48.008827
19456.956649	16935.242000	904.380859	6.673117
19456.956649	16935.242000	903.211914	74.744690
19456.956649	16935.242000	902.042969	-151.055893
19456.956649	16935.242000	900.874023	-147.349533
19456.956649	16935.242000	899.704102	-66.477585
19456.956649	16935.242000	898.535156	232.958054
19456.956649	16935.242000	897.365234	15.811545
19456.956649	16935.242000	896.194336	-254.821289
19456.956649	16935.242000	895.024414	55.131573
19456.956649	16935.242000	893.853516	-266.837158
19456.956649	16935.242000	892.682617	-89.791969
19456.956649	16935.242000	891.511719	117.130554
19456.956649	16935.242000	890.340820	133.461807
19456.956649	16935.242000	889.168945	184.016449
19456.956649	16935.242000	887.997070	183.183151
19456.956649	16935.242000	886.825195	9.071432
19456.956649	16935.242000	885.653320	-235.558853
19456.956649	16935.242000	884.480469	41.604908
19456.956649	16935.242000	883.307617	85.629181
19456.956649	16935.242000	882.134766	71.910538
19456.956649	16935.242000	880.961914	132.970535
19456.956649	16935.242000	879.788086	-175.602890
19456.956649	16935.242000	878.614258	5.067280
19456.956649	16935.242000	877.440430	-62.073578
19456.956649	16935.242000	876.266602	-33.126968
19456.956649	16935.242000	875.091797	213.532043
19456.956649	16935.242000	873.916992	-105.492928
19456.956649	16935.242000	872.742188	-29.656898
19456.956649	16935.242000	871.567383	-278.137604
19456.956649	16935.242000	870.391602	40.826538
19456.956649	16935.242000	869.215820	-41.262386
19456.956649	16935.242000	868.040039	-127.597725
19456.956649	16935.242000	866.864258	-30.599409
19456.956649	16935.242000	865.687500	64.218636
19456.956649	16935.242000	864.510742	1.307765
19456.956649	16935.242000	863.333984	70.480461
19456.956649	16935.242000	862.157227	-205.425430
19456.956649	16935.242000	860.979492	-191.630966
19456.956649	16935.242000	859.802734	194.702301
19456.956649	16935.242000	858.625000	-42.793507
19456.956649	16935.242000	857.446289	117.752571
19456.956649	16935.242000	856.268555	-21.793585
19456.956649	16935.242000	855.089844	-161.292175
19456.956649	16935.242000	853.911133	33.151585
19456.956649	16935.242000	852.731445	-17.023357
19456.956649	16935.242000	851.552734	-230.900253
19456.956649	16935.242000	850.373047	-138.632446
19456.956649	16935.242000	849.193359	-118.672745
19456.956649	16935.242000	848.013672	-39.249794
19456.956649	16935.242000	846.833008	-280.622070
19456.956649	16935.242000	845.652344	-196.982574
19456.956649	16935.242000	844.471680	-104.903748
19456.956649	16935.242000	843.291016	-46.848633
19456.956649	16935.242000	842.110352	-14.305673
19456.956649	16935.242000	840.928711	154.017303
19456.956649	16935.242000	839.747070	-15.074610
19456.956649	16935.242000	838.564453	-97.144768
19456.956649	16935.242000	837.382813	-73.176460
19456.956649	16935.242000	836.200195	-89.514961
19456.956649	16935.242000	835.017578	27.680004
19456.956649	16935.242000	833.834961	-158.263657
19456.956649	16935.242000	832.651367	-34.782471
19456.956649	16935.242000	831.467773	-180.422836
19456.956649	16935.242000	830.284180	167.482956
19456.956649	16935.242000	829.100586	-1.477451
19456.956649	16935.242000	827.916992	68.851936
19456.956649	16935.242000	826.732422	-21.737026
19456.956649	16935.242000	825.547852	-235.056320
19456.956649	16935.242000	824.363281	-42.065193
19456.956649	16935.242000	823.177734	-103.022675
19456.956649	16935.242000	821.992188	39.062042
19456.956649	16935.242000	820.806641	-19.821112
19456.956649	16935.242000	819.621094	-118.873619
19456.956649	16935.242000	818.434570	42.080929
19456.956649	16935.242000	817.249023	69.802002
19456.956649	16935.242000	816.062500	-291.265503
19456.956649	16935.242000	814.875000	59.669052
19456.956649	16935.242000	813.688477	4.931615
19456.956649	16935.242000	812.500977	28.322422
19456.956649	16935.242000	811.313477	117.119522
19456.956649	16935.242000	810.125977	343.043243
19456.956649	16935.242000	808.937500	186.906479
19456.956649	16935.242000	807.749023	-74.682579
19456.956649	16935.242000	806.560547	-165.337631
19456.956649	16935.242000	805.372070	-106.252403
19456.956649	16935.242000	804.182617	-49.323128
19456.956649	16935.242000	802.994141	167.755066
19456.956649	16935.242000	801.803711	72.802055
19456.956649	16935.242000	800.614258	49.495174
19456.956649	16935.242000	799.424805	270.545593
19456.956649	16935.242000	798.234375	356.676025
19456.956649	16935.242000	797.043945	-66.876221
19456.956649	16935.242000	795.852539	-71.302551
19456.956649	16935.242000	794.662109	67.372177
19456.956649	16935.242000	793.470703	100.734367
19456.956649	16935.242000	792.279297	519.097534
19456.956649	16935.242000	791.087891	240.939728
19456.956649	16935.242000	789.895508	190.018600
19456.956649	16935.242000	788.703125	151.696594
19456.956649	16935.242000	787.510742	-59.036537
19456.956649	16935.242000	786.318359	-223.478180
19456.956649	16935.242000	785.125000	133.285461
19456.956649	16935.242000	783.931641	-29.096006
19456.956649	16935.242000	782.738281	27.013651
19456.956649	16935.242000	781.544922	137.666656
19456.956649	16935.242000	780.350586	147.454376
19456.956649	16935.242000	779.156250	-56.932457
19456.956649	16935.242000	777.961914	64.048630
19456.956649	16935.242000	776.767578	-10.216172
19456.956649	16935.242000	775.572266	-149.522385
19456.956649	16935.242000	774.376953	-146.179138
19456.956649	16935.242000	773.181641	167.492737
19456.956649	16935.242000	771.986328	-38.987766
19456.956649	16935.242000	770.790039	73.210617
19456.956649	16935.242000	769.593750	-126.959389
19456.956649	16935.242000	768.397461	-46.310814
19456.956649	16935.242000	767.201172	0.739766
19456.956649	16935.242000	766.003906	129.416031
19456.956649	16935.242000	764.806641	15.079071
19456.956649	16935.242000	763.609375	-145.318558
19456.956649	16935.242000	762.412109	100.384689
19456.956649	16935.242000	761.213867	61.324448
19456.956649	16935.242000	760.015625	-122.138069
19456.956649	16935.242000	758.817383	-127.765137
19456.956649	16935.242000	757.618164	-37.225960
19456.956649	16935.242000	756.419922	-53.424110
19456.956649	16935.242000	755.220703	32.777145
19456.956649	16935.242000	754.021484	189.954071
19456.956649	16935.242000	752.821289	79.534943
19456.956649	16935.242000	751.621094	17.160580
19456.956649	16935.242000	750.420898	46.668289
19456.956649	16935.242000	749.220703	-5.338980
19456.956649	16935.242000	748.020508	-255.738754
19456.956649	16935.242000	746.819336	-34.302193
19456.956649	16935.242000	745.618164	76.371490
19456.956649	16935.242000	744.416992	-67.634285
19456.956649	16935.242000	743.214844	67.922836
19456.956649	16935.242000	742.012695	117.846138
19456.956649	16935.242000	740.810547	84.275673
19456.956649	16935.242000	739.608398	227.878860
19456.956649	16935.242000	738.406250	304.657074
19456.956649	16935.242000	737.203125	68.739151
19456.956649	16935.242000	736.000000	560.041931
19456.956649	16935.242000	734.795898	261.551514
19456.956649	16935.242000	733.592773	450.485321
19456.956649	16935.242000	732.388672	603.880615
19456.956649	16935.242000	731.184570	463.601685
19456.956649	16935.242000	729.979492	441.962616
19456.956649	16935.242000	728.775391	515.991760
19456.956649	16935.242000	727.570313	294.483765
19456.956649	16935.242000	726.365234	212.373505
19456.956649	16935.242000	725.160156	192.621368
19456.956649	16935.242000	723.954102	179.050934
19456.956649	16935.242000	722.748047	165.417526
19456.956649	16935.242000	721.541992	51.958908
19456.956649	16935.242000	720.334961	-202.821808
19456.956649	16935.242000	719.128906	32.729652
19456.956649	16935.242000	717.921875	203.725464
19456.956649	16935.242000	716.714844	98.384132
19456.956649	16935.242000	715.506836	22.083580
19456.956649	16935.242000	714.298828	-77.090370
19456.956649	16935.242000	713.090820	14.637178
19456.956649	16935.242000	711.882813	-70.115105
19456.956649	16935.242000	710.674805	-30.435596
19456.956649	16935.242000	709.465820	-156.768906
19456.956649	16935.242000	708.256836	44.508224
19456.956649	16935.242000	707.047852	239.405106
19456.956649	16935.242000	705.837891	166.762100
19456.956649	16935.242000	704.627930	-185.687943
19456.956649	16935.242000	703.417969	114.574081
19456.956649	16935.242000	702.208008	-5.870243
19456.956649	16935.242000	700.998047	105.611496
19456.956649	16935.242000	699.787109	144.501968
19456.956649	16935.242000	698.576172	-94.104301
19456.956649	16935.242000	697.364258	44.001812
19456.956649	16935.242000	696.153320	-316.728088
19456.956649	16935.242000	694.941406	-31.906656
19456.956649	16935.242000	693.729492	351.998413
19456.956649	16935.242000	692.516602	34.621834
19456.956649	16935.242000	691.304688	110.126678
19456.956649	16935.242000	690.091797	73.895912
19456.956649	16935.242000	688.878906	147.132065
19456.956649	16935.242000	687.665039	125.209839
19456.956649	16935.242000	686.451172	293.267456
19456.956649	16935.242000	685.237305	97.667877
19456.956649	16935.242000	684.023438	54.871792
19456.956649	16935.242000	682.809570	129.683594
19456.956649	16935.242000	681.594727	266.303894
19456.956649	16935.242000	680.379883	165.466995
19456.956649	16935.242000	679.165039	124.418732
19456.956649	16935.242000	677.949219	105.994324
19456.956649	16935.242000	676.733398	134.926346
19456.956649	16935.242000	675.517578	128.706787
19456.956649	16935.242000	674.301758	35.823757
19456.956649	16935.242000	673.084961	45.944225
19456.956649	16935.242000	671.869141	222.882065
19456.956649	16935.242000	670.651367	-49.453362
19456.956649	16935.242000	669.434570	28.389620
19456.956649	16935.242000	668.216797	79.344490
19456.956649	16935.242000	667.000000	138.422989
19456.956649	16935.242000	665.781250	102.705551
19456.956649	16935.242000	664.563477	77.203362
19456.956649	16935.242000	663.344727	-5.986558
19456.956649	16935.242000	662.125977	153.510010
19456.956649	16935.242000	660.907227	-32.670273
19456.956649	16935.242000	659.688477	143.037033
19456.956649	16935.242000	658.468750	195.235733
19456.956649	16935.242000	657.249023	128.110916
19456.956649	16935.242000	656.029297	-156.895996
19456.956649	16935.242000	654.808594	137.498352
19456.956649	16935.242000	653.587891	-34.592987
19456.956649	16935.242000	652.367188	19.197245
19456.956649	16935.242000	651.146484	181.699188
19456.956649	16935.242000	649.924805	-160.938782
19456.956649	16935.242000	648.704102	-107.419441
19456.956649	16935.242000	647.482422	5.493259
19456.956649	16935.242000	646.259766	101.857834
19456.956649	16935.242000	645.037109	228.858261
19456.956649	16935.242000	643.815430	199.874130
19456.956649	16935.242000	642.591797	150.308380
19456.956649	16935.242000	641.369141	-34.602905
19456.956649	16935.242000	640.145508	241.565048
19456.956649	16935.242000	638.921875	259.371643
19456.956649	16935.242000	637.698242	311.906952
19456.956649	16935.242000	636.474609	137.005234
19456.956649	16935.242000	635.250000	473.980194
19456.956649	16935.242000	634.025391	229.340805
19456.956649	16935.242000	632.800781	-19.373577
19456.956649	16935.242000	631.575195	151.412338
19456.956649	16935.242000	630.349609	209.518295
19456.956649	16935.242000	629.124023	236.833328
19456.956649	16935.242000	627.898438	4.340219
19456.956649	16935.242000	626.671875	-11.419164
19456.956649	16935.242000	625.445313	-2.730200
19456.956649	16935.242000	624.218750	-73.830765
19456.956649	16935.242000	622.992188	63.424091
19456.956649	16935.242000	621.764648	-79.328247
19456.956649	16935.242000	620.537109	114.884964
19456.956649	16935.242000	619.309570	116.991920
19456.956649	16935.242000	618.081055	61.852524
19456.956649	16935.242000	616.852539	-26.003616
19456.956649	16935.242000	615.624023	-32.279110
19456.956649	16935.242000	614.395508	20.532419
19456.956649	16935.242000	613.166992	75.279160
19456.956649	16935.242000	611.937500	72.820747
19456.956649	16935.242000	610.708008	-235.551071
19456.956649	16935.242000	609.477539	-152.490448
19456.956649	16935.242000	608.248047	-100.111275
19456.956649	16935.242000	607.017578	-68.212654
19456.956649	16935.242000	605.787109	-117.891235
19456.956649	16935.242000	604.555664	-224.654846
19456.956649	16935.242000	603.325195	-80.986015
19456.956649	16935.242000	602.093750	-307.983093
19456.956649	16935.242000	600.861328	-164.512802
19456.956649	16935.242000	599.629883	-159.557266
19456.956649	16935.242000	598.397461	-331.685883
19456.956649	16935.242000	597.165039	-273.959625
19456.956649	16935.242000	595.932617	-193.959869
19456.956649	16935.242000	594.699219	-215.733856
19456.956649	16935.242000	593.465820	-200.979141
19456.956649	16935.242000	592.232422	-157.849304
19456.956649	16935.242000	590.999023	-106.679565
19456.956649	16935.242000	589.764648	-218.126740
19456.956649	16935.242000	588.530273	-110.237740
19456.956649	16935.242000	587.295898	-114.148544
19456.956649	16935.242000	586.061523	-268.364258
19456.956649	16935.242000	584.826172	-193.217712
19456.956649	16935.242000	583.590820	-26.847332
19456.956649	16935.242000	582.355469	-18.871532
19456.956649	16935.242000	581.119141	45.831837
19456.956649	16935.242000	579.882813	-104.533745
19456.956649	16935.242000	578.646484	55.331318
19456.956649	16935.242000	577.410156	-18.064413
19456.956649	16935.242000	576.172852	-59.065781
19456.956649	16935.242000	574.935547	13.362925
19456.956649	16935.242000	573.698242	300.447052
19456.956649	16935.242000	572.460938	-60.806759
19456.956649	16935.242000	571.222656	258.447845
19456.956649	16935.242000	569.984375	-13.679069
19456.956649	16935.242000	568.746094	58.360146
19456.956649	16935.242000	567.506836	114.118736
19456.956649	16935.242000	566.267578	-180.236450
19456.956649	16935.242000	565.028320	271.922241
19456.956649	16935.242000	563.789063	-8.297066
19456.956649	16935.242000	562.548828	-152.979980
19456.956649	16935.242000	561.309570	90.495941
19456.956649	16935.242000	560.068359	123.602814
19456.956649	16935.242000	558.828125	11.156949
19456.956649	16935.242000	557.586914	1.736173
19456.956649	16935.242000	556.345703	-270.314697
19456.956649	16935.242000	555.104492	-57.637665
19456.956649	16935.242000	553.863281	-16.716509
19456.956649	16935.242000	552.621094	-60.647049
19456.956649	16935.242000	551.378906	-17.828552
19456.956649	16935.242000	550.136719	196.427002
19456.956649	16935.242000	548.893555	132.154465
19456.956649	16935.242000	547.650391	182.819839
19456.956649	16935.242000	546.407227	66.054443
19456.956649	16935.242000	545.164063	74.280533
19456.956649	16935.242000	543.919922	-169.490707
19456.956649	16935.242000	542.675781	32.134476
19456.956649	16935.242000	541.431641	-60.515484
19456.956649	16935.242000	540.186523	344.341858
19456.956649	16935.242000	538.941406	364.338562
19456.956649	16935.242000	537.696289	-82.824013
19456.956649	16935.242000	536.451172	168.655045
19456.956649	16935.242000	535.205078	349.536438
19456.956649	16935.242000	533.959961	-8.941212
19456.956649	16935.242000	532.712891	189.910004
19456.956649	16935.242000	531.466797	62.814278
19456.956649	16935.242000	530.219727	58.380405
19456.956649	16935.242000	528.972656	162.462967
19456.956649	16935.242000	527.725586	173.997330
19456.956649	16935.242000	526.478516	293.991028
19456.956649	16935.242000	525.230469	331.510742
19456.956649	16935.242000	523.982422	-20.710163
19456.956649	16935.242000	522.734375	309.962646
19456.956649	16935.242000	521.485352	126.449043
19456.956649	16935.242000	520.236328	310.310425
19456.956649	16935.242000	518.987305	301.376282
19456.956649	16935.242000	517.737305	123.847328
19456.956649	16935.242000	516.488281	175.038528
19456.956649	16935.242000	515.238281	268.267975
19456.956649	16935.242000	513.988281	419.553925
19456.956649	16935.242000	512.737305	257.971710
19456.956649	16935.242000	511.486328	202.633224
19456.956649	16935.242000	510.235352	485.920044
19456.956649	16935.242000	508.984375	308.229340
19456.956649	16935.242000	507.732422	346.878021
19456.956649	16935.242000	506.480469	413.485657
19456.956649	16935.242000	505.228516	532.058411
19456.956649	16935.242000	503.976563	434.325073
19456.956649	16935.242000	502.723633	598.734802
19456.956649	16935.242000	501.470703	690.973267
19456.956649	16935.242000	500.217773	1047.163452
19456.956649	16935.242000	498.963867	1061.115356
19456.956649	16935.242000	497.709961	883.024109
19456.956649	16935.242000	496.456055	854.869812
19456.956649	16935.242000	495.202148	794.667542
19456.956649	16935.242000	493.947266	1219.990234
19456.956649	16935.242000	492.692383	1077.647949
19456.956649	16935.242000	491.437500	999.194397
19456.956649	16935.242000	490.181641	910.692200
19456.956649	16935.242000	488.926758	1001.832947
19456.956649	16935.242000	487.670898	863.269897
19456.956649	16935.242000	486.414063	1053.952271
19456.956649	16935.242000	485.158203	1009.007385
19456.956649	16935.242000	483.901367	1183.401855
19456.956649	16935.242000	482.644531	1094.339600
19456.956649	16935.242000	481.386719	1122.836792
19456.956649	16935.242000	480.128906	1529.979858
19456.956649	16935.242000	478.871094	1550.147095
19456.956649	16935.242000	477.613281	1329.056519
19456.956649	16935.242000	476.355469	1388.833984
19456.956649	16935.242000	475.096680	1418.558472
19456.956649	16935.242000	473.837891	1418.249756
19456.956649	16935.242000	472.578125	1457.599365
19456.956649	16935.242000	471.319336	1546.545044
19456.956649	16935.242000	470.059570	1497.959595
19456.956649	16935.242000	468.799805	1612.377686
19456.956649	16935.242000	467.539063	1525.642090
19456.956649	16935.242000	466.278320	1587.922363
19456.956649	16935.242000	465.017578	1393.477051
19456.956649	16935.242000	463.756836	1644.224976
19456.956649	16935.242000	462.495117	1803.221924
19456.956649	16935.242000	461.233398	1552.584351
19456.956649	16935.242000	459.971680	1544.210571
19456.956649	16935.242000	458.709961	1521.705688
19456.956649	16935.242000	457.447266	1572.434570
19456.956649	16935.242000	456.184570	1601.055908
19456.956649	16935.242000	454.921875	1756.443604
19456.956649	16935.242000	453.658203	1820.197266
19456.956649	16935.242000	452.394531	1586.026367
19456.956649	16935.242000	451.130859	2006.291870
19456.956649	16935.242000	449.867188	2106.769043
19456.956649	16935.242000	448.602539	2036.359863
19456.956649	16935.242000	447.337891	1842.751831
19456.956649	16935.242000	446.073242	1870.877319
19456.956649	16935.242000	444.807617	2185.962646
19456.956649	16935.242000	443.542969	2215.285400
19456.956649	16935.242000	442.276367	1994.636841
19456.956649	16935.242000	441.010742	2161.847412
19456.956649	16935.242000	439.744141	2029.625122
19456.956649	16935.242000	438.478516	2108.861572
19456.956649	16935.242000	437.210938	1878.895630
19456.956649	16935.242000	435.944336	2135.331299
19456.956649	16935.242000	434.676758	1969.851318
19456.956649	16935.242000	433.409180	1966.149780
19456.956649	16935.242000	432.141602	1797.853882
19456.956649	16935.242000	430.873047	2004.717773
19456.956649	16935.242000	429.604492	1831.509644
19456.956649	16935.242000	428.335938	1974.001953
19456.956649	16935.242000	427.067383	1953.888794
19456.956649	16935.242000	425.797852	2142.565186
19456.956649	16935.242000	424.528320	1886.269897
19456.956649	16935.242000	423.258789	2150.689453
19456.956649	16935.242000	421.988281	1859.702637
19456.956649	16935.242000	420.717773	1655.028320
19456.956649	16935.242000	419.447266	1933.166260
19456.956649	16935.242000	418.175781	1831.745972
19456.956649	16935.242000	416.905273	2017.616211
19456.956649	16935.242000	415.633789	1814.232422
19456.956649	16935.242000	414.362305	2083.293945
19456.956649	16935.242000	413.089844	1813.400635
19456.956649	16935.242000	411.817383	1875.831665
19456.956649	16935.242000	410.544922	1823.153198
19456.956649	16935.242000	409.272461	1856.311890
19456.956649	16935.242000	407.999023	1593.191528
19456.956649	16935.242000	406.725586	1854.932861
19456.956649	16935.242000	405.452148	1792.838013
19456.956649	16935.242000	404.177734	1670.755615
19456.956649	16935.242000	402.903320	1813.349976
19456.956649	16935.242000	401.628906	1884.059814
19456.956649	16935.242000	400.354492	1696.079346
19456.956649	16935.242000	399.079102	1835.431030
19456.956649	16935.242000	397.803711	1686.627075
19456.956649	16935.242000	396.528320	1851.203369
19456.956649	16935.242000	395.251953	1782.658081
19456.956649	16935.242000	393.976563	1734.588379
19456.956649	16935.242000	392.700195	1826.685913
19456.956649	16935.242000	391.422852	1866.388794
19456.956649	16935.242000	390.145508	1942.073242
19456.956649	16935.242000	388.869141	1751.454712
19456.956649	16935.242000	387.590820	1755.702637
19456.956649	16935.242000	386.313477	1719.336548
19456.956649	16935.242000	385.035156	1767.801147
19456.956649	16935.242000	383.756836	1718.662842
19456.956649	16935.242000	382.478516	1373.923584
19456.956649	16935.242000	381.199219	1617.735229
19456.956649	16935.242000	379.919922	1479.631958
19456.956649	16935.242000	378.640625	1545.659668
19456.956649	16935.242000	377.360352	1472.788208
19456.956649	16935.242000	376.080078	1470.663818
19456.956649	16935.242000	374.799805	1284.646118
19456.956649	16935.242000	373.519531	1345.488281
19456.956649	16935.242000	372.238281	1429.807129
19456.956649	16935.242000	370.957031	1388.873291
19456.956649	16935.242000	369.675781	1259.890259
19456.956649	16935.242000	368.394531	1158.263428
19456.956649	16935.242000	367.112305	1111.240112
19456.956649	16935.242000	365.830078	1009.305481
19456.956649	16935.242000	364.546875	1124.072388
19456.956649	16935.242000	363.264648	808.623230
19456.956649	16935.242000	361.981445	1118.103271
19456.956649	16935.242000	360.698242	981.662231
19456.956649	16935.242000	359.414063	602.573059
19456.956649	16935.242000	358.129883	861.578186
19456.956649	16935.242000	356.845703	629.899475
19456.956649	16935.242000	355.561523	871.911621
19456.956649	16935.242000	354.276367	1191.062744
19456.956649	16935.242000	352.991211	635.318481
19456.956649	16935.242000	351.706055	420.270844
19456.956649	16935.242000	350.420898	617.781799
19456.956649	16935.242000	349.134766	685.455627
19456.956649	16935.242000	347.848633	613.640137
19456.956649	16935.242000	346.561523	415.905029
19456.956649	16935.242000	345.275391	411.956909
19456.956649	16935.242000	343.988281	539.077698
19456.956649	16935.242000	342.700195	302.455750
19456.956649	16935.242000	341.413086	294.331512
19456.956649	16935.242000	340.125000	206.717728
19456.956649	16935.242000	338.836914	271.277313
19456.956649	16935.242000	337.548828	186.241241
19456.956649	16935.242000	336.259766	37.103958
19456.956649	16935.242000	334.970703	142.891098
19456.956649	16935.242000	333.681641	85.289917
19456.956649	16935.242000	332.391602	93.591927
19456.956649	16935.242000	331.101563	31.730684
19456.956649	16935.242000	329.811523	41.509678
19456.956649	16935.242000	328.521484	-15.146149
19456.956649	16935.242000	327.230469	90.771820
19456.956649	16935.242000	325.939453	-213.670410
19456.956649	16935.242000	324.648438	15.247732
19456.956649	16935.242000	323.356445	93.689293
19456.956649	16935.242000	322.064453	-152.872849
19456.956649	16935.242000	320.772461	-86.000854
19456.956649	16935.242000	319.480469	-126.942238
19456.956649	16935.242000	318.187500	-97.468094
19456.956649	16935.242000	316.894531	-234.135864
19456.956649	16935.242000	315.601563	-217.095291
19456.956649	16935.242000	314.307617	-71.924217
19456.956649	16935.242000	313.013672	-213.322998
19456.956649	16935.242000	311.719727	-81.357445
19456.956649	16935.242000	310.425781	-216.700836
19456.956649	16935.242000	309.130859	-135.387848
19456.956649	16935.242000	307.835938	40.524231
19456.956649	16935.242000	306.541016	163.748398
19456.956649	16935.242000	305.245117	-276.883545
19456.956649	16935.242000	303.949219	179.753647
19456.956649	16935.242000	302.653320	314.344910
19456.956649	16935.242000	301.356445	378.151825
19456.956649	16935.242000	300.060547	593.852417
19456.956649	16935.242000	298.763672	883.449158
