#X		#Y		#Wave		#Intensity
19469.007181	16926.672833	2000.043945	-349.907990
19469.007181	16926.672833	1999.080078	60.707111
19469.007181	16926.672833	1998.116211	116.643913
19469.007181	16926.672833	1997.151367	-105.179672
19469.007181	16926.672833	1996.186523	-111.555916
19469.007181	16926.672833	1995.222656	270.793945
19469.007181	16926.672833	1994.256836	132.716949
19469.007181	16926.672833	1993.291992	36.595284
19469.007181	16926.672833	1992.327148	-57.192867
19469.007181	16926.672833	1991.361328	9.792395
19469.007181	16926.672833	1990.395508	-71.914215
19469.007181	16926.672833	1989.429688	86.267494
19469.007181	16926.672833	1988.463867	11.671533
19469.007181	16926.672833	1987.497070	491.031830
19469.007181	16926.672833	1986.531250	0.595146
19469.007181	16926.672833	1985.564453	-2.692431
19469.007181	16926.672833	1984.597656	45.792412
19469.007181	16926.672833	1983.630859	-34.417351
19469.007181	16926.672833	1982.664063	-8.470447
19469.007181	16926.672833	1981.696289	113.699829
19469.007181	16926.672833	1980.728516	171.461304
19469.007181	16926.672833	1979.761719	-96.962234
19469.007181	16926.672833	1978.792969	-34.492031
19469.007181	16926.672833	1977.825195	87.077263
19469.007181	16926.672833	1976.857422	257.852844
19469.007181	16926.672833	1975.888672	322.330017
19469.007181	16926.672833	1974.919922	97.959122
19469.007181	16926.672833	1973.951172	-10.483251
19469.007181	16926.672833	1972.982422	-59.794792
19469.007181	16926.672833	1972.013672	213.884964
19469.007181	16926.672833	1971.043945	43.529037
19469.007181	16926.672833	1970.075195	289.768555
19469.007181	16926.672833	1969.105469	281.946747
19469.007181	16926.672833	1968.135742	-228.702362
19469.007181	16926.672833	1967.165039	-177.468094
19469.007181	16926.672833	1966.195313	60.876976
19469.007181	16926.672833	1965.224609	-112.270157
19469.007181	16926.672833	1964.253906	130.738724
19469.007181	16926.672833	1963.283203	28.878883
19469.007181	16926.672833	1962.312500	434.080597
19469.007181	16926.672833	1961.341797	125.311195
19469.007181	16926.672833	1960.370117	148.788330
19469.007181	16926.672833	1959.399414	152.496063
19469.007181	16926.672833	1958.427734	-25.884888
19469.007181	16926.672833	1957.455078	290.071411
19469.007181	16926.672833	1956.483398	227.169586
19469.007181	16926.672833	1955.511719	321.568359
19469.007181	16926.672833	1954.539063	172.539368
19469.007181	16926.672833	1953.566406	308.580750
19469.007181	16926.672833	1952.593750	100.524712
19469.007181	16926.672833	1951.621094	44.804897
19469.007181	16926.672833	1950.647461	293.622284
19469.007181	16926.672833	1949.674805	-150.216049
19469.007181	16926.672833	1948.701172	397.986603
19469.007181	16926.672833	1947.727539	-119.437607
19469.007181	16926.672833	1946.753906	-187.570786
19469.007181	16926.672833	1945.780273	104.997025
19469.007181	16926.672833	1944.805664	129.999466
19469.007181	16926.672833	1943.831055	44.569538
19469.007181	16926.672833	1942.856445	206.837830
19469.007181	16926.672833	1941.881836	72.311798
19469.007181	16926.672833	1940.907227	38.315308
19469.007181	16926.672833	1939.932617	156.271759
19469.007181	16926.672833	1938.957031	-245.388397
19469.007181	16926.672833	1937.981445	46.485416
19469.007181	16926.672833	1937.005859	-4.744055
19469.007181	16926.672833	1936.030273	147.309341
19469.007181	16926.672833	1935.054688	394.785614
19469.007181	16926.672833	1934.078125	-26.262056
19469.007181	16926.672833	1933.101563	-60.399948
19469.007181	16926.672833	1932.125000	98.802864
19469.007181	16926.672833	1931.148438	18.115166
19469.007181	16926.672833	1930.171875	155.184586
19469.007181	16926.672833	1929.194336	50.024944
19469.007181	16926.672833	1928.217773	-94.251343
19469.007181	16926.672833	1927.240234	30.489542
19469.007181	16926.672833	1926.262695	-311.781647
19469.007181	16926.672833	1925.284180	-35.525883
19469.007181	16926.672833	1924.306641	167.293045
19469.007181	16926.672833	1923.328125	-89.328018
19469.007181	16926.672833	1922.350586	76.756538
19469.007181	16926.672833	1921.372070	37.603996
19469.007181	16926.672833	1920.392578	-35.726276
19469.007181	16926.672833	1919.414063	49.657394
19469.007181	16926.672833	1918.434570	-60.281624
19469.007181	16926.672833	1917.456055	-70.126305
19469.007181	16926.672833	1916.476563	-153.177048
19469.007181	16926.672833	1915.497070	68.765190
19469.007181	16926.672833	1914.516602	68.649117
19469.007181	16926.672833	1913.537109	-63.174713
19469.007181	16926.672833	1912.556641	117.161087
19469.007181	16926.672833	1911.576172	7.314471
19469.007181	16926.672833	1910.595703	82.752739
19469.007181	16926.672833	1909.615234	126.478340
19469.007181	16926.672833	1908.633789	-205.040726
19469.007181	16926.672833	1907.653320	265.034302
19469.007181	16926.672833	1906.671875	240.500229
19469.007181	16926.672833	1905.690430	13.852796
19469.007181	16926.672833	1904.708984	-10.628372
19469.007181	16926.672833	1903.727539	-130.036697
19469.007181	16926.672833	1902.745117	45.093693
19469.007181	16926.672833	1901.762695	-101.044312
19469.007181	16926.672833	1900.780273	-25.733686
19469.007181	16926.672833	1899.797852	151.711334
19469.007181	16926.672833	1898.815430	119.939384
19469.007181	16926.672833	1897.832031	-28.531031
19469.007181	16926.672833	1896.849609	-96.724731
19469.007181	16926.672833	1895.866211	14.981024
19469.007181	16926.672833	1894.882813	75.610962
19469.007181	16926.672833	1893.898438	-19.279404
19469.007181	16926.672833	1892.915039	-172.439575
19469.007181	16926.672833	1891.930664	296.241364
19469.007181	16926.672833	1890.947266	-19.620901
19469.007181	16926.672833	1889.962891	14.262240
19469.007181	16926.672833	1888.977539	4.443492
19469.007181	16926.672833	1887.993164	217.907608
19469.007181	16926.672833	1887.007813	-240.857651
19469.007181	16926.672833	1886.023438	-146.303101
19469.007181	16926.672833	1885.038086	-301.622650
19469.007181	16926.672833	1884.051758	8.759740
19469.007181	16926.672833	1883.066406	-83.485741
19469.007181	16926.672833	1882.081055	74.004791
19469.007181	16926.672833	1881.094727	282.341278
19469.007181	16926.672833	1880.108398	-410.897186
19469.007181	16926.672833	1879.122070	-263.120941
19469.007181	16926.672833	1878.135742	-282.552917
19469.007181	16926.672833	1877.148438	136.410904
19469.007181	16926.672833	1876.162109	114.487488
19469.007181	16926.672833	1875.174805	-6.689136
19469.007181	16926.672833	1874.187500	247.378021
19469.007181	16926.672833	1873.199219	232.710861
19469.007181	16926.672833	1872.211914	164.805618
19469.007181	16926.672833	1871.223633	-280.479187
19469.007181	16926.672833	1870.236328	12.137838
19469.007181	16926.672833	1869.248047	-84.711372
19469.007181	16926.672833	1868.258789	-14.687372
19469.007181	16926.672833	1867.270508	-19.641645
19469.007181	16926.672833	1866.282227	-43.935204
19469.007181	16926.672833	1865.292969	115.440041
19469.007181	16926.672833	1864.303711	100.789558
19469.007181	16926.672833	1863.314453	148.942978
19469.007181	16926.672833	1862.324219	163.265747
19469.007181	16926.672833	1861.334961	129.275528
19469.007181	16926.672833	1860.344727	208.766159
19469.007181	16926.672833	1859.354492	29.937641
19469.007181	16926.672833	1858.364258	312.125366
19469.007181	16926.672833	1857.374023	104.369865
19469.007181	16926.672833	1856.383789	65.557289
19469.007181	16926.672833	1855.392578	70.170151
19469.007181	16926.672833	1854.401367	135.060776
19469.007181	16926.672833	1853.410156	33.546944
19469.007181	16926.672833	1852.418945	16.430826
19469.007181	16926.672833	1851.426758	211.413589
19469.007181	16926.672833	1850.435547	517.155579
19469.007181	16926.672833	1849.443359	-186.731293
19469.007181	16926.672833	1848.451172	-85.806839
19469.007181	16926.672833	1847.458984	202.918564
19469.007181	16926.672833	1846.466797	-2.110372
19469.007181	16926.672833	1845.473633	113.123787
19469.007181	16926.672833	1844.480469	-120.725822
19469.007181	16926.672833	1843.487305	-46.458649
19469.007181	16926.672833	1842.494141	61.446140
19469.007181	16926.672833	1841.500977	231.839462
19469.007181	16926.672833	1840.506836	216.949570
19469.007181	16926.672833	1839.513672	324.685150
19469.007181	16926.672833	1838.519531	302.530701
19469.007181	16926.672833	1837.525391	321.227325
19469.007181	16926.672833	1836.530273	121.184822
19469.007181	16926.672833	1835.536133	322.489777
19469.007181	16926.672833	1834.541016	-55.311028
19469.007181	16926.672833	1833.545898	150.711105
19469.007181	16926.672833	1832.550781	-92.473816
19469.007181	16926.672833	1831.555664	-95.475838
19469.007181	16926.672833	1830.560547	115.161369
19469.007181	16926.672833	1829.564453	126.472397
19469.007181	16926.672833	1828.568359	27.358717
19469.007181	16926.672833	1827.572266	-117.332718
19469.007181	16926.672833	1826.576172	-185.233459
19469.007181	16926.672833	1825.580078	44.267109
19469.007181	16926.672833	1824.583008	192.123352
19469.007181	16926.672833	1823.585938	136.100159
19469.007181	16926.672833	1822.588867	413.263245
19469.007181	16926.672833	1821.591797	-155.727997
19469.007181	16926.672833	1820.594727	212.371887
19469.007181	16926.672833	1819.596680	91.571762
19469.007181	16926.672833	1818.599609	227.072418
19469.007181	16926.672833	1817.601563	309.804413
19469.007181	16926.672833	1816.603516	205.706635
19469.007181	16926.672833	1815.604492	218.916794
19469.007181	16926.672833	1814.606445	88.469917
19469.007181	16926.672833	1813.607422	218.878311
19469.007181	16926.672833	1812.608398	107.547844
19469.007181	16926.672833	1811.609375	142.136032
19469.007181	16926.672833	1810.610352	-179.687897
19469.007181	16926.672833	1809.610352	168.113876
19469.007181	16926.672833	1808.611328	276.660889
19469.007181	16926.672833	1807.611328	158.045013
19469.007181	16926.672833	1806.611328	3.582585
19469.007181	16926.672833	1805.610352	-72.011040
19469.007181	16926.672833	1804.610352	-13.844481
19469.007181	16926.672833	1803.609375	6.042973
19469.007181	16926.672833	1802.608398	350.649445
19469.007181	16926.672833	1801.607422	-64.180061
19469.007181	16926.672833	1800.606445	464.026489
19469.007181	16926.672833	1799.605469	390.532104
19469.007181	16926.672833	1798.603516	226.342896
19469.007181	16926.672833	1797.601563	71.709175
19469.007181	16926.672833	1796.599609	-187.873596
19469.007181	16926.672833	1795.597656	-77.751778
19469.007181	16926.672833	1794.595703	463.863098
19469.007181	16926.672833	1793.592773	154.135086
19469.007181	16926.672833	1792.589844	63.756195
19469.007181	16926.672833	1791.587891	180.684250
19469.007181	16926.672833	1790.583984	97.375359
19469.007181	16926.672833	1789.581055	-24.073099
19469.007181	16926.672833	1788.577148	268.891937
19469.007181	16926.672833	1787.574219	161.630402
19469.007181	16926.672833	1786.570313	128.158035
19469.007181	16926.672833	1785.566406	-207.666748
19469.007181	16926.672833	1784.561523	-126.932220
19469.007181	16926.672833	1783.557617	260.663422
19469.007181	16926.672833	1782.552734	77.086639
19469.007181	16926.672833	1781.547852	93.319199
19469.007181	16926.672833	1780.542969	-290.041809
19469.007181	16926.672833	1779.538086	144.602722
19469.007181	16926.672833	1778.532227	110.709091
19469.007181	16926.672833	1777.527344	152.818130
19469.007181	16926.672833	1776.521484	61.776546
19469.007181	16926.672833	1775.515625	75.244194
19469.007181	16926.672833	1774.508789	-141.772049
19469.007181	16926.672833	1773.502930	-175.900726
19469.007181	16926.672833	1772.496094	13.126245
19469.007181	16926.672833	1771.489258	2.592071
19469.007181	16926.672833	1770.482422	-102.949020
19469.007181	16926.672833	1769.475586	140.338470
19469.007181	16926.672833	1768.467773	108.232567
19469.007181	16926.672833	1767.460938	-118.456970
19469.007181	16926.672833	1766.453125	-53.394371
19469.007181	16926.672833	1765.445313	123.028191
19469.007181	16926.672833	1764.437500	123.866974
19469.007181	16926.672833	1763.428711	138.860657
19469.007181	16926.672833	1762.420898	66.085335
19469.007181	16926.672833	1761.412109	242.073425
19469.007181	16926.672833	1760.403320	50.710468
19469.007181	16926.672833	1759.393555	231.227142
19469.007181	16926.672833	1758.384766	231.621964
19469.007181	16926.672833	1757.375000	-156.370026
19469.007181	16926.672833	1756.366211	125.662125
19469.007181	16926.672833	1755.356445	-25.622972
19469.007181	16926.672833	1754.345703	123.612061
19469.007181	16926.672833	1753.335938	133.124329
19469.007181	16926.672833	1752.325195	163.849380
19469.007181	16926.672833	1751.315430	40.759480
19469.007181	16926.672833	1750.304688	90.258675
19469.007181	16926.672833	1749.292969	146.754715
19469.007181	16926.672833	1748.282227	63.696857
19469.007181	16926.672833	1747.270508	-90.304192
19469.007181	16926.672833	1746.259766	-104.916069
19469.007181	16926.672833	1745.248047	-1.481445
19469.007181	16926.672833	1744.235352	54.600834
19469.007181	16926.672833	1743.223633	-198.766083
19469.007181	16926.672833	1742.211914	41.337124
19469.007181	16926.672833	1741.199219	-112.942017
19469.007181	16926.672833	1740.186523	-7.628427
19469.007181	16926.672833	1739.173828	-58.167549
19469.007181	16926.672833	1738.160156	202.646576
19469.007181	16926.672833	1737.147461	-22.617905
19469.007181	16926.672833	1736.133789	-146.466980
19469.007181	16926.672833	1735.120117	-131.233749
19469.007181	16926.672833	1734.106445	-417.832367
19469.007181	16926.672833	1733.091797	-70.381363
19469.007181	16926.672833	1732.078125	41.209660
19469.007181	16926.672833	1731.063477	-35.804237
19469.007181	16926.672833	1730.048828	-230.648300
19469.007181	16926.672833	1729.034180	-157.010056
19469.007181	16926.672833	1728.019531	224.987457
19469.007181	16926.672833	1727.003906	223.016342
19469.007181	16926.672833	1725.988281	-82.671783
19469.007181	16926.672833	1724.972656	209.427032
19469.007181	16926.672833	1723.957031	7.226924
19469.007181	16926.672833	1722.941406	101.434967
19469.007181	16926.672833	1721.924805	-114.937210
19469.007181	16926.672833	1720.909180	96.677170
19469.007181	16926.672833	1719.892578	65.967224
19469.007181	16926.672833	1718.875977	-51.783546
19469.007181	16926.672833	1717.858398	-28.557905
19469.007181	16926.672833	1716.841797	48.627575
19469.007181	16926.672833	1715.824219	-139.768982
19469.007181	16926.672833	1714.806641	57.040150
19469.007181	16926.672833	1713.789063	-49.247566
19469.007181	16926.672833	1712.770508	163.744171
19469.007181	16926.672833	1711.752930	87.839409
19469.007181	16926.672833	1710.734375	-133.635239
19469.007181	16926.672833	1709.715820	-50.043961
19469.007181	16926.672833	1708.697266	110.859581
19469.007181	16926.672833	1707.678711	1.868608
19469.007181	16926.672833	1706.659180	-100.123360
19469.007181	16926.672833	1705.640625	341.843445
19469.007181	16926.672833	1704.621094	12.268652
19469.007181	16926.672833	1703.600586	203.087906
19469.007181	16926.672833	1702.581055	-98.363579
19469.007181	16926.672833	1701.561523	-118.616180
19469.007181	16926.672833	1700.541016	-199.845078
19469.007181	16926.672833	1699.520508	-75.013214
19469.007181	16926.672833	1698.500000	309.618042
19469.007181	16926.672833	1697.478516	85.312782
19469.007181	16926.672833	1696.458008	-50.030354
19469.007181	16926.672833	1695.436523	69.694557
19469.007181	16926.672833	1694.415039	9.132390
19469.007181	16926.672833	1693.393555	250.301132
19469.007181	16926.672833	1692.372070	257.410217
19469.007181	16926.672833	1691.349609	56.313221
19469.007181	16926.672833	1690.327148	589.370239
19469.007181	16926.672833	1689.304688	577.487915
19469.007181	16926.672833	1688.282227	247.686325
19469.007181	16926.672833	1687.259766	165.631927
19469.007181	16926.672833	1686.236328	305.478882
19469.007181	16926.672833	1685.213867	421.848083
19469.007181	16926.672833	1684.190430	449.353912
19469.007181	16926.672833	1683.166016	392.721344
19469.007181	16926.672833	1682.142578	683.878296
19469.007181	16926.672833	1681.119141	253.648788
19469.007181	16926.672833	1680.094727	175.878052
19469.007181	16926.672833	1679.070313	606.690613
19469.007181	16926.672833	1678.045898	531.081238
19469.007181	16926.672833	1677.020508	364.475067
19469.007181	16926.672833	1675.996094	477.685638
19469.007181	16926.672833	1674.970703	719.002075
19469.007181	16926.672833	1673.945313	179.324738
19469.007181	16926.672833	1672.919922	704.788940
19469.007181	16926.672833	1671.893555	475.075562
19469.007181	16926.672833	1670.868164	308.289734
19469.007181	16926.672833	1669.841797	770.348999
19469.007181	16926.672833	1668.815430	619.743896
19469.007181	16926.672833	1667.789063	497.072662
19469.007181	16926.672833	1666.761719	341.797211
19469.007181	16926.672833	1665.735352	510.017395
19469.007181	16926.672833	1664.708008	487.310486
19469.007181	16926.672833	1663.680664	466.880127
19469.007181	16926.672833	1662.653320	455.705627
19469.007181	16926.672833	1661.625000	677.020081
19469.007181	16926.672833	1660.597656	486.669983
19469.007181	16926.672833	1659.569336	777.519287
19469.007181	16926.672833	1658.541016	754.445801
19469.007181	16926.672833	1657.512695	791.743225
19469.007181	16926.672833	1656.483398	877.753967
19469.007181	16926.672833	1655.455078	1314.426514
19469.007181	16926.672833	1654.425781	1019.341309
19469.007181	16926.672833	1653.396484	738.249390
19469.007181	16926.672833	1652.366211	1030.604248
19469.007181	16926.672833	1651.336914	802.903748
19469.007181	16926.672833	1650.306641	1101.999390
19469.007181	16926.672833	1649.276367	941.554443
19469.007181	16926.672833	1648.246094	1490.933228
19469.007181	16926.672833	1647.215820	1425.470703
19469.007181	16926.672833	1646.185547	1369.265259
19469.007181	16926.672833	1645.154297	1301.440063
19469.007181	16926.672833	1644.123047	1465.381592
19469.007181	16926.672833	1643.091797	1821.559570
19469.007181	16926.672833	1642.060547	1751.244263
19469.007181	16926.672833	1641.028320	1789.783569
19469.007181	16926.672833	1639.997070	1923.232788
19469.007181	16926.672833	1638.964844	1915.335327
19469.007181	16926.672833	1637.931641	2122.705078
19469.007181	16926.672833	1636.899414	2103.126709
19469.007181	16926.672833	1635.867188	1805.808594
19469.007181	16926.672833	1634.833984	1952.815552
19469.007181	16926.672833	1633.800781	2201.518555
19469.007181	16926.672833	1632.767578	1661.393188
19469.007181	16926.672833	1631.734375	1988.616455
19469.007181	16926.672833	1630.700195	2091.410645
19469.007181	16926.672833	1629.666016	2136.346191
19469.007181	16926.672833	1628.631836	1698.217285
19469.007181	16926.672833	1627.597656	1854.067871
19469.007181	16926.672833	1626.563477	2081.447754
19469.007181	16926.672833	1625.528320	2179.360840
19469.007181	16926.672833	1624.493164	2085.537598
19469.007181	16926.672833	1623.458008	2010.199951
19469.007181	16926.672833	1622.422852	2135.700439
19469.007181	16926.672833	1621.387695	1940.325562
19469.007181	16926.672833	1620.351563	1952.676392
19469.007181	16926.672833	1619.315430	1941.931030
19469.007181	16926.672833	1618.279297	2034.969727
19469.007181	16926.672833	1617.243164	2086.443604
19469.007181	16926.672833	1616.207031	2128.660889
19469.007181	16926.672833	1615.169922	2078.626709
19469.007181	16926.672833	1614.132813	2116.183594
19469.007181	16926.672833	1613.095703	2342.670654
19469.007181	16926.672833	1612.058594	2117.490967
19469.007181	16926.672833	1611.020508	2019.070435
19469.007181	16926.672833	1609.983398	2392.807373
19469.007181	16926.672833	1608.945313	2077.912842
19469.007181	16926.672833	1607.907227	2336.364258
19469.007181	16926.672833	1606.868164	2477.315430
19469.007181	16926.672833	1605.830078	1930.149536
19469.007181	16926.672833	1604.791016	2188.456299
19469.007181	16926.672833	1603.751953	2375.351807
19469.007181	16926.672833	1602.712891	2249.387939
19469.007181	16926.672833	1601.673828	2436.196533
19469.007181	16926.672833	1600.633789	2218.304932
19469.007181	16926.672833	1599.594727	2533.768066
19469.007181	16926.672833	1598.554688	2219.429443
19469.007181	16926.672833	1597.513672	2148.759521
19469.007181	16926.672833	1596.473633	2153.937988
19469.007181	16926.672833	1595.433594	2466.884033
19469.007181	16926.672833	1594.392578	2522.525879
19469.007181	16926.672833	1593.351563	2449.586426
19469.007181	16926.672833	1592.310547	2349.141113
19469.007181	16926.672833	1591.268555	2370.373535
19469.007181	16926.672833	1590.227539	2233.297119
19469.007181	16926.672833	1589.185547	2369.271729
19469.007181	16926.672833	1588.143555	2113.003174
19469.007181	16926.672833	1587.100586	2407.202393
19469.007181	16926.672833	1586.058594	2183.159912
19469.007181	16926.672833	1585.015625	2165.519287
19469.007181	16926.672833	1583.972656	1886.640259
19469.007181	16926.672833	1582.929688	2238.014160
19469.007181	16926.672833	1581.886719	2108.183350
19469.007181	16926.672833	1580.843750	1980.717285
19469.007181	16926.672833	1579.799805	1883.090698
19469.007181	16926.672833	1578.755859	1941.218262
19469.007181	16926.672833	1577.711914	1997.061768
19469.007181	16926.672833	1576.666992	2318.391113
19469.007181	16926.672833	1575.623047	1996.639282
19469.007181	16926.672833	1574.578125	1949.572998
19469.007181	16926.672833	1573.533203	2266.241455
19469.007181	16926.672833	1572.488281	1848.733398
19469.007181	16926.672833	1571.443359	2163.079590
19469.007181	16926.672833	1570.397461	1686.382202
19469.007181	16926.672833	1569.351563	1817.861694
19469.007181	16926.672833	1568.305664	1704.824097
19469.007181	16926.672833	1567.259766	1948.274414
19469.007181	16926.672833	1566.213867	1771.380005
19469.007181	16926.672833	1565.166992	1740.748779
19469.007181	16926.672833	1564.120117	1840.320190
19469.007181	16926.672833	1563.073242	1565.513306
19469.007181	16926.672833	1562.026367	1991.553955
19469.007181	16926.672833	1560.978516	1559.456665
19469.007181	16926.672833	1559.930664	1700.232788
19469.007181	16926.672833	1558.883789	1647.122070
19469.007181	16926.672833	1557.834961	1838.093750
19469.007181	16926.672833	1556.787109	1404.288330
19469.007181	16926.672833	1555.739258	1353.694946
19469.007181	16926.672833	1554.690430	1027.381348
19469.007181	16926.672833	1553.641602	1596.821289
19469.007181	16926.672833	1552.592773	1231.969238
19469.007181	16926.672833	1551.542969	1204.443604
19469.007181	16926.672833	1550.494141	1008.460144
19469.007181	16926.672833	1549.444336	1038.034058
19469.007181	16926.672833	1548.394531	771.705383
19469.007181	16926.672833	1547.344727	1354.533936
19469.007181	16926.672833	1546.293945	1104.298584
19469.007181	16926.672833	1545.244141	1145.460571
19469.007181	16926.672833	1544.193359	1170.744751
19469.007181	16926.672833	1543.142578	1039.157471
19469.007181	16926.672833	1542.090820	1269.232056
19469.007181	16926.672833	1541.040039	1076.434814
19469.007181	16926.672833	1539.988281	972.424927
19469.007181	16926.672833	1538.936523	1079.874390
19469.007181	16926.672833	1537.884766	1001.044189
19469.007181	16926.672833	1536.833008	963.208862
19469.007181	16926.672833	1535.780273	875.493713
19469.007181	16926.672833	1534.727539	1071.732788
19469.007181	16926.672833	1533.674805	614.128357
19469.007181	16926.672833	1532.622070	817.308472
19469.007181	16926.672833	1531.569336	934.252686
19469.007181	16926.672833	1530.515625	690.463684
19469.007181	16926.672833	1529.461914	598.845398
19469.007181	16926.672833	1528.408203	541.367615
19469.007181	16926.672833	1527.354492	930.713074
19469.007181	16926.672833	1526.299805	970.847595
19469.007181	16926.672833	1525.246094	623.450134
19469.007181	16926.672833	1524.191406	758.986511
19469.007181	16926.672833	1523.136719	586.409058
19469.007181	16926.672833	1522.081055	713.015930
19469.007181	16926.672833	1521.026367	783.044006
19469.007181	16926.672833	1519.970703	425.149139
19469.007181	16926.672833	1518.915039	411.621246
19469.007181	16926.672833	1517.859375	620.021790
19469.007181	16926.672833	1516.802734	511.596680
19469.007181	16926.672833	1515.747070	769.868896
19469.007181	16926.672833	1514.690430	643.553894
19469.007181	16926.672833	1513.633789	687.023071
19469.007181	16926.672833	1512.577148	488.611206
19469.007181	16926.672833	1511.519531	1050.033447
19469.007181	16926.672833	1510.461914	698.119873
19469.007181	16926.672833	1509.405273	651.551514
19469.007181	16926.672833	1508.346680	166.747604
19469.007181	16926.672833	1507.289063	646.876770
19469.007181	16926.672833	1506.231445	783.607300
19469.007181	16926.672833	1505.172852	421.328613
19469.007181	16926.672833	1504.114258	285.075165
19469.007181	16926.672833	1503.055664	383.744354
19469.007181	16926.672833	1501.996094	577.270752
19469.007181	16926.672833	1500.937500	342.117950
19469.007181	16926.672833	1499.877930	50.767677
19469.007181	16926.672833	1498.818359	181.427628
19469.007181	16926.672833	1497.757813	165.568008
19469.007181	16926.672833	1496.698242	359.510834
19469.007181	16926.672833	1495.637695	-28.083601
19469.007181	16926.672833	1494.577148	57.872829
19469.007181	16926.672833	1493.516602	-144.505798
19469.007181	16926.672833	1492.456055	-47.060490
19469.007181	16926.672833	1491.394531	172.093597
19469.007181	16926.672833	1490.333008	107.538246
19469.007181	16926.672833	1489.271484	173.713654
19469.007181	16926.672833	1488.209961	-520.861816
19469.007181	16926.672833	1487.148438	-177.521484
19469.007181	16926.672833	1486.085938	46.549782
19469.007181	16926.672833	1485.023438	-273.768066
19469.007181	16926.672833	1483.960938	-173.226257
19469.007181	16926.672833	1482.898438	338.931763
19469.007181	16926.672833	1481.834961	113.556618
19469.007181	16926.672833	1480.772461	5.292959
19469.007181	16926.672833	1479.708984	-251.105774
19469.007181	16926.672833	1478.644531	14.000090
19469.007181	16926.672833	1477.581055	-244.298294
19469.007181	16926.672833	1476.517578	-17.181332
19469.007181	16926.672833	1475.453125	225.561646
19469.007181	16926.672833	1474.388672	295.637451
19469.007181	16926.672833	1473.323242	217.444473
19469.007181	16926.672833	1472.258789	269.848022
19469.007181	16926.672833	1471.193359	160.671707
19469.007181	16926.672833	1470.127930	329.543701
19469.007181	16926.672833	1469.062500	288.413757
19469.007181	16926.672833	1467.997070	262.475830
19469.007181	16926.672833	1466.930664	545.960999
19469.007181	16926.672833	1465.865234	691.080627
19469.007181	16926.672833	1464.798828	497.714478
19469.007181	16926.672833	1463.731445	251.011902
19469.007181	16926.672833	1462.665039	458.941223
19469.007181	16926.672833	1461.597656	407.406433
19469.007181	16926.672833	1460.530273	482.163330
19469.007181	16926.672833	1459.462891	515.380310
19469.007181	16926.672833	1458.395508	575.581299
19469.007181	16926.672833	1457.327148	886.021851
19469.007181	16926.672833	1456.259766	1038.090576
19469.007181	16926.672833	1455.191406	626.681335
19469.007181	16926.672833	1454.123047	1207.513794
19469.007181	16926.672833	1453.053711	980.203369
19469.007181	16926.672833	1451.985352	979.387695
19469.007181	16926.672833	1450.916016	998.092346
19469.007181	16926.672833	1449.846680	1225.940796
19469.007181	16926.672833	1448.776367	1180.957275
19469.007181	16926.672833	1447.707031	932.944092
19469.007181	16926.672833	1446.636719	788.091980
19469.007181	16926.672833	1445.566406	837.875427
19469.007181	16926.672833	1444.496094	1087.345459
19469.007181	16926.672833	1443.425781	1165.395020
19469.007181	16926.672833	1442.354492	1391.142700
19469.007181	16926.672833	1441.283203	1050.068237
19469.007181	16926.672833	1440.211914	1162.546875
19469.007181	16926.672833	1439.140625	1332.739014
19469.007181	16926.672833	1438.069336	1326.465088
19469.007181	16926.672833	1436.997070	1695.965576
19469.007181	16926.672833	1435.924805	1851.684326
19469.007181	16926.672833	1434.852539	1966.781494
19469.007181	16926.672833	1433.780273	1915.997681
19469.007181	16926.672833	1432.707031	1889.501343
19469.007181	16926.672833	1431.633789	2167.188965
19469.007181	16926.672833	1430.560547	1969.621216
19469.007181	16926.672833	1429.487305	2308.276611
19469.007181	16926.672833	1428.413086	2634.066406
19469.007181	16926.672833	1427.339844	2494.047363
19469.007181	16926.672833	1426.265625	2807.149414
19469.007181	16926.672833	1425.191406	2676.723389
19469.007181	16926.672833	1424.116211	2887.868408
19469.007181	16926.672833	1423.041992	2715.970215
19469.007181	16926.672833	1421.966797	2509.320801
19469.007181	16926.672833	1420.891602	2337.315674
19469.007181	16926.672833	1419.816406	2203.302002
19469.007181	16926.672833	1418.740234	2269.297607
19469.007181	16926.672833	1417.665039	1772.915649
19469.007181	16926.672833	1416.588867	1436.900757
19469.007181	16926.672833	1415.512695	1161.357910
19469.007181	16926.672833	1414.435547	968.246887
19469.007181	16926.672833	1413.359375	699.433350
19469.007181	16926.672833	1412.282227	688.727539
19469.007181	16926.672833	1411.205078	668.372559
19469.007181	16926.672833	1410.127930	793.083252
19469.007181	16926.672833	1409.049805	553.173401
19469.007181	16926.672833	1407.972656	517.909424
19469.007181	16926.672833	1406.894531	520.923340
19469.007181	16926.672833	1405.816406	498.978973
19469.007181	16926.672833	1404.737305	537.884888
19469.007181	16926.672833	1403.659180	706.136780
19469.007181	16926.672833	1402.580078	593.906738
19469.007181	16926.672833	1401.500977	653.653381
19469.007181	16926.672833	1400.421875	733.534668
19469.007181	16926.672833	1399.341797	468.611603
19469.007181	16926.672833	1398.262695	363.058258
19469.007181	16926.672833	1397.182617	573.778442
19469.007181	16926.672833	1396.102539	536.491760
19469.007181	16926.672833	1395.021484	490.152283
19469.007181	16926.672833	1393.941406	415.737640
19469.007181	16926.672833	1392.860352	86.814774
19469.007181	16926.672833	1391.779297	47.604610
19469.007181	16926.672833	1390.698242	227.050140
19469.007181	16926.672833	1389.616211	239.729172
19469.007181	16926.672833	1388.535156	3.340517
19469.007181	16926.672833	1387.453125	298.708252
19469.007181	16926.672833	1386.371094	558.771362
19469.007181	16926.672833	1385.288086	210.166702
19469.007181	16926.672833	1384.206055	161.312668
19469.007181	16926.672833	1383.123047	93.356644
19469.007181	16926.672833	1382.040039	349.387390
19469.007181	16926.672833	1380.957031	309.404388
19469.007181	16926.672833	1379.873047	387.863525
19469.007181	16926.672833	1378.789063	256.341370
19469.007181	16926.672833	1377.705078	458.202667
19469.007181	16926.672833	1376.621094	527.282776
19469.007181	16926.672833	1375.537109	597.118286
19469.007181	16926.672833	1374.452148	461.687134
19469.007181	16926.672833	1373.367188	491.117920
19469.007181	16926.672833	1372.282227	718.136597
19469.007181	16926.672833	1371.197266	600.838318
19469.007181	16926.672833	1370.112305	705.630676
19469.007181	16926.672833	1369.026367	422.701111
19469.007181	16926.672833	1367.940430	356.392395
19469.007181	16926.672833	1366.854492	423.324982
19469.007181	16926.672833	1365.767578	600.069519
19469.007181	16926.672833	1364.681641	724.465332
19469.007181	16926.672833	1363.594727	519.369263
19469.007181	16926.672833	1362.507813	703.660461
19469.007181	16926.672833	1361.419922	877.968567
19469.007181	16926.672833	1360.333008	795.673035
19469.007181	16926.672833	1359.245117	675.762390
19469.007181	16926.672833	1358.157227	897.537170
19469.007181	16926.672833	1357.069336	748.043518
19469.007181	16926.672833	1355.981445	979.339294
19469.007181	16926.672833	1354.892578	860.238403
19469.007181	16926.672833	1353.803711	1041.433350
19469.007181	16926.672833	1352.714844	1188.142212
19469.007181	16926.672833	1351.625000	1170.585449
19469.007181	16926.672833	1350.536133	966.075562
19469.007181	16926.672833	1349.446289	1173.476318
19469.007181	16926.672833	1348.356445	980.263000
19469.007181	16926.672833	1347.266602	996.073242
19469.007181	16926.672833	1346.175781	1127.602783
19469.007181	16926.672833	1345.085938	1179.246948
19469.007181	16926.672833	1343.995117	1191.274902
19469.007181	16926.672833	1342.903320	1045.275757
19469.007181	16926.672833	1341.812500	1124.794800
19469.007181	16926.672833	1340.720703	843.523621
19469.007181	16926.672833	1339.629883	1053.254883
19469.007181	16926.672833	1338.538086	1337.465698
19469.007181	16926.672833	1337.445313	1117.692505
19469.007181	16926.672833	1336.353516	1090.612305
19469.007181	16926.672833	1335.260742	980.845215
19469.007181	16926.672833	1334.167969	990.204834
19469.007181	16926.672833	1333.075195	930.789795
19469.007181	16926.672833	1331.981445	824.587830
19469.007181	16926.672833	1330.888672	1049.477905
19469.007181	16926.672833	1329.794922	927.052002
19469.007181	16926.672833	1328.701172	1063.271484
19469.007181	16926.672833	1327.606445	944.587280
19469.007181	16926.672833	1326.512695	1186.082764
19469.007181	16926.672833	1325.417969	1270.860229
19469.007181	16926.672833	1324.323242	1001.216675
19469.007181	16926.672833	1323.227539	1223.218628
19469.007181	16926.672833	1322.132813	1183.643921
19469.007181	16926.672833	1321.037109	1366.791016
19469.007181	16926.672833	1319.941406	1124.008911
19469.007181	16926.672833	1318.845703	930.007751
19469.007181	16926.672833	1317.750000	889.665161
19469.007181	16926.672833	1316.653320	1031.997559
19469.007181	16926.672833	1315.556641	1050.285278
19469.007181	16926.672833	1314.459961	1053.365234
19469.007181	16926.672833	1313.363281	857.599609
19469.007181	16926.672833	1312.265625	1082.774536
19469.007181	16926.672833	1311.167969	897.478638
19469.007181	16926.672833	1310.070313	841.402161
19469.007181	16926.672833	1308.972656	968.169067
19469.007181	16926.672833	1307.874023	793.712280
19469.007181	16926.672833	1306.776367	807.205383
19469.007181	16926.672833	1305.677734	916.599609
19469.007181	16926.672833	1304.579102	813.379517
19469.007181	16926.672833	1303.479492	375.542816
19469.007181	16926.672833	1302.380859	447.793762
19469.007181	16926.672833	1301.281250	427.296967
19469.007181	16926.672833	1300.181641	707.218384
19469.007181	16926.672833	1299.081055	476.733673
19469.007181	16926.672833	1297.981445	498.491791
19469.007181	16926.672833	1296.880859	96.101311
19469.007181	16926.672833	1295.780273	216.512970
19469.007181	16926.672833	1294.679688	105.084923
19469.007181	16926.672833	1293.578125	245.356476
19469.007181	16926.672833	1292.476563	154.588730
19469.007181	16926.672833	1291.375000	200.141739
19469.007181	16926.672833	1290.273438	204.713501
19469.007181	16926.672833	1289.171875	80.207047
19469.007181	16926.672833	1288.069336	44.943237
19469.007181	16926.672833	1286.966797	58.938663
19469.007181	16926.672833	1285.864258	8.875654
19469.007181	16926.672833	1284.761719	103.272476
19469.007181	16926.672833	1283.658203	-22.110361
19469.007181	16926.672833	1282.554688	197.126312
19469.007181	16926.672833	1281.451172	-157.040298
19469.007181	16926.672833	1280.347656	-36.933712
19469.007181	16926.672833	1279.244141	17.720160
19469.007181	16926.672833	1278.139648	-126.179245
19469.007181	16926.672833	1277.035156	90.159523
19469.007181	16926.672833	1275.930664	-63.360554
19469.007181	16926.672833	1274.825195	66.294876
19469.007181	16926.672833	1273.720703	39.479061
19469.007181	16926.672833	1272.615234	152.652634
19469.007181	16926.672833	1271.508789	-60.605484
19469.007181	16926.672833	1270.403320	117.211960
19469.007181	16926.672833	1269.297852	47.012432
19469.007181	16926.672833	1268.191406	142.131302
19469.007181	16926.672833	1267.084961	319.371277
19469.007181	16926.672833	1265.977539	130.880295
19469.007181	16926.672833	1264.871094	116.489433
19469.007181	16926.672833	1263.763672	81.169731
19469.007181	16926.672833	1262.656250	41.098747
19469.007181	16926.672833	1261.548828	254.132568
19469.007181	16926.672833	1260.440430	90.261108
19469.007181	16926.672833	1259.333008	-56.415394
19469.007181	16926.672833	1258.224609	80.244362
19469.007181	16926.672833	1257.115234	-17.260849
19469.007181	16926.672833	1256.006836	106.569412
19469.007181	16926.672833	1254.897461	155.800461
19469.007181	16926.672833	1253.788086	343.199432
19469.007181	16926.672833	1252.678711	65.757149
19469.007181	16926.672833	1251.569336	58.956692
19469.007181	16926.672833	1250.458984	174.682724
19469.007181	16926.672833	1249.349609	240.025223
19469.007181	16926.672833	1248.239258	-99.819344
19469.007181	16926.672833	1247.127930	10.762998
19469.007181	16926.672833	1246.017578	-133.106644
19469.007181	16926.672833	1244.906250	-116.798080
19469.007181	16926.672833	1243.794922	9.051301
19469.007181	16926.672833	1242.683594	78.858147
19469.007181	16926.672833	1241.571289	-104.381409
19469.007181	16926.672833	1240.459961	-145.843262
19469.007181	16926.672833	1239.347656	-85.428345
19469.007181	16926.672833	1238.234375	-16.434824
19469.007181	16926.672833	1237.122070	61.603928
19469.007181	16926.672833	1236.008789	56.533134
19469.007181	16926.672833	1234.896484	107.567429
19469.007181	16926.672833	1233.782227	-116.915253
19469.007181	16926.672833	1232.668945	47.132275
19469.007181	16926.672833	1231.555664	-105.772285
19469.007181	16926.672833	1230.441406	-22.552654
19469.007181	16926.672833	1229.327148	95.257217
19469.007181	16926.672833	1228.211914	79.643784
19469.007181	16926.672833	1227.097656	130.718140
19469.007181	16926.672833	1225.982422	-52.135342
19469.007181	16926.672833	1224.867188	199.412659
19469.007181	16926.672833	1223.751953	59.944859
19469.007181	16926.672833	1222.635742	-12.817926
19469.007181	16926.672833	1221.520508	-135.737183
19469.007181	16926.672833	1220.404297	-203.471558
19469.007181	16926.672833	1219.287109	-127.686394
19469.007181	16926.672833	1218.170898	-185.290009
19469.007181	16926.672833	1217.053711	-40.595367
19469.007181	16926.672833	1215.936523	-283.747681
19469.007181	16926.672833	1214.819336	-20.459116
19469.007181	16926.672833	1213.702148	-181.061005
19469.007181	16926.672833	1212.583984	76.851006
19469.007181	16926.672833	1211.465820	-91.653374
19469.007181	16926.672833	1210.347656	-30.256992
19469.007181	16926.672833	1209.229492	91.177589
19469.007181	16926.672833	1208.110352	-31.720726
19469.007181	16926.672833	1206.992188	157.909653
19469.007181	16926.672833	1205.873047	-10.283587
19469.007181	16926.672833	1204.752930	80.581085
19469.007181	16926.672833	1203.633789	-99.935356
19469.007181	16926.672833	1202.513672	-159.995911
19469.007181	16926.672833	1201.393555	-134.698593
19469.007181	16926.672833	1200.273438	-162.835602
19469.007181	16926.672833	1199.152344	-125.395378
19469.007181	16926.672833	1198.032227	-40.064686
19469.007181	16926.672833	1196.911133	-198.649368
19469.007181	16926.672833	1195.790039	-109.514832
19469.007181	16926.672833	1194.667969	202.223404
19469.007181	16926.672833	1193.545898	320.407043
19469.007181	16926.672833	1192.424805	254.457977
19469.007181	16926.672833	1191.301758	203.893112
19469.007181	16926.672833	1190.179688	410.912079
19469.007181	16926.672833	1189.056641	318.278931
19469.007181	16926.672833	1187.933594	125.585579
19469.007181	16926.672833	1186.810547	386.137543
19469.007181	16926.672833	1185.687500	345.506073
19469.007181	16926.672833	1184.563477	263.635864
19469.007181	16926.672833	1183.440430	445.708435
19469.007181	16926.672833	1182.316406	441.204132
19469.007181	16926.672833	1181.191406	452.145294
19469.007181	16926.672833	1180.067383	447.957764
19469.007181	16926.672833	1178.942383	421.154907
19469.007181	16926.672833	1177.817383	340.442383
19469.007181	16926.672833	1176.692383	324.567200
19469.007181	16926.672833	1175.566406	228.385941
19469.007181	16926.672833	1174.440430	390.950104
19469.007181	16926.672833	1173.314453	175.614197
19469.007181	16926.672833	1172.188477	330.457306
19469.007181	16926.672833	1171.062500	292.990204
19469.007181	16926.672833	1169.935547	299.082916
19469.007181	16926.672833	1168.808594	303.875122
19469.007181	16926.672833	1167.681641	7.906914
19469.007181	16926.672833	1166.553711	173.177109
19469.007181	16926.672833	1165.426758	-104.933876
19469.007181	16926.672833	1164.298828	48.740444
19469.007181	16926.672833	1163.170898	-18.138449
19469.007181	16926.672833	1162.041992	-0.302407
19469.007181	16926.672833	1160.914063	-120.331436
19469.007181	16926.672833	1159.785156	-104.541908
19469.007181	16926.672833	1158.656250	-284.541595
19469.007181	16926.672833	1157.526367	-120.941452
19469.007181	16926.672833	1156.397461	-127.434250
19469.007181	16926.672833	1155.267578	-101.254768
19469.007181	16926.672833	1154.137695	-89.512444
19469.007181	16926.672833	1153.006836	-322.730560
19469.007181	16926.672833	1151.876953	-268.058350
19469.007181	16926.672833	1150.746094	-185.637344
19469.007181	16926.672833	1149.615234	-324.910645
19469.007181	16926.672833	1148.484375	118.632706
19469.007181	16926.672833	1147.352539	74.617599
19469.007181	16926.672833	1146.220703	98.278877
19469.007181	16926.672833	1145.088867	70.029884
19469.007181	16926.672833	1143.957031	109.229286
19469.007181	16926.672833	1142.825195	149.085373
19469.007181	16926.672833	1141.692383	145.359467
19469.007181	16926.672833	1140.559570	87.919624
19469.007181	16926.672833	1139.426758	-64.725052
19469.007181	16926.672833	1138.292969	129.499054
19469.007181	16926.672833	1137.159180	94.222000
19469.007181	16926.672833	1136.025391	147.906021
19469.007181	16926.672833	1134.891602	31.759516
19469.007181	16926.672833	1133.757813	-148.626328
19469.007181	16926.672833	1132.623047	-67.098106
19469.007181	16926.672833	1131.488281	24.628927
19469.007181	16926.672833	1130.353516	-224.346176
19469.007181	16926.672833	1129.217773	-133.190536
19469.007181	16926.672833	1128.083008	-85.399750
19469.007181	16926.672833	1126.947266	7.307688
19469.007181	16926.672833	1125.811523	132.422043
19469.007181	16926.672833	1124.674805	109.854073
19469.007181	16926.672833	1123.539063	117.987747
19469.007181	16926.672833	1122.402344	78.361809
19469.007181	16926.672833	1121.265625	269.546967
19469.007181	16926.672833	1120.127930	195.192001
19469.007181	16926.672833	1118.990234	34.721306
19469.007181	16926.672833	1117.853516	211.764725
19469.007181	16926.672833	1116.714844	31.985775
19469.007181	16926.672833	1115.577148	418.804108
19469.007181	16926.672833	1114.439453	267.593048
19469.007181	16926.672833	1113.300781	-16.561640
19469.007181	16926.672833	1112.162109	50.601021
19469.007181	16926.672833	1111.022461	52.707733
19469.007181	16926.672833	1109.883789	150.453186
19469.007181	16926.672833	1108.744141	1.501250
19469.007181	16926.672833	1107.604492	102.423782
19469.007181	16926.672833	1106.463867	-228.076599
19469.007181	16926.672833	1105.324219	-33.200993
19469.007181	16926.672833	1104.183594	-41.094723
19469.007181	16926.672833	1103.042969	-79.843750
19469.007181	16926.672833	1101.902344	-152.596741
19469.007181	16926.672833	1100.760742	-42.092873
19469.007181	16926.672833	1099.619141	14.355636
19469.007181	16926.672833	1098.477539	208.287643
19469.007181	16926.672833	1097.335938	55.062355
19469.007181	16926.672833	1096.193359	113.526245
19469.007181	16926.672833	1095.051758	100.198639
19469.007181	16926.672833	1093.909180	184.012863
19469.007181	16926.672833	1092.765625	188.437286
19469.007181	16926.672833	1091.623047	182.364822
19469.007181	16926.672833	1090.479492	209.177536
19469.007181	16926.672833	1089.335938	9.120733
19469.007181	16926.672833	1088.192383	136.270508
19469.007181	16926.672833	1087.047852	196.935654
19469.007181	16926.672833	1085.903320	137.775833
19469.007181	16926.672833	1084.758789	207.273438
19469.007181	16926.672833	1083.614258	296.285828
19469.007181	16926.672833	1082.469727	314.674377
19469.007181	16926.672833	1081.324219	391.108765
19469.007181	16926.672833	1080.178711	423.801941
19469.007181	16926.672833	1079.033203	270.587891
19469.007181	16926.672833	1077.886719	420.976013
19469.007181	16926.672833	1076.740234	141.224380
19469.007181	16926.672833	1075.593750	78.647552
19469.007181	16926.672833	1074.447266	29.435045
19469.007181	16926.672833	1073.300781	-41.377892
19469.007181	16926.672833	1072.153320	-65.698288
19469.007181	16926.672833	1071.005859	-37.726490
19469.007181	16926.672833	1069.858398	-238.405731
19469.007181	16926.672833	1068.709961	-67.383507
19469.007181	16926.672833	1067.561523	-32.602047
19469.007181	16926.672833	1066.413086	-105.828766
19469.007181	16926.672833	1065.264648	112.504875
19469.007181	16926.672833	1064.116211	103.584602
19469.007181	16926.672833	1062.966797	24.655159
19469.007181	16926.672833	1061.817383	-47.133415
19469.007181	16926.672833	1060.667969	-154.155899
19469.007181	16926.672833	1059.517578	-24.087692
19469.007181	16926.672833	1058.368164	-1.518738
19469.007181	16926.672833	1057.217773	66.324837
19469.007181	16926.672833	1056.067383	-34.090027
19469.007181	16926.672833	1054.916016	17.826595
19469.007181	16926.672833	1053.764648	-37.135895
19469.007181	16926.672833	1052.613281	157.888046
19469.007181	16926.672833	1051.461914	85.320625
19469.007181	16926.672833	1050.310547	165.949280
19469.007181	16926.672833	1049.158203	123.129181
19469.007181	16926.672833	1048.005859	36.855305
19469.007181	16926.672833	1046.853516	114.055756
19469.007181	16926.672833	1045.700195	-189.834427
19469.007181	16926.672833	1044.547852	-195.295593
19469.007181	16926.672833	1043.394531	-9.430740
19469.007181	16926.672833	1042.240234	-177.614716
19469.007181	16926.672833	1041.086914	-9.944514
19469.007181	16926.672833	1039.932617	-75.203300
19469.007181	16926.672833	1038.778320	107.782379
19469.007181	16926.672833	1037.624023	139.231735
19469.007181	16926.672833	1036.469727	266.690155
19469.007181	16926.672833	1035.314453	105.244370
19469.007181	16926.672833	1034.159180	705.886597
19469.007181	16926.672833	1033.003906	709.761841
19469.007181	16926.672833	1031.847656	686.708618
19469.007181	16926.672833	1030.692383	533.027893
19469.007181	16926.672833	1029.536133	642.277039
19469.007181	16926.672833	1028.378906	498.432892
19469.007181	16926.672833	1027.222656	450.716858
19469.007181	16926.672833	1026.065430	455.732697
19469.007181	16926.672833	1024.908203	168.436188
19469.007181	16926.672833	1023.750977	54.251732
19469.007181	16926.672833	1022.593750	38.332245
19469.007181	16926.672833	1021.435547	131.201187
19469.007181	16926.672833	1020.277344	114.931870
19469.007181	16926.672833	1019.119141	80.603004
19469.007181	16926.672833	1017.959961	-30.422291
19469.007181	16926.672833	1016.800781	-185.972809
19469.007181	16926.672833	1015.641602	-95.809654
19469.007181	16926.672833	1014.482422	13.183076
19469.007181	16926.672833	1013.323242	76.656418
19469.007181	16926.672833	1012.163086	94.514175
19469.007181	16926.672833	1011.002930	-5.648216
19469.007181	16926.672833	1009.842773	19.804682
19469.007181	16926.672833	1008.681641	-269.504761
19469.007181	16926.672833	1007.520508	-186.119537
19469.007181	16926.672833	1006.359375	276.267670
19469.007181	16926.672833	1005.198242	124.983757
19469.007181	16926.672833	1004.037109	247.179810
19469.007181	16926.672833	1002.875000	780.345093
19469.007181	16926.672833	1001.712891	542.937012
19469.007181	16926.672833	1000.550781	520.368347
19469.007181	16926.672833	999.387695	525.848938
19469.007181	16926.672833	998.224609	506.877350
19469.007181	16926.672833	997.061523	638.483643
19469.007181	16926.672833	995.898438	406.643219
19469.007181	16926.672833	994.734375	532.915222
19469.007181	16926.672833	993.571289	619.027222
19469.007181	16926.672833	992.407227	353.897644
19469.007181	16926.672833	991.242188	688.585632
19469.007181	16926.672833	990.078125	390.770355
19469.007181	16926.672833	988.913086	379.467499
19469.007181	16926.672833	987.748047	344.246521
19469.007181	16926.672833	986.583008	264.580872
19469.007181	16926.672833	985.416992	230.918045
19469.007181	16926.672833	984.250977	304.081573
19469.007181	16926.672833	983.084961	278.759796
19469.007181	16926.672833	981.918945	-12.872631
19469.007181	16926.672833	980.751953	203.113922
19469.007181	16926.672833	979.584961	99.924149
19469.007181	16926.672833	978.417969	273.640930
19469.007181	16926.672833	977.250977	139.272858
19469.007181	16926.672833	976.083008	-146.785721
19469.007181	16926.672833	974.915039	-72.767395
19469.007181	16926.672833	973.747070	91.613808
19469.007181	16926.672833	972.579102	-142.151016
19469.007181	16926.672833	971.410156	-56.691208
19469.007181	16926.672833	970.242188	-77.149933
19469.007181	16926.672833	969.072266	132.536148
19469.007181	16926.672833	967.903320	154.303421
19469.007181	16926.672833	966.733398	128.194931
19469.007181	16926.672833	965.563477	6.415987
19469.007181	16926.672833	964.393555	72.035805
19469.007181	16926.672833	963.223633	154.039597
19469.007181	16926.672833	962.052734	399.840698
19469.007181	16926.672833	960.881836	115.025421
19469.007181	16926.672833	959.710938	426.473572
19469.007181	16926.672833	958.540039	320.801208
19469.007181	16926.672833	957.368164	110.790619
19469.007181	16926.672833	956.196289	36.182632
19469.007181	16926.672833	955.024414	243.169510
19469.007181	16926.672833	953.851563	247.049042
19469.007181	16926.672833	952.679688	81.357056
19469.007181	16926.672833	951.506836	144.082779
19469.007181	16926.672833	950.333984	329.264130
19469.007181	16926.672833	949.160156	282.851044
19469.007181	16926.672833	947.986328	175.074875
19469.007181	16926.672833	946.812500	169.831009
19469.007181	16926.672833	945.638672	265.575317
19469.007181	16926.672833	944.464844	245.652435
19469.007181	16926.672833	943.290039	411.187927
19469.007181	16926.672833	942.115234	157.743378
19469.007181	16926.672833	940.940430	309.665283
19469.007181	16926.672833	939.764648	-89.674728
19469.007181	16926.672833	938.588867	-36.332226
19469.007181	16926.672833	937.413086	75.904541
19469.007181	16926.672833	936.237305	173.157486
19469.007181	16926.672833	935.060547	73.313728
19469.007181	16926.672833	933.883789	101.688873
19469.007181	16926.672833	932.707031	-27.602970
19469.007181	16926.672833	931.530273	-106.279762
19469.007181	16926.672833	930.352539	-340.286560
19469.007181	16926.672833	929.175781	-115.070740
19469.007181	16926.672833	927.998047	185.427933
19469.007181	16926.672833	926.819336	-241.272247
19469.007181	16926.672833	925.641602	21.455658
19469.007181	16926.672833	924.462891	32.704956
19469.007181	16926.672833	923.284180	131.910599
19469.007181	16926.672833	922.104492	-18.153906
19469.007181	16926.672833	920.924805	-46.727398
19469.007181	16926.672833	919.746094	-38.148273
19469.007181	16926.672833	919.551758	-155.537964
19469.007181	16926.672833	918.386719	-175.836456
19469.007181	16926.672833	917.220703	-28.737583
19469.007181	16926.672833	916.054688	-82.554375
19469.007181	16926.672833	914.887695	112.547050
19469.007181	16926.672833	913.721680	173.709549
19469.007181	16926.672833	912.554688	184.656815
19469.007181	16926.672833	911.387695	258.298523
19469.007181	16926.672833	910.220703	41.389206
19469.007181	16926.672833	909.052734	60.680634
19469.007181	16926.672833	907.885742	-45.401051
19469.007181	16926.672833	906.717773	191.100113
19469.007181	16926.672833	905.548828	-48.623875
19469.007181	16926.672833	904.380859	-29.377296
19469.007181	16926.672833	903.211914	-35.188660
19469.007181	16926.672833	902.042969	-174.576019
19469.007181	16926.672833	900.874023	5.330354
19469.007181	16926.672833	899.704102	-38.057777
19469.007181	16926.672833	898.535156	252.273712
19469.007181	16926.672833	897.365234	-28.883505
19469.007181	16926.672833	896.194336	-241.126556
19469.007181	16926.672833	895.024414	71.984474
19469.007181	16926.672833	893.853516	114.045876
19469.007181	16926.672833	892.682617	-4.351038
19469.007181	16926.672833	891.511719	-166.449905
19469.007181	16926.672833	890.340820	-36.904522
19469.007181	16926.672833	889.168945	171.718201
19469.007181	16926.672833	887.997070	-9.058794
19469.007181	16926.672833	886.825195	-71.121773
19469.007181	16926.672833	885.653320	-33.273010
19469.007181	16926.672833	884.480469	-172.286514
19469.007181	16926.672833	883.307617	163.038376
19469.007181	16926.672833	882.134766	-94.506927
19469.007181	16926.672833	880.961914	34.808453
19469.007181	16926.672833	879.788086	-50.049297
19469.007181	16926.672833	878.614258	-18.479185
19469.007181	16926.672833	877.440430	-173.945694
19469.007181	16926.672833	876.266602	-142.360565
19469.007181	16926.672833	875.091797	-237.490097
19469.007181	16926.672833	873.916992	-351.270477
19469.007181	16926.672833	872.742188	-203.379074
19469.007181	16926.672833	871.567383	-167.649612
19469.007181	16926.672833	870.391602	-142.301544
19469.007181	16926.672833	869.215820	-40.181236
19469.007181	16926.672833	868.040039	-108.223984
19469.007181	16926.672833	866.864258	-70.451019
19469.007181	16926.672833	865.687500	31.607595
19469.007181	16926.672833	864.510742	98.378868
19469.007181	16926.672833	863.333984	-120.941689
19469.007181	16926.672833	862.157227	138.589478
19469.007181	16926.672833	860.979492	267.481323
19469.007181	16926.672833	859.802734	-73.957352
19469.007181	16926.672833	858.625000	156.425888
19469.007181	16926.672833	857.446289	109.232773
19469.007181	16926.672833	856.268555	219.410706
19469.007181	16926.672833	855.089844	64.594513
19469.007181	16926.672833	853.911133	-46.693211
19469.007181	16926.672833	852.731445	-17.219011
19469.007181	16926.672833	851.552734	14.308199
19469.007181	16926.672833	850.373047	145.113068
19469.007181	16926.672833	849.193359	246.919266
19469.007181	16926.672833	848.013672	150.215088
19469.007181	16926.672833	846.833008	245.794464
19469.007181	16926.672833	845.652344	64.418152
19469.007181	16926.672833	844.471680	176.515778
19469.007181	16926.672833	843.291016	222.468170
19469.007181	16926.672833	842.110352	280.800659
19469.007181	16926.672833	840.928711	310.211395
19469.007181	16926.672833	839.747070	434.582123
19469.007181	16926.672833	838.564453	292.650055
19469.007181	16926.672833	837.382813	361.262665
19469.007181	16926.672833	836.200195	252.425735
19469.007181	16926.672833	835.017578	19.870527
19469.007181	16926.672833	833.834961	428.805817
19469.007181	16926.672833	832.651367	569.533264
19469.007181	16926.672833	831.467773	732.883606
19469.007181	16926.672833	830.284180	463.342987
19469.007181	16926.672833	829.100586	367.012695
19469.007181	16926.672833	827.916992	565.337830
19469.007181	16926.672833	826.732422	701.795654
19469.007181	16926.672833	825.547852	838.201294
19469.007181	16926.672833	824.363281	811.894287
19469.007181	16926.672833	823.177734	896.767883
19469.007181	16926.672833	821.992188	919.865662
19469.007181	16926.672833	820.806641	759.822021
19469.007181	16926.672833	819.621094	811.742004
19469.007181	16926.672833	818.434570	801.940796
19469.007181	16926.672833	817.249023	726.333801
19469.007181	16926.672833	816.062500	648.709839
19469.007181	16926.672833	814.875000	848.621155
19469.007181	16926.672833	813.688477	873.756653
19469.007181	16926.672833	812.500977	1048.881592
19469.007181	16926.672833	811.313477	737.066711
19469.007181	16926.672833	810.125977	1004.565369
19469.007181	16926.672833	808.937500	653.872253
19469.007181	16926.672833	807.749023	816.573669
19469.007181	16926.672833	806.560547	706.210083
19469.007181	16926.672833	805.372070	846.249695
19469.007181	16926.672833	804.182617	873.388123
19469.007181	16926.672833	802.994141	853.322083
19469.007181	16926.672833	801.803711	827.118347
19469.007181	16926.672833	800.614258	770.154175
19469.007181	16926.672833	799.424805	1117.062744
19469.007181	16926.672833	798.234375	1174.830566
19469.007181	16926.672833	797.043945	912.891541
19469.007181	16926.672833	795.852539	1060.808472
19469.007181	16926.672833	794.662109	903.445984
19469.007181	16926.672833	793.470703	766.621521
19469.007181	16926.672833	792.279297	779.309998
19469.007181	16926.672833	791.087891	722.377869
19469.007181	16926.672833	789.895508	710.489197
19469.007181	16926.672833	788.703125	1152.851440
19469.007181	16926.672833	787.510742	1040.604126
19469.007181	16926.672833	786.318359	1040.883423
19469.007181	16926.672833	785.125000	1474.679443
19469.007181	16926.672833	783.931641	1423.724854
19469.007181	16926.672833	782.738281	1313.493408
19469.007181	16926.672833	781.544922	1329.995972
19469.007181	16926.672833	780.350586	1260.661987
19469.007181	16926.672833	779.156250	1254.661743
19469.007181	16926.672833	777.961914	1146.519531
19469.007181	16926.672833	776.767578	971.015869
19469.007181	16926.672833	775.572266	715.943298
19469.007181	16926.672833	774.376953	905.919312
19469.007181	16926.672833	773.181641	848.864807
19469.007181	16926.672833	771.986328	636.743713
19469.007181	16926.672833	770.790039	924.453857
19469.007181	16926.672833	769.593750	632.816040
19469.007181	16926.672833	768.397461	694.016602
19469.007181	16926.672833	767.201172	581.878784
19469.007181	16926.672833	766.003906	824.403931
19469.007181	16926.672833	764.806641	787.621643
19469.007181	16926.672833	763.609375	842.499695
19469.007181	16926.672833	762.412109	887.134583
19469.007181	16926.672833	761.213867	1178.132935
19469.007181	16926.672833	760.015625	1377.346802
19469.007181	16926.672833	758.817383	1511.300415
19469.007181	16926.672833	757.618164	1421.291626
19469.007181	16926.672833	756.419922	1581.547485
19469.007181	16926.672833	755.220703	1540.299561
19469.007181	16926.672833	754.021484	1529.534668
19469.007181	16926.672833	752.821289	1498.396362
19469.007181	16926.672833	751.621094	1318.810913
19469.007181	16926.672833	750.420898	1206.329956
19469.007181	16926.672833	749.220703	1091.813599
19469.007181	16926.672833	748.020508	1021.994934
19469.007181	16926.672833	746.819336	996.849243
19469.007181	16926.672833	745.618164	835.586182
19469.007181	16926.672833	744.416992	901.755371
19469.007181	16926.672833	743.214844	959.726318
19469.007181	16926.672833	742.012695	1011.527283
19469.007181	16926.672833	740.810547	1320.963623
19469.007181	16926.672833	739.608398	1792.518433
19469.007181	16926.672833	738.406250	1785.110474
19469.007181	16926.672833	737.203125	1937.858765
19469.007181	16926.672833	736.000000	2116.836914
19469.007181	16926.672833	734.795898	2169.998047
19469.007181	16926.672833	733.592773	2137.943359
19469.007181	16926.672833	732.388672	2071.391113
19469.007181	16926.672833	731.184570	2223.592773
19469.007181	16926.672833	729.979492	1909.811523
19469.007181	16926.672833	728.775391	1798.584839
19469.007181	16926.672833	727.570313	1527.394165
19469.007181	16926.672833	726.365234	1802.771973
19469.007181	16926.672833	725.160156	1557.849976
19469.007181	16926.672833	723.954102	1385.799438
19469.007181	16926.672833	722.748047	1416.032104
19469.007181	16926.672833	721.541992	1401.677612
19469.007181	16926.672833	720.334961	1191.111938
19469.007181	16926.672833	719.128906	1344.442261
19469.007181	16926.672833	717.921875	1230.826172
19469.007181	16926.672833	716.714844	1167.691528
19469.007181	16926.672833	715.506836	1203.498413
19469.007181	16926.672833	714.298828	1041.246826
19469.007181	16926.672833	713.090820	941.579956
19469.007181	16926.672833	711.882813	1065.980835
19469.007181	16926.672833	710.674805	871.286194
19469.007181	16926.672833	709.465820	1031.795166
19469.007181	16926.672833	708.256836	804.717468
19469.007181	16926.672833	707.047852	835.868042
19469.007181	16926.672833	705.837891	818.499207
19469.007181	16926.672833	704.627930	895.818787
19469.007181	16926.672833	703.417969	815.743469
19469.007181	16926.672833	702.208008	556.201538
19469.007181	16926.672833	700.998047	548.576538
19469.007181	16926.672833	699.787109	540.850708
19469.007181	16926.672833	698.576172	649.859314
19469.007181	16926.672833	697.364258	531.133362
19469.007181	16926.672833	696.153320	511.009277
19469.007181	16926.672833	694.941406	635.735779
19469.007181	16926.672833	693.729492	557.007813
19469.007181	16926.672833	692.516602	343.375549
19469.007181	16926.672833	691.304688	884.182068
19469.007181	16926.672833	690.091797	787.005432
19469.007181	16926.672833	688.878906	641.484436
19469.007181	16926.672833	687.665039	713.059509
19469.007181	16926.672833	686.451172	712.115662
19469.007181	16926.672833	685.237305	656.784485
19469.007181	16926.672833	684.023438	448.643005
19469.007181	16926.672833	682.809570	525.732971
19469.007181	16926.672833	681.594727	827.623230
19469.007181	16926.672833	680.379883	838.084229
19469.007181	16926.672833	679.165039	902.620605
19469.007181	16926.672833	677.949219	878.681946
19469.007181	16926.672833	676.733398	1221.874878
19469.007181	16926.672833	675.517578	1207.647461
19469.007181	16926.672833	674.301758	1421.977051
19469.007181	16926.672833	673.084961	1289.119629
19469.007181	16926.672833	671.869141	1414.845459
19469.007181	16926.672833	670.651367	1341.915771
19469.007181	16926.672833	669.434570	1208.748779
19469.007181	16926.672833	668.216797	1396.120483
19469.007181	16926.672833	667.000000	1539.198364
19469.007181	16926.672833	665.781250	1654.031860
19469.007181	16926.672833	664.563477	2035.020874
19469.007181	16926.672833	663.344727	1981.231445
19469.007181	16926.672833	662.125977	2339.685791
19469.007181	16926.672833	660.907227	2395.638916
19469.007181	16926.672833	659.688477	2237.324219
19469.007181	16926.672833	658.468750	2208.961426
19469.007181	16926.672833	657.249023	2272.465576
19469.007181	16926.672833	656.029297	2083.837891
19469.007181	16926.672833	654.808594	1995.100342
19469.007181	16926.672833	653.587891	1586.440186
19469.007181	16926.672833	652.367188	1455.577393
19469.007181	16926.672833	651.146484	1480.456543
19469.007181	16926.672833	649.924805	1345.368652
19469.007181	16926.672833	648.704102	1439.854370
19469.007181	16926.672833	647.482422	1420.330566
19469.007181	16926.672833	646.259766	1029.350952
19469.007181	16926.672833	645.037109	1067.490356
19469.007181	16926.672833	643.815430	1113.437622
19469.007181	16926.672833	642.591797	929.778503
19469.007181	16926.672833	641.369141	1025.283569
19469.007181	16926.672833	640.145508	873.309753
19469.007181	16926.672833	638.921875	904.667053
19469.007181	16926.672833	637.698242	780.368713
19469.007181	16926.672833	636.474609	745.644836
19469.007181	16926.672833	635.250000	902.048950
19469.007181	16926.672833	634.025391	791.290222
19469.007181	16926.672833	632.800781	783.981628
19469.007181	16926.672833	631.575195	872.088562
19469.007181	16926.672833	630.349609	882.353760
19469.007181	16926.672833	629.124023	886.480225
19469.007181	16926.672833	627.898438	627.770447
19469.007181	16926.672833	626.671875	589.837830
19469.007181	16926.672833	625.445313	525.900513
19469.007181	16926.672833	624.218750	404.151733
19469.007181	16926.672833	622.992188	620.296448
19469.007181	16926.672833	621.764648	524.088379
19469.007181	16926.672833	620.537109	505.267731
19469.007181	16926.672833	619.309570	166.381378
19469.007181	16926.672833	618.081055	167.174896
19469.007181	16926.672833	616.852539	269.097961
19469.007181	16926.672833	615.624023	233.795197
19469.007181	16926.672833	614.395508	99.077347
19469.007181	16926.672833	613.166992	146.860626
19469.007181	16926.672833	611.937500	67.450706
19469.007181	16926.672833	610.708008	142.663254
19469.007181	16926.672833	609.477539	360.495178
19469.007181	16926.672833	608.248047	278.611694
19469.007181	16926.672833	607.017578	-29.442949
19469.007181	16926.672833	605.787109	358.276459
19469.007181	16926.672833	604.555664	151.080856
19469.007181	16926.672833	603.325195	3.263662
19469.007181	16926.672833	602.093750	116.842781
19469.007181	16926.672833	600.861328	-60.953098
19469.007181	16926.672833	599.629883	-149.718414
19469.007181	16926.672833	598.397461	155.372711
19469.007181	16926.672833	597.165039	99.920937
19469.007181	16926.672833	595.932617	89.848831
19469.007181	16926.672833	594.699219	38.064312
19469.007181	16926.672833	593.465820	-69.243584
19469.007181	16926.672833	592.232422	52.750164
19469.007181	16926.672833	590.999023	-177.426270
19469.007181	16926.672833	589.764648	-43.921959
19469.007181	16926.672833	588.530273	57.745739
19469.007181	16926.672833	587.295898	95.982056
19469.007181	16926.672833	586.061523	-16.100704
19469.007181	16926.672833	584.826172	41.570705
19469.007181	16926.672833	583.590820	-248.495071
19469.007181	16926.672833	582.355469	-287.847748
19469.007181	16926.672833	581.119141	-260.226807
19469.007181	16926.672833	579.882813	-155.802856
19469.007181	16926.672833	578.646484	-49.596184
19469.007181	16926.672833	577.410156	-54.054821
19469.007181	16926.672833	576.172852	-17.248653
19469.007181	16926.672833	574.935547	-18.068390
19469.007181	16926.672833	573.698242	-113.659218
19469.007181	16926.672833	572.460938	100.093475
19469.007181	16926.672833	571.222656	201.279648
19469.007181	16926.672833	569.984375	32.374397
19469.007181	16926.672833	568.746094	11.129126
19469.007181	16926.672833	567.506836	46.856228
19469.007181	16926.672833	566.267578	184.814392
19469.007181	16926.672833	565.028320	3.686780
19469.007181	16926.672833	563.789063	-49.573921
19469.007181	16926.672833	562.548828	17.070951
19469.007181	16926.672833	561.309570	81.599457
19469.007181	16926.672833	560.068359	208.887894
19469.007181	16926.672833	558.828125	194.426483
19469.007181	16926.672833	557.586914	-97.363693
19469.007181	16926.672833	556.345703	-115.945610
19469.007181	16926.672833	555.104492	4.877746
19469.007181	16926.672833	553.863281	202.153015
19469.007181	16926.672833	552.621094	10.289370
19469.007181	16926.672833	551.378906	20.664145
19469.007181	16926.672833	550.136719	360.773254
19469.007181	16926.672833	548.893555	256.972900
19469.007181	16926.672833	547.650391	323.849762
19469.007181	16926.672833	546.407227	149.239609
19469.007181	16926.672833	545.164063	280.624725
19469.007181	16926.672833	543.919922	305.925507
19469.007181	16926.672833	542.675781	119.330574
19469.007181	16926.672833	541.431641	144.445251
19469.007181	16926.672833	540.186523	-57.933281
19469.007181	16926.672833	538.941406	274.655273
19469.007181	16926.672833	537.696289	105.441292
19469.007181	16926.672833	536.451172	75.278198
19469.007181	16926.672833	535.205078	-199.775391
19469.007181	16926.672833	533.959961	-114.530411
19469.007181	16926.672833	532.712891	46.907719
19469.007181	16926.672833	531.466797	37.929363
19469.007181	16926.672833	530.219727	34.723774
19469.007181	16926.672833	528.972656	266.185394
19469.007181	16926.672833	527.725586	-75.601959
19469.007181	16926.672833	526.478516	69.576439
19469.007181	16926.672833	525.230469	-127.528008
19469.007181	16926.672833	523.982422	17.428535
19469.007181	16926.672833	522.734375	263.859924
19469.007181	16926.672833	521.485352	43.150177
19469.007181	16926.672833	520.236328	97.879539
19469.007181	16926.672833	518.987305	90.020409
19469.007181	16926.672833	517.737305	-50.691898
19469.007181	16926.672833	516.488281	-123.076691
19469.007181	16926.672833	515.238281	-103.782265
19469.007181	16926.672833	513.988281	32.510033
19469.007181	16926.672833	512.737305	-188.333939
19469.007181	16926.672833	511.486328	-102.934998
19469.007181	16926.672833	510.235352	-11.783902
19469.007181	16926.672833	508.984375	-51.355862
19469.007181	16926.672833	507.732422	24.017368
19469.007181	16926.672833	506.480469	-146.242081
19469.007181	16926.672833	505.228516	-12.547079
19469.007181	16926.672833	503.976563	85.968742
19469.007181	16926.672833	502.723633	51.945889
19469.007181	16926.672833	501.470703	313.837646
19469.007181	16926.672833	500.217773	351.697662
19469.007181	16926.672833	498.963867	646.377075
19469.007181	16926.672833	497.709961	495.288025
19469.007181	16926.672833	496.456055	464.825714
19469.007181	16926.672833	495.202148	409.041534
19469.007181	16926.672833	493.947266	203.487320
19469.007181	16926.672833	492.692383	497.612091
19469.007181	16926.672833	491.437500	534.990356
19469.007181	16926.672833	490.181641	568.403992
19469.007181	16926.672833	488.926758	446.336639
19469.007181	16926.672833	487.670898	502.962921
19469.007181	16926.672833	486.414063	573.096985
19469.007181	16926.672833	485.158203	394.636444
19469.007181	16926.672833	483.901367	581.134155
19469.007181	16926.672833	482.644531	381.284668
19469.007181	16926.672833	481.386719	468.628510
19469.007181	16926.672833	480.128906	577.223267
19469.007181	16926.672833	478.871094	404.483917
19469.007181	16926.672833	477.613281	646.733643
19469.007181	16926.672833	476.355469	634.855957
19469.007181	16926.672833	475.096680	611.281128
19469.007181	16926.672833	473.837891	820.198853
19469.007181	16926.672833	472.578125	463.222534
19469.007181	16926.672833	471.319336	660.334717
19469.007181	16926.672833	470.059570	810.806580
19469.007181	16926.672833	468.799805	581.655334
19469.007181	16926.672833	467.539063	658.366516
19469.007181	16926.672833	466.278320	1094.947388
19469.007181	16926.672833	465.017578	652.807068
19469.007181	16926.672833	463.756836	709.881836
19469.007181	16926.672833	462.495117	1037.607300
19469.007181	16926.672833	461.233398	895.220520
19469.007181	16926.672833	459.971680	816.604309
19469.007181	16926.672833	458.709961	1143.824951
19469.007181	16926.672833	457.447266	1169.330444
19469.007181	16926.672833	456.184570	926.175293
19469.007181	16926.672833	454.921875	1013.315674
19469.007181	16926.672833	453.658203	1397.692749
19469.007181	16926.672833	452.394531	1322.262817
19469.007181	16926.672833	451.130859	1239.020020
19469.007181	16926.672833	449.867188	1230.950806
19469.007181	16926.672833	448.602539	1253.601807
19469.007181	16926.672833	447.337891	1274.171021
19469.007181	16926.672833	446.073242	1130.641479
19469.007181	16926.672833	444.807617	1108.480835
19469.007181	16926.672833	443.542969	1213.415283
19469.007181	16926.672833	442.276367	988.509277
19469.007181	16926.672833	441.010742	942.744385
19469.007181	16926.672833	439.744141	812.021973
19469.007181	16926.672833	438.478516	948.907471
19469.007181	16926.672833	437.210938	1068.157715
19469.007181	16926.672833	435.944336	1212.182129
19469.007181	16926.672833	434.676758	1040.209229
19469.007181	16926.672833	433.409180	968.140991
19469.007181	16926.672833	432.141602	1051.702637
19469.007181	16926.672833	430.873047	979.127075
19469.007181	16926.672833	429.604492	940.922974
19469.007181	16926.672833	428.335938	1058.195068
19469.007181	16926.672833	427.067383	1275.076660
19469.007181	16926.672833	425.797852	807.300232
19469.007181	16926.672833	424.528320	1154.142578
19469.007181	16926.672833	423.258789	952.954651
19469.007181	16926.672833	421.988281	1031.905640
19469.007181	16926.672833	420.717773	830.074524
19469.007181	16926.672833	419.447266	1271.107422
19469.007181	16926.672833	418.175781	1014.741272
19469.007181	16926.672833	416.905273	1207.142700
19469.007181	16926.672833	415.633789	988.398621
19469.007181	16926.672833	414.362305	1156.770264
19469.007181	16926.672833	413.089844	1395.524048
19469.007181	16926.672833	411.817383	1344.137451
19469.007181	16926.672833	410.544922	1217.484741
19469.007181	16926.672833	409.272461	1513.906372
19469.007181	16926.672833	407.999023	1696.553345
19469.007181	16926.672833	406.725586	1435.991699
19469.007181	16926.672833	405.452148	1577.147949
19469.007181	16926.672833	404.177734	1483.958496
19469.007181	16926.672833	402.903320	1744.328491
19469.007181	16926.672833	401.628906	1163.611694
19469.007181	16926.672833	400.354492	1460.805908
19469.007181	16926.672833	399.079102	1255.828735
19469.007181	16926.672833	397.803711	1103.728882
19469.007181	16926.672833	396.528320	1318.079590
19469.007181	16926.672833	395.251953	1164.374512
19469.007181	16926.672833	393.976563	889.471680
19469.007181	16926.672833	392.700195	653.904358
19469.007181	16926.672833	391.422852	667.795288
19469.007181	16926.672833	390.145508	676.900513
19469.007181	16926.672833	388.869141	704.140137
19469.007181	16926.672833	387.590820	1016.707214
19469.007181	16926.672833	386.313477	1261.288330
19469.007181	16926.672833	385.035156	1168.699707
19469.007181	16926.672833	383.756836	947.159180
19469.007181	16926.672833	382.478516	924.862976
19469.007181	16926.672833	381.199219	905.137451
19469.007181	16926.672833	379.919922	865.090576
19469.007181	16926.672833	378.640625	1039.206543
19469.007181	16926.672833	377.360352	760.094421
19469.007181	16926.672833	376.080078	752.240845
19469.007181	16926.672833	374.799805	695.319763
19469.007181	16926.672833	373.519531	335.959412
19469.007181	16926.672833	372.238281	575.111572
19469.007181	16926.672833	370.957031	492.686127
19469.007181	16926.672833	369.675781	452.450073
19469.007181	16926.672833	368.394531	747.434937
19469.007181	16926.672833	367.112305	492.477264
19469.007181	16926.672833	365.830078	431.795166
19469.007181	16926.672833	364.546875	160.012741
19469.007181	16926.672833	363.264648	177.450363
19469.007181	16926.672833	361.981445	255.605606
19469.007181	16926.672833	360.698242	348.809937
19469.007181	16926.672833	359.414063	211.785294
19469.007181	16926.672833	358.129883	-3.326259
19469.007181	16926.672833	356.845703	132.762146
19469.007181	16926.672833	355.561523	2.533162
19469.007181	16926.672833	354.276367	168.053513
19469.007181	16926.672833	352.991211	285.524292
19469.007181	16926.672833	351.706055	-49.345924
19469.007181	16926.672833	350.420898	-238.621674
19469.007181	16926.672833	349.134766	449.730286
19469.007181	16926.672833	347.848633	65.347481
19469.007181	16926.672833	346.561523	288.868866
19469.007181	16926.672833	345.275391	350.251587
19469.007181	16926.672833	343.988281	505.249512
19469.007181	16926.672833	342.700195	524.414063
19469.007181	16926.672833	341.413086	741.366516
19469.007181	16926.672833	340.125000	1061.013672
19469.007181	16926.672833	338.836914	1445.405640
19469.007181	16926.672833	337.548828	1911.450562
19469.007181	16926.672833	336.259766	2002.705078
19469.007181	16926.672833	334.970703	2442.363281
19469.007181	16926.672833	333.681641	2571.638184
19469.007181	16926.672833	332.391602	2625.103271
19469.007181	16926.672833	331.101563	2120.526611
19469.007181	16926.672833	329.811523	1856.124756
19469.007181	16926.672833	328.521484	1166.188232
19469.007181	16926.672833	327.230469	948.553284
19469.007181	16926.672833	325.939453	981.821228
19469.007181	16926.672833	324.648438	621.488831
19469.007181	16926.672833	323.356445	500.328766
19469.007181	16926.672833	322.064453	506.771088
19469.007181	16926.672833	320.772461	283.780273
19469.007181	16926.672833	319.480469	420.316620
19469.007181	16926.672833	318.187500	-144.714966
19469.007181	16926.672833	316.894531	109.883530
19469.007181	16926.672833	315.601563	115.773911
19469.007181	16926.672833	314.307617	4.847590
19469.007181	16926.672833	313.013672	-309.539490
19469.007181	16926.672833	311.719727	-77.116158
19469.007181	16926.672833	310.425781	-142.727020
19469.007181	16926.672833	309.130859	-1.498690
19469.007181	16926.672833	307.835938	-113.219887
19469.007181	16926.672833	306.541016	-327.190826
19469.007181	16926.672833	305.245117	-150.320313
19469.007181	16926.672833	303.949219	108.400719
19469.007181	16926.672833	302.653320	62.905552
19469.007181	16926.672833	301.356445	411.189178
19469.007181	16926.672833	300.060547	336.693146
19469.007181	16926.672833	298.763672	591.522217
