#X		#Y		#Wave		#Intensity
19478.229734	16971.805333	2000.043945	260.736755
19478.229734	16971.805333	1999.080078	-83.359665
19478.229734	16971.805333	1998.116211	-39.864475
19478.229734	16971.805333	1997.151367	-95.774559
19478.229734	16971.805333	1996.186523	46.285370
19478.229734	16971.805333	1995.222656	-146.400299
19478.229734	16971.805333	1994.256836	-240.174133
19478.229734	16971.805333	1993.291992	0.139425
19478.229734	16971.805333	1992.327148	-106.487221
19478.229734	16971.805333	1991.361328	-44.965580
19478.229734	16971.805333	1990.395508	132.636810
19478.229734	16971.805333	1989.429688	188.716156
19478.229734	16971.805333	1988.463867	29.328650
19478.229734	16971.805333	1987.497070	35.541763
19478.229734	16971.805333	1986.531250	19.298450
19478.229734	16971.805333	1985.564453	-44.094360
19478.229734	16971.805333	1984.597656	43.163319
19478.229734	16971.805333	1983.630859	211.787064
19478.229734	16971.805333	1982.664063	58.918072
19478.229734	16971.805333	1981.696289	153.039825
19478.229734	16971.805333	1980.728516	91.341125
19478.229734	16971.805333	1979.761719	138.188950
19478.229734	16971.805333	1978.792969	135.506210
19478.229734	16971.805333	1977.825195	-74.712151
19478.229734	16971.805333	1976.857422	235.879608
19478.229734	16971.805333	1975.888672	-95.459335
19478.229734	16971.805333	1974.919922	66.729401
19478.229734	16971.805333	1973.951172	280.554504
19478.229734	16971.805333	1972.982422	257.392151
19478.229734	16971.805333	1972.013672	251.397629
19478.229734	16971.805333	1971.043945	343.944183
19478.229734	16971.805333	1970.075195	88.748734
19478.229734	16971.805333	1969.105469	84.980354
19478.229734	16971.805333	1968.135742	236.384415
19478.229734	16971.805333	1967.165039	183.149719
19478.229734	16971.805333	1966.195313	297.372375
19478.229734	16971.805333	1965.224609	155.329636
19478.229734	16971.805333	1964.253906	180.725769
19478.229734	16971.805333	1963.283203	-91.866982
19478.229734	16971.805333	1962.312500	310.074646
19478.229734	16971.805333	1961.341797	-174.221085
19478.229734	16971.805333	1960.370117	350.515442
19478.229734	16971.805333	1959.399414	414.931213
19478.229734	16971.805333	1958.427734	166.883942
19478.229734	16971.805333	1957.455078	24.640400
19478.229734	16971.805333	1956.483398	66.824150
19478.229734	16971.805333	1955.511719	35.200287
19478.229734	16971.805333	1954.539063	180.533676
19478.229734	16971.805333	1953.566406	200.447968
19478.229734	16971.805333	1952.593750	210.496719
19478.229734	16971.805333	1951.621094	-81.649445
19478.229734	16971.805333	1950.647461	174.016022
19478.229734	16971.805333	1949.674805	-29.653013
19478.229734	16971.805333	1948.701172	-76.126671
19478.229734	16971.805333	1947.727539	44.323830
19478.229734	16971.805333	1946.753906	230.983932
19478.229734	16971.805333	1945.780273	159.906555
19478.229734	16971.805333	1944.805664	-73.078125
19478.229734	16971.805333	1943.831055	32.524059
19478.229734	16971.805333	1942.856445	32.623207
19478.229734	16971.805333	1941.881836	-18.776894
19478.229734	16971.805333	1940.907227	118.614571
19478.229734	16971.805333	1939.932617	126.041466
19478.229734	16971.805333	1938.957031	-55.232906
19478.229734	16971.805333	1937.981445	192.353561
19478.229734	16971.805333	1937.005859	1.341394
19478.229734	16971.805333	1936.030273	106.771057
19478.229734	16971.805333	1935.054688	52.991539
19478.229734	16971.805333	1934.078125	38.420113
19478.229734	16971.805333	1933.101563	1.829479
19478.229734	16971.805333	1932.125000	-24.947191
19478.229734	16971.805333	1931.148438	19.259146
19478.229734	16971.805333	1930.171875	-34.400108
19478.229734	16971.805333	1929.194336	168.818237
19478.229734	16971.805333	1928.217773	349.961884
19478.229734	16971.805333	1927.240234	95.807137
19478.229734	16971.805333	1926.262695	240.259064
19478.229734	16971.805333	1925.284180	167.132935
19478.229734	16971.805333	1924.306641	50.058125
19478.229734	16971.805333	1923.328125	-86.497704
19478.229734	16971.805333	1922.350586	219.180588
19478.229734	16971.805333	1921.372070	31.386805
19478.229734	16971.805333	1920.392578	92.773804
19478.229734	16971.805333	1919.414063	5.216630
19478.229734	16971.805333	1918.434570	17.802019
19478.229734	16971.805333	1917.456055	189.041550
19478.229734	16971.805333	1916.476563	-113.157730
19478.229734	16971.805333	1915.497070	84.924881
19478.229734	16971.805333	1914.516602	-146.356598
19478.229734	16971.805333	1913.537109	49.259106
19478.229734	16971.805333	1912.556641	35.130180
19478.229734	16971.805333	1911.576172	272.131378
19478.229734	16971.805333	1910.595703	197.069397
19478.229734	16971.805333	1909.615234	331.641479
19478.229734	16971.805333	1908.633789	-11.376585
19478.229734	16971.805333	1907.653320	-186.159546
19478.229734	16971.805333	1906.671875	-170.870667
19478.229734	16971.805333	1905.690430	80.647659
19478.229734	16971.805333	1904.708984	98.356194
19478.229734	16971.805333	1903.727539	-56.753078
19478.229734	16971.805333	1902.745117	-99.824364
19478.229734	16971.805333	1901.762695	156.444260
19478.229734	16971.805333	1900.780273	127.988068
19478.229734	16971.805333	1899.797852	-160.712830
19478.229734	16971.805333	1898.815430	76.026779
19478.229734	16971.805333	1897.832031	-93.367058
19478.229734	16971.805333	1896.849609	-34.159725
19478.229734	16971.805333	1895.866211	-55.164772
19478.229734	16971.805333	1894.882813	-163.629410
19478.229734	16971.805333	1893.898438	221.202454
19478.229734	16971.805333	1892.915039	49.598408
19478.229734	16971.805333	1891.930664	-19.911304
19478.229734	16971.805333	1890.947266	119.458374
19478.229734	16971.805333	1889.962891	-47.123638
19478.229734	16971.805333	1888.977539	-415.103210
19478.229734	16971.805333	1887.993164	-32.992268
19478.229734	16971.805333	1887.007813	-337.717590
19478.229734	16971.805333	1886.023438	10.296640
19478.229734	16971.805333	1885.038086	11.330750
19478.229734	16971.805333	1884.051758	247.624313
19478.229734	16971.805333	1883.066406	-59.305546
19478.229734	16971.805333	1882.081055	254.506149
19478.229734	16971.805333	1881.094727	-52.286129
19478.229734	16971.805333	1880.108398	-12.414475
19478.229734	16971.805333	1879.122070	-47.658939
19478.229734	16971.805333	1878.135742	159.364487
19478.229734	16971.805333	1877.148438	-45.422211
19478.229734	16971.805333	1876.162109	13.818226
19478.229734	16971.805333	1875.174805	-120.643661
19478.229734	16971.805333	1874.187500	190.348618
19478.229734	16971.805333	1873.199219	36.554924
19478.229734	16971.805333	1872.211914	78.816338
19478.229734	16971.805333	1871.223633	-77.315353
19478.229734	16971.805333	1870.236328	114.920830
19478.229734	16971.805333	1869.248047	72.504387
19478.229734	16971.805333	1868.258789	-100.460075
19478.229734	16971.805333	1867.270508	144.856781
19478.229734	16971.805333	1866.282227	373.158112
19478.229734	16971.805333	1865.292969	127.729111
19478.229734	16971.805333	1864.303711	206.146103
19478.229734	16971.805333	1863.314453	137.171875
19478.229734	16971.805333	1862.324219	121.357208
19478.229734	16971.805333	1861.334961	71.728722
19478.229734	16971.805333	1860.344727	-144.470535
19478.229734	16971.805333	1859.354492	8.718582
19478.229734	16971.805333	1858.364258	137.707306
19478.229734	16971.805333	1857.374023	112.209549
19478.229734	16971.805333	1856.383789	139.783020
19478.229734	16971.805333	1855.392578	99.798721
19478.229734	16971.805333	1854.401367	88.756859
19478.229734	16971.805333	1853.410156	164.504181
19478.229734	16971.805333	1852.418945	20.836670
19478.229734	16971.805333	1851.426758	125.463142
19478.229734	16971.805333	1850.435547	352.926117
19478.229734	16971.805333	1849.443359	33.374611
19478.229734	16971.805333	1848.451172	-35.552402
19478.229734	16971.805333	1847.458984	47.253567
19478.229734	16971.805333	1846.466797	67.400993
19478.229734	16971.805333	1845.473633	217.530243
19478.229734	16971.805333	1844.480469	-22.364138
19478.229734	16971.805333	1843.487305	-16.718580
19478.229734	16971.805333	1842.494141	133.268768
19478.229734	16971.805333	1841.500977	-84.897079
19478.229734	16971.805333	1840.506836	93.859650
19478.229734	16971.805333	1839.513672	147.470703
19478.229734	16971.805333	1838.519531	292.402954
19478.229734	16971.805333	1837.525391	418.018341
19478.229734	16971.805333	1836.530273	171.029327
19478.229734	16971.805333	1835.536133	486.395203
19478.229734	16971.805333	1834.541016	301.889313
19478.229734	16971.805333	1833.545898	364.834656
19478.229734	16971.805333	1832.550781	165.945267
19478.229734	16971.805333	1831.555664	420.917603
19478.229734	16971.805333	1830.560547	243.627853
19478.229734	16971.805333	1829.564453	255.997208
19478.229734	16971.805333	1828.568359	-48.451881
19478.229734	16971.805333	1827.572266	340.590363
19478.229734	16971.805333	1826.576172	268.857544
19478.229734	16971.805333	1825.580078	209.106750
19478.229734	16971.805333	1824.583008	63.012917
19478.229734	16971.805333	1823.585938	499.538208
19478.229734	16971.805333	1822.588867	382.127197
19478.229734	16971.805333	1821.591797	362.982269
19478.229734	16971.805333	1820.594727	365.366425
19478.229734	16971.805333	1819.596680	204.798248
19478.229734	16971.805333	1818.599609	281.377106
19478.229734	16971.805333	1817.601563	302.804901
19478.229734	16971.805333	1816.603516	281.079254
19478.229734	16971.805333	1815.604492	335.925690
19478.229734	16971.805333	1814.606445	345.223236
19478.229734	16971.805333	1813.607422	208.499695
19478.229734	16971.805333	1812.608398	251.219711
19478.229734	16971.805333	1811.609375	439.796722
19478.229734	16971.805333	1810.610352	338.859039
19478.229734	16971.805333	1809.610352	276.172974
19478.229734	16971.805333	1808.611328	325.821350
19478.229734	16971.805333	1807.611328	-52.465466
19478.229734	16971.805333	1806.611328	-57.839626
19478.229734	16971.805333	1805.610352	3.640748
19478.229734	16971.805333	1804.610352	275.269928
19478.229734	16971.805333	1803.609375	350.887299
19478.229734	16971.805333	1802.608398	376.272552
19478.229734	16971.805333	1801.607422	270.274872
19478.229734	16971.805333	1800.606445	395.817566
19478.229734	16971.805333	1799.605469	108.355293
19478.229734	16971.805333	1798.603516	267.177307
19478.229734	16971.805333	1797.601563	153.901535
19478.229734	16971.805333	1796.599609	403.183838
19478.229734	16971.805333	1795.597656	423.363678
19478.229734	16971.805333	1794.595703	-116.866020
19478.229734	16971.805333	1793.592773	358.633423
19478.229734	16971.805333	1792.589844	402.472504
19478.229734	16971.805333	1791.587891	422.400635
19478.229734	16971.805333	1790.583984	442.267792
19478.229734	16971.805333	1789.581055	240.520233
19478.229734	16971.805333	1788.577148	272.202850
19478.229734	16971.805333	1787.574219	89.492897
19478.229734	16971.805333	1786.570313	40.120647
19478.229734	16971.805333	1785.566406	140.669754
19478.229734	16971.805333	1784.561523	-158.709824
19478.229734	16971.805333	1783.557617	241.530807
19478.229734	16971.805333	1782.552734	168.129288
19478.229734	16971.805333	1781.547852	268.329712
19478.229734	16971.805333	1780.542969	211.473694
19478.229734	16971.805333	1779.538086	211.641144
19478.229734	16971.805333	1778.532227	292.569611
19478.229734	16971.805333	1777.527344	361.521698
19478.229734	16971.805333	1776.521484	245.029327
19478.229734	16971.805333	1775.515625	316.212067
19478.229734	16971.805333	1774.508789	-68.774757
19478.229734	16971.805333	1773.502930	-52.312534
19478.229734	16971.805333	1772.496094	222.903671
19478.229734	16971.805333	1771.489258	329.392151
19478.229734	16971.805333	1770.482422	288.609894
19478.229734	16971.805333	1769.475586	-91.581833
19478.229734	16971.805333	1768.467773	-175.106064
19478.229734	16971.805333	1767.460938	180.207382
19478.229734	16971.805333	1766.453125	326.600281
19478.229734	16971.805333	1765.445313	382.761353
19478.229734	16971.805333	1764.437500	83.198364
19478.229734	16971.805333	1763.428711	395.265411
19478.229734	16971.805333	1762.420898	434.596283
19478.229734	16971.805333	1761.412109	395.652863
19478.229734	16971.805333	1760.403320	318.753143
19478.229734	16971.805333	1759.393555	270.243164
19478.229734	16971.805333	1758.384766	207.476013
19478.229734	16971.805333	1757.375000	61.797920
19478.229734	16971.805333	1756.366211	103.126709
19478.229734	16971.805333	1755.356445	435.499817
19478.229734	16971.805333	1754.345703	152.415283
19478.229734	16971.805333	1753.335938	13.699503
19478.229734	16971.805333	1752.325195	92.596649
19478.229734	16971.805333	1751.315430	273.099396
19478.229734	16971.805333	1750.304688	-0.536561
19478.229734	16971.805333	1749.292969	-2.252612
19478.229734	16971.805333	1748.282227	199.247086
19478.229734	16971.805333	1747.270508	46.118259
19478.229734	16971.805333	1746.259766	-62.122295
19478.229734	16971.805333	1745.248047	120.184845
19478.229734	16971.805333	1744.235352	85.065186
19478.229734	16971.805333	1743.223633	-68.175011
19478.229734	16971.805333	1742.211914	47.735462
19478.229734	16971.805333	1741.199219	-48.910934
19478.229734	16971.805333	1740.186523	-8.695157
19478.229734	16971.805333	1739.173828	184.820648
19478.229734	16971.805333	1738.160156	-39.375870
19478.229734	16971.805333	1737.147461	83.188324
19478.229734	16971.805333	1736.133789	337.710785
19478.229734	16971.805333	1735.120117	233.683151
19478.229734	16971.805333	1734.106445	96.631248
19478.229734	16971.805333	1733.091797	13.782727
19478.229734	16971.805333	1732.078125	-24.318447
19478.229734	16971.805333	1731.063477	-31.834589
19478.229734	16971.805333	1730.048828	-138.342072
19478.229734	16971.805333	1729.034180	-14.061144
19478.229734	16971.805333	1728.019531	86.567299
19478.229734	16971.805333	1727.003906	109.411285
19478.229734	16971.805333	1725.988281	-286.785004
19478.229734	16971.805333	1724.972656	-111.022972
19478.229734	16971.805333	1723.957031	-238.907578
19478.229734	16971.805333	1722.941406	77.815620
19478.229734	16971.805333	1721.924805	-10.180842
19478.229734	16971.805333	1720.909180	-69.976730
19478.229734	16971.805333	1719.892578	166.434525
19478.229734	16971.805333	1718.875977	57.156944
19478.229734	16971.805333	1717.858398	-103.836334
19478.229734	16971.805333	1716.841797	-76.837540
19478.229734	16971.805333	1715.824219	208.520889
19478.229734	16971.805333	1714.806641	141.392029
19478.229734	16971.805333	1713.789063	250.370255
19478.229734	16971.805333	1712.770508	-171.380066
19478.229734	16971.805333	1711.752930	223.913803
19478.229734	16971.805333	1710.734375	388.995972
19478.229734	16971.805333	1709.715820	150.351807
19478.229734	16971.805333	1708.697266	406.792542
19478.229734	16971.805333	1707.678711	-108.647957
19478.229734	16971.805333	1706.659180	-4.791827
19478.229734	16971.805333	1705.640625	-72.186096
19478.229734	16971.805333	1704.621094	134.686340
19478.229734	16971.805333	1703.600586	-117.970787
19478.229734	16971.805333	1702.581055	-91.698387
19478.229734	16971.805333	1701.561523	61.042683
19478.229734	16971.805333	1700.541016	26.279703
19478.229734	16971.805333	1699.520508	139.039536
19478.229734	16971.805333	1698.500000	50.336628
19478.229734	16971.805333	1697.478516	-19.643641
19478.229734	16971.805333	1696.458008	-101.338165
19478.229734	16971.805333	1695.436523	-180.699188
19478.229734	16971.805333	1694.415039	109.630447
19478.229734	16971.805333	1693.393555	-21.282064
19478.229734	16971.805333	1692.372070	27.923454
19478.229734	16971.805333	1691.349609	18.608032
19478.229734	16971.805333	1690.327148	207.998123
19478.229734	16971.805333	1689.304688	-301.659363
19478.229734	16971.805333	1688.282227	107.347343
19478.229734	16971.805333	1687.259766	-96.051254
19478.229734	16971.805333	1686.236328	-65.779388
19478.229734	16971.805333	1685.213867	-126.640411
19478.229734	16971.805333	1684.190430	39.020264
19478.229734	16971.805333	1683.166016	113.523735
19478.229734	16971.805333	1682.142578	143.619537
19478.229734	16971.805333	1681.119141	215.690063
19478.229734	16971.805333	1680.094727	31.014088
19478.229734	16971.805333	1679.070313	331.671936
19478.229734	16971.805333	1678.045898	88.680122
19478.229734	16971.805333	1677.020508	57.985344
19478.229734	16971.805333	1675.996094	491.306152
19478.229734	16971.805333	1674.970703	31.542944
19478.229734	16971.805333	1673.945313	98.711670
19478.229734	16971.805333	1672.919922	49.315186
19478.229734	16971.805333	1671.893555	79.136086
19478.229734	16971.805333	1670.868164	-12.204543
19478.229734	16971.805333	1669.841797	504.355621
19478.229734	16971.805333	1668.815430	652.779968
19478.229734	16971.805333	1667.789063	426.295898
19478.229734	16971.805333	1666.761719	132.381317
19478.229734	16971.805333	1665.735352	176.022705
19478.229734	16971.805333	1664.708008	266.168976
19478.229734	16971.805333	1663.680664	381.857758
19478.229734	16971.805333	1662.653320	383.523621
19478.229734	16971.805333	1661.625000	327.036926
19478.229734	16971.805333	1660.597656	584.446777
19478.229734	16971.805333	1659.569336	507.008667
19478.229734	16971.805333	1658.541016	531.854004
19478.229734	16971.805333	1657.512695	382.409576
19478.229734	16971.805333	1656.483398	518.770386
19478.229734	16971.805333	1655.455078	594.686646
19478.229734	16971.805333	1654.425781	473.169708
19478.229734	16971.805333	1653.396484	330.800354
19478.229734	16971.805333	1652.366211	406.696991
19478.229734	16971.805333	1651.336914	833.033691
19478.229734	16971.805333	1650.306641	648.905884
19478.229734	16971.805333	1649.276367	413.808258
19478.229734	16971.805333	1648.246094	447.882416
19478.229734	16971.805333	1647.215820	832.142944
19478.229734	16971.805333	1646.185547	717.731384
19478.229734	16971.805333	1645.154297	867.651062
19478.229734	16971.805333	1644.123047	642.031433
19478.229734	16971.805333	1643.091797	676.053101
19478.229734	16971.805333	1642.060547	967.248291
19478.229734	16971.805333	1641.028320	883.067566
19478.229734	16971.805333	1639.997070	863.782532
19478.229734	16971.805333	1638.964844	930.187988
19478.229734	16971.805333	1637.931641	1061.401978
19478.229734	16971.805333	1636.899414	1181.008667
19478.229734	16971.805333	1635.867188	944.188965
19478.229734	16971.805333	1634.833984	867.124084
19478.229734	16971.805333	1633.800781	1033.007813
19478.229734	16971.805333	1632.767578	1159.522827
19478.229734	16971.805333	1631.734375	1170.386719
19478.229734	16971.805333	1630.700195	1111.899780
19478.229734	16971.805333	1629.666016	1136.671997
19478.229734	16971.805333	1628.631836	791.678650
19478.229734	16971.805333	1627.597656	939.010620
19478.229734	16971.805333	1626.563477	963.868042
19478.229734	16971.805333	1625.528320	979.496704
19478.229734	16971.805333	1624.493164	1166.031494
19478.229734	16971.805333	1623.458008	990.028198
19478.229734	16971.805333	1622.422852	795.653564
19478.229734	16971.805333	1621.387695	668.312927
19478.229734	16971.805333	1620.351563	988.703247
19478.229734	16971.805333	1619.315430	1027.535522
19478.229734	16971.805333	1618.279297	741.152649
19478.229734	16971.805333	1617.243164	754.711609
19478.229734	16971.805333	1616.207031	888.195679
19478.229734	16971.805333	1615.169922	867.202576
19478.229734	16971.805333	1614.132813	793.241882
19478.229734	16971.805333	1613.095703	733.171997
19478.229734	16971.805333	1612.058594	979.581543
19478.229734	16971.805333	1611.020508	935.689514
19478.229734	16971.805333	1609.983398	765.189636
19478.229734	16971.805333	1608.945313	772.091125
19478.229734	16971.805333	1607.907227	675.430664
19478.229734	16971.805333	1606.868164	974.735901
19478.229734	16971.805333	1605.830078	500.753052
19478.229734	16971.805333	1604.791016	659.710266
19478.229734	16971.805333	1603.751953	848.550476
19478.229734	16971.805333	1602.712891	1000.563477
19478.229734	16971.805333	1601.673828	1012.296997
19478.229734	16971.805333	1600.633789	745.890198
19478.229734	16971.805333	1599.594727	700.293884
19478.229734	16971.805333	1598.554688	955.810852
19478.229734	16971.805333	1597.513672	1059.629517
19478.229734	16971.805333	1596.473633	1014.140015
19478.229734	16971.805333	1595.433594	858.473572
19478.229734	16971.805333	1594.392578	1192.027344
19478.229734	16971.805333	1593.351563	1275.253662
19478.229734	16971.805333	1592.310547	968.283875
19478.229734	16971.805333	1591.268555	1216.859253
19478.229734	16971.805333	1590.227539	1210.705078
19478.229734	16971.805333	1589.185547	1096.783081
19478.229734	16971.805333	1588.143555	1253.607788
19478.229734	16971.805333	1587.100586	1192.574585
19478.229734	16971.805333	1586.058594	1184.355713
19478.229734	16971.805333	1585.015625	967.598877
19478.229734	16971.805333	1583.972656	1422.486328
19478.229734	16971.805333	1582.929688	979.041992
19478.229734	16971.805333	1581.886719	1250.592896
19478.229734	16971.805333	1580.843750	1359.475708
19478.229734	16971.805333	1579.799805	1466.086182
19478.229734	16971.805333	1578.755859	1256.756714
19478.229734	16971.805333	1577.711914	1516.839233
19478.229734	16971.805333	1576.666992	1328.304199
19478.229734	16971.805333	1575.623047	1210.842041
19478.229734	16971.805333	1574.578125	1063.748169
19478.229734	16971.805333	1573.533203	1033.432373
19478.229734	16971.805333	1572.488281	1138.118042
19478.229734	16971.805333	1571.443359	1016.473938
19478.229734	16971.805333	1570.397461	899.515320
19478.229734	16971.805333	1569.351563	800.954773
19478.229734	16971.805333	1568.305664	937.867065
19478.229734	16971.805333	1567.259766	951.422729
19478.229734	16971.805333	1566.213867	748.046204
19478.229734	16971.805333	1565.166992	743.503235
19478.229734	16971.805333	1564.120117	892.015747
19478.229734	16971.805333	1563.073242	714.093994
19478.229734	16971.805333	1562.026367	584.246338
19478.229734	16971.805333	1560.978516	1009.033813
19478.229734	16971.805333	1559.930664	863.355652
19478.229734	16971.805333	1558.883789	710.964294
19478.229734	16971.805333	1557.834961	832.379883
19478.229734	16971.805333	1556.787109	798.774719
19478.229734	16971.805333	1555.739258	694.586853
19478.229734	16971.805333	1554.690430	563.164795
19478.229734	16971.805333	1553.641602	791.922852
19478.229734	16971.805333	1552.592773	567.277649
19478.229734	16971.805333	1551.542969	536.419495
19478.229734	16971.805333	1550.494141	471.490540
19478.229734	16971.805333	1549.444336	433.992371
19478.229734	16971.805333	1548.394531	401.141693
19478.229734	16971.805333	1547.344727	363.831512
19478.229734	16971.805333	1546.293945	442.676483
19478.229734	16971.805333	1545.244141	419.185028
19478.229734	16971.805333	1544.193359	368.490326
19478.229734	16971.805333	1543.142578	256.490295
19478.229734	16971.805333	1542.090820	394.743195
19478.229734	16971.805333	1541.040039	189.737305
19478.229734	16971.805333	1539.988281	214.469650
19478.229734	16971.805333	1538.936523	2.931561
19478.229734	16971.805333	1537.884766	80.115585
19478.229734	16971.805333	1536.833008	286.836548
19478.229734	16971.805333	1535.780273	-126.469955
19478.229734	16971.805333	1534.727539	318.812073
19478.229734	16971.805333	1533.674805	339.460327
19478.229734	16971.805333	1532.622070	264.852020
19478.229734	16971.805333	1531.569336	199.438660
19478.229734	16971.805333	1530.515625	93.298828
19478.229734	16971.805333	1529.461914	130.204285
19478.229734	16971.805333	1528.408203	-36.940399
19478.229734	16971.805333	1527.354492	127.138489
19478.229734	16971.805333	1526.299805	134.808884
19478.229734	16971.805333	1525.246094	308.033020
19478.229734	16971.805333	1524.191406	200.265320
19478.229734	16971.805333	1523.136719	88.095383
19478.229734	16971.805333	1522.081055	-66.977730
19478.229734	16971.805333	1521.026367	65.741928
19478.229734	16971.805333	1519.970703	98.865639
19478.229734	16971.805333	1518.915039	141.123245
19478.229734	16971.805333	1517.859375	221.936798
19478.229734	16971.805333	1516.802734	388.809662
19478.229734	16971.805333	1515.747070	275.132202
19478.229734	16971.805333	1514.690430	175.170792
19478.229734	16971.805333	1513.633789	97.955589
19478.229734	16971.805333	1512.577148	-10.794526
19478.229734	16971.805333	1511.519531	-44.796516
19478.229734	16971.805333	1510.461914	32.069332
19478.229734	16971.805333	1509.405273	296.572784
19478.229734	16971.805333	1508.346680	91.086609
19478.229734	16971.805333	1507.289063	215.597595
19478.229734	16971.805333	1506.231445	-50.591572
19478.229734	16971.805333	1505.172852	15.374869
19478.229734	16971.805333	1504.114258	38.512547
19478.229734	16971.805333	1503.055664	104.624245
19478.229734	16971.805333	1501.996094	62.478058
19478.229734	16971.805333	1500.937500	-85.614357
19478.229734	16971.805333	1499.877930	57.469170
19478.229734	16971.805333	1498.818359	137.437134
19478.229734	16971.805333	1497.757813	-66.668602
19478.229734	16971.805333	1496.698242	-65.431648
19478.229734	16971.805333	1495.637695	-271.481140
19478.229734	16971.805333	1494.577148	106.359772
19478.229734	16971.805333	1493.516602	-13.828827
19478.229734	16971.805333	1492.456055	-269.045044
19478.229734	16971.805333	1491.394531	180.933105
19478.229734	16971.805333	1490.333008	-37.995216
19478.229734	16971.805333	1489.271484	11.183593
19478.229734	16971.805333	1488.209961	-178.173126
19478.229734	16971.805333	1487.148438	51.248974
19478.229734	16971.805333	1486.085938	-266.105072
19478.229734	16971.805333	1485.023438	-169.293579
19478.229734	16971.805333	1483.960938	-22.943666
19478.229734	16971.805333	1482.898438	33.489487
19478.229734	16971.805333	1481.834961	-179.796844
19478.229734	16971.805333	1480.772461	-98.437790
19478.229734	16971.805333	1479.708984	-48.487789
19478.229734	16971.805333	1478.644531	-128.786606
19478.229734	16971.805333	1477.581055	-240.350769
19478.229734	16971.805333	1476.517578	151.204636
19478.229734	16971.805333	1475.453125	255.346863
19478.229734	16971.805333	1474.388672	-69.247017
19478.229734	16971.805333	1473.323242	-56.867405
19478.229734	16971.805333	1472.258789	179.767090
19478.229734	16971.805333	1471.193359	28.534964
19478.229734	16971.805333	1470.127930	-6.049232
19478.229734	16971.805333	1469.062500	118.639267
19478.229734	16971.805333	1467.997070	171.393173
19478.229734	16971.805333	1466.930664	191.053406
19478.229734	16971.805333	1465.865234	235.185471
19478.229734	16971.805333	1464.798828	138.377808
19478.229734	16971.805333	1463.731445	270.130341
19478.229734	16971.805333	1462.665039	158.304977
19478.229734	16971.805333	1461.597656	77.064781
19478.229734	16971.805333	1460.530273	191.362961
19478.229734	16971.805333	1459.462891	135.556610
19478.229734	16971.805333	1458.395508	-2.891697
19478.229734	16971.805333	1457.327148	122.377205
19478.229734	16971.805333	1456.259766	124.530777
19478.229734	16971.805333	1455.191406	314.633453
19478.229734	16971.805333	1454.123047	158.520691
19478.229734	16971.805333	1453.053711	-10.389448
19478.229734	16971.805333	1451.985352	129.337387
19478.229734	16971.805333	1450.916016	29.426409
19478.229734	16971.805333	1449.846680	32.484200
19478.229734	16971.805333	1448.776367	-108.420517
19478.229734	16971.805333	1447.707031	44.936993
19478.229734	16971.805333	1446.636719	283.024719
19478.229734	16971.805333	1445.566406	232.325821
19478.229734	16971.805333	1444.496094	72.699295
19478.229734	16971.805333	1443.425781	179.521652
19478.229734	16971.805333	1442.354492	-56.415325
19478.229734	16971.805333	1441.283203	239.105621
19478.229734	16971.805333	1440.211914	21.533258
19478.229734	16971.805333	1439.140625	-22.584051
19478.229734	16971.805333	1438.069336	-124.656921
19478.229734	16971.805333	1436.997070	-88.690102
19478.229734	16971.805333	1435.924805	166.322311
19478.229734	16971.805333	1434.852539	-30.915106
19478.229734	16971.805333	1433.780273	-172.346191
19478.229734	16971.805333	1432.707031	-259.908997
19478.229734	16971.805333	1431.633789	8.886381
19478.229734	16971.805333	1430.560547	-34.878502
19478.229734	16971.805333	1429.487305	-207.305740
19478.229734	16971.805333	1428.413086	-49.688606
19478.229734	16971.805333	1427.339844	-88.731110
19478.229734	16971.805333	1426.265625	-67.368843
19478.229734	16971.805333	1425.191406	8.821269
19478.229734	16971.805333	1424.116211	60.186825
19478.229734	16971.805333	1423.041992	-70.945503
19478.229734	16971.805333	1421.966797	88.170853
19478.229734	16971.805333	1420.891602	-46.572575
19478.229734	16971.805333	1419.816406	18.809967
19478.229734	16971.805333	1418.740234	-59.970337
19478.229734	16971.805333	1417.665039	-9.015247
19478.229734	16971.805333	1416.588867	-66.718178
19478.229734	16971.805333	1415.512695	120.870621
19478.229734	16971.805333	1414.435547	172.306335
19478.229734	16971.805333	1413.359375	74.277664
19478.229734	16971.805333	1412.282227	129.731537
19478.229734	16971.805333	1411.205078	113.160416
19478.229734	16971.805333	1410.127930	98.989441
19478.229734	16971.805333	1409.049805	255.736984
19478.229734	16971.805333	1407.972656	186.360611
19478.229734	16971.805333	1406.894531	421.653564
19478.229734	16971.805333	1405.816406	149.328674
19478.229734	16971.805333	1404.737305	116.724785
19478.229734	16971.805333	1403.659180	174.265823
19478.229734	16971.805333	1402.580078	290.499359
19478.229734	16971.805333	1401.500977	22.171156
19478.229734	16971.805333	1400.421875	108.608696
19478.229734	16971.805333	1399.341797	162.238998
19478.229734	16971.805333	1398.262695	5.206077
19478.229734	16971.805333	1397.182617	36.694778
19478.229734	16971.805333	1396.102539	167.712280
19478.229734	16971.805333	1395.021484	64.859657
19478.229734	16971.805333	1393.941406	295.612488
19478.229734	16971.805333	1392.860352	297.021271
19478.229734	16971.805333	1391.779297	48.792179
19478.229734	16971.805333	1390.698242	241.879593
19478.229734	16971.805333	1389.616211	-47.785095
19478.229734	16971.805333	1388.535156	140.288788
19478.229734	16971.805333	1387.453125	91.056526
19478.229734	16971.805333	1386.371094	225.212311
19478.229734	16971.805333	1385.288086	-229.804504
19478.229734	16971.805333	1384.206055	40.664356
19478.229734	16971.805333	1383.123047	87.674141
19478.229734	16971.805333	1382.040039	122.293839
19478.229734	16971.805333	1380.957031	414.003204
19478.229734	16971.805333	1379.873047	178.687103
19478.229734	16971.805333	1378.789063	-46.833633
19478.229734	16971.805333	1377.705078	241.094543
19478.229734	16971.805333	1376.621094	246.295120
19478.229734	16971.805333	1375.537109	296.669739
19478.229734	16971.805333	1374.452148	240.054626
19478.229734	16971.805333	1373.367188	243.944214
19478.229734	16971.805333	1372.282227	248.302597
19478.229734	16971.805333	1371.197266	168.648560
19478.229734	16971.805333	1370.112305	220.690353
19478.229734	16971.805333	1369.026367	285.504669
19478.229734	16971.805333	1367.940430	222.933365
19478.229734	16971.805333	1366.854492	409.631927
19478.229734	16971.805333	1365.767578	421.040436
19478.229734	16971.805333	1364.681641	233.471832
19478.229734	16971.805333	1363.594727	239.742630
19478.229734	16971.805333	1362.507813	465.637817
19478.229734	16971.805333	1361.419922	315.207001
19478.229734	16971.805333	1360.333008	134.254990
19478.229734	16971.805333	1359.245117	355.815369
19478.229734	16971.805333	1358.157227	363.594879
19478.229734	16971.805333	1357.069336	233.004868
19478.229734	16971.805333	1355.981445	407.452789
19478.229734	16971.805333	1354.892578	313.545044
19478.229734	16971.805333	1353.803711	89.482407
19478.229734	16971.805333	1352.714844	353.486755
19478.229734	16971.805333	1351.625000	269.449738
19478.229734	16971.805333	1350.536133	303.867065
19478.229734	16971.805333	1349.446289	193.548264
19478.229734	16971.805333	1348.356445	196.598175
19478.229734	16971.805333	1347.266602	53.603962
19478.229734	16971.805333	1346.175781	293.203491
19478.229734	16971.805333	1345.085938	328.730133
19478.229734	16971.805333	1343.995117	338.901794
19478.229734	16971.805333	1342.903320	149.749054
19478.229734	16971.805333	1341.812500	282.632477
19478.229734	16971.805333	1340.720703	272.516205
19478.229734	16971.805333	1339.629883	103.768547
19478.229734	16971.805333	1338.538086	44.806870
19478.229734	16971.805333	1337.445313	218.868774
19478.229734	16971.805333	1336.353516	238.177887
19478.229734	16971.805333	1335.260742	497.139984
19478.229734	16971.805333	1334.167969	182.174133
19478.229734	16971.805333	1333.075195	502.234650
19478.229734	16971.805333	1331.981445	381.733154
19478.229734	16971.805333	1330.888672	391.795410
19478.229734	16971.805333	1329.794922	205.376236
19478.229734	16971.805333	1328.701172	322.355530
19478.229734	16971.805333	1327.606445	121.096100
19478.229734	16971.805333	1326.512695	440.249054
19478.229734	16971.805333	1325.417969	642.667725
19478.229734	16971.805333	1324.323242	531.720276
19478.229734	16971.805333	1323.227539	598.853516
19478.229734	16971.805333	1322.132813	496.909882
19478.229734	16971.805333	1321.037109	309.836578
19478.229734	16971.805333	1319.941406	425.425507
19478.229734	16971.805333	1318.845703	445.615448
19478.229734	16971.805333	1317.750000	317.429077
19478.229734	16971.805333	1316.653320	298.159058
19478.229734	16971.805333	1315.556641	227.780884
19478.229734	16971.805333	1314.459961	305.897339
19478.229734	16971.805333	1313.363281	117.412071
19478.229734	16971.805333	1312.265625	308.082550
19478.229734	16971.805333	1311.167969	292.405731
19478.229734	16971.805333	1310.070313	412.791107
19478.229734	16971.805333	1308.972656	331.237976
19478.229734	16971.805333	1307.874023	390.480438
19478.229734	16971.805333	1306.776367	440.095123
19478.229734	16971.805333	1305.677734	53.193493
19478.229734	16971.805333	1304.579102	193.348679
19478.229734	16971.805333	1303.479492	314.552582
19478.229734	16971.805333	1302.380859	417.700256
19478.229734	16971.805333	1301.281250	121.200020
19478.229734	16971.805333	1300.181641	62.894543
19478.229734	16971.805333	1299.081055	324.750366
19478.229734	16971.805333	1297.981445	96.135201
19478.229734	16971.805333	1296.880859	-49.968422
19478.229734	16971.805333	1295.780273	-206.528320
19478.229734	16971.805333	1294.679688	64.839615
19478.229734	16971.805333	1293.578125	-69.007454
19478.229734	16971.805333	1292.476563	-35.711178
19478.229734	16971.805333	1291.375000	86.317665
19478.229734	16971.805333	1290.273438	69.385078
19478.229734	16971.805333	1289.171875	20.355690
19478.229734	16971.805333	1288.069336	40.195999
19478.229734	16971.805333	1286.966797	131.740982
19478.229734	16971.805333	1285.864258	-66.691605
19478.229734	16971.805333	1284.761719	-12.198073
19478.229734	16971.805333	1283.658203	104.182205
19478.229734	16971.805333	1282.554688	59.858482
19478.229734	16971.805333	1281.451172	-107.974525
19478.229734	16971.805333	1280.347656	54.133781
19478.229734	16971.805333	1279.244141	17.901560
19478.229734	16971.805333	1278.139648	-39.220360
19478.229734	16971.805333	1277.035156	28.847271
19478.229734	16971.805333	1275.930664	239.492569
19478.229734	16971.805333	1274.825195	191.047165
19478.229734	16971.805333	1273.720703	70.662498
19478.229734	16971.805333	1272.615234	-43.747589
19478.229734	16971.805333	1271.508789	142.232330
19478.229734	16971.805333	1270.403320	123.320175
19478.229734	16971.805333	1269.297852	-35.521542
19478.229734	16971.805333	1268.191406	64.888374
19478.229734	16971.805333	1267.084961	36.740692
19478.229734	16971.805333	1265.977539	-229.056870
19478.229734	16971.805333	1264.871094	3.370082
19478.229734	16971.805333	1263.763672	-50.564838
19478.229734	16971.805333	1262.656250	-259.764526
19478.229734	16971.805333	1261.548828	-81.336876
19478.229734	16971.805333	1260.440430	-104.089104
19478.229734	16971.805333	1259.333008	-1.343847
19478.229734	16971.805333	1258.224609	-42.609539
19478.229734	16971.805333	1257.115234	-75.917969
19478.229734	16971.805333	1256.006836	-95.931496
19478.229734	16971.805333	1254.897461	33.437054
19478.229734	16971.805333	1253.788086	2.894367
19478.229734	16971.805333	1252.678711	126.231018
19478.229734	16971.805333	1251.569336	-123.772202
19478.229734	16971.805333	1250.458984	77.223869
19478.229734	16971.805333	1249.349609	-96.198677
19478.229734	16971.805333	1248.239258	30.398642
19478.229734	16971.805333	1247.127930	244.079773
19478.229734	16971.805333	1246.017578	143.868408
19478.229734	16971.805333	1244.906250	-58.506107
19478.229734	16971.805333	1243.794922	27.924917
19478.229734	16971.805333	1242.683594	47.725544
19478.229734	16971.805333	1241.571289	174.904678
19478.229734	16971.805333	1240.459961	5.201124
19478.229734	16971.805333	1239.347656	-54.884499
19478.229734	16971.805333	1238.234375	45.481335
19478.229734	16971.805333	1237.122070	-54.315887
19478.229734	16971.805333	1236.008789	108.462570
19478.229734	16971.805333	1234.896484	107.590996
19478.229734	16971.805333	1233.782227	-6.204374
19478.229734	16971.805333	1232.668945	-17.732487
19478.229734	16971.805333	1231.555664	-48.271664
19478.229734	16971.805333	1230.441406	-31.276117
19478.229734	16971.805333	1229.327148	-108.723984
19478.229734	16971.805333	1228.211914	146.649231
19478.229734	16971.805333	1227.097656	-111.744995
19478.229734	16971.805333	1225.982422	-132.949661
19478.229734	16971.805333	1224.867188	-292.296295
19478.229734	16971.805333	1223.751953	-7.708959
19478.229734	16971.805333	1222.635742	-29.474112
19478.229734	16971.805333	1221.520508	-71.683815
19478.229734	16971.805333	1220.404297	-114.820824
19478.229734	16971.805333	1219.287109	21.048103
19478.229734	16971.805333	1218.170898	-57.051704
19478.229734	16971.805333	1217.053711	-157.019180
19478.229734	16971.805333	1215.936523	-122.832016
19478.229734	16971.805333	1214.819336	-96.615417
19478.229734	16971.805333	1213.702148	-168.827621
19478.229734	16971.805333	1212.583984	-61.846134
19478.229734	16971.805333	1211.465820	-35.952152
19478.229734	16971.805333	1210.347656	8.386338
19478.229734	16971.805333	1209.229492	84.569527
19478.229734	16971.805333	1208.110352	-98.463776
19478.229734	16971.805333	1206.992188	-11.137693
19478.229734	16971.805333	1205.873047	-17.206274
19478.229734	16971.805333	1204.752930	107.960083
19478.229734	16971.805333	1203.633789	81.379883
19478.229734	16971.805333	1202.513672	83.670937
19478.229734	16971.805333	1201.393555	-48.032551
19478.229734	16971.805333	1200.273438	-92.315681
19478.229734	16971.805333	1199.152344	57.459320
19478.229734	16971.805333	1198.032227	64.288902
19478.229734	16971.805333	1196.911133	-60.016098
19478.229734	16971.805333	1195.790039	-12.187472
19478.229734	16971.805333	1194.667969	90.758148
19478.229734	16971.805333	1193.545898	-181.178513
19478.229734	16971.805333	1192.424805	67.276817
19478.229734	16971.805333	1191.301758	134.543045
19478.229734	16971.805333	1190.179688	20.660089
19478.229734	16971.805333	1189.056641	60.720543
19478.229734	16971.805333	1187.933594	76.222412
19478.229734	16971.805333	1186.810547	-29.114653
19478.229734	16971.805333	1185.687500	-79.929382
19478.229734	16971.805333	1184.563477	-48.314850
19478.229734	16971.805333	1183.440430	-133.886856
19478.229734	16971.805333	1182.316406	-63.721191
19478.229734	16971.805333	1181.191406	-132.997681
19478.229734	16971.805333	1180.067383	91.768723
19478.229734	16971.805333	1178.942383	63.968811
19478.229734	16971.805333	1177.817383	-4.211517
19478.229734	16971.805333	1176.692383	-53.730282
19478.229734	16971.805333	1175.566406	54.499851
19478.229734	16971.805333	1174.440430	-167.184708
19478.229734	16971.805333	1173.314453	48.586178
19478.229734	16971.805333	1172.188477	-31.360348
19478.229734	16971.805333	1171.062500	157.956207
19478.229734	16971.805333	1169.935547	53.763653
19478.229734	16971.805333	1168.808594	28.925951
19478.229734	16971.805333	1167.681641	-102.395721
19478.229734	16971.805333	1166.553711	-68.793976
19478.229734	16971.805333	1165.426758	4.251465
19478.229734	16971.805333	1164.298828	11.136366
19478.229734	16971.805333	1163.170898	12.330392
19478.229734	16971.805333	1162.041992	78.220299
19478.229734	16971.805333	1160.914063	127.945824
19478.229734	16971.805333	1159.785156	-16.940315
19478.229734	16971.805333	1158.656250	-104.312035
19478.229734	16971.805333	1157.526367	-14.499495
19478.229734	16971.805333	1156.397461	107.360016
19478.229734	16971.805333	1155.267578	-12.481851
19478.229734	16971.805333	1154.137695	46.326759
19478.229734	16971.805333	1153.006836	-99.958511
19478.229734	16971.805333	1151.876953	-110.025421
19478.229734	16971.805333	1150.746094	-39.975113
19478.229734	16971.805333	1149.615234	11.036610
19478.229734	16971.805333	1148.484375	13.286243
19478.229734	16971.805333	1147.352539	-65.007835
19478.229734	16971.805333	1146.220703	-50.285477
19478.229734	16971.805333	1145.088867	-128.109039
19478.229734	16971.805333	1143.957031	-121.274277
19478.229734	16971.805333	1142.825195	-2.182389
19478.229734	16971.805333	1141.692383	-88.803642
19478.229734	16971.805333	1140.559570	-72.751503
19478.229734	16971.805333	1139.426758	-131.978943
19478.229734	16971.805333	1138.292969	-51.408436
19478.229734	16971.805333	1137.159180	44.718712
19478.229734	16971.805333	1136.025391	24.909533
19478.229734	16971.805333	1134.891602	-106.048683
19478.229734	16971.805333	1133.757813	-43.565895
19478.229734	16971.805333	1132.623047	20.572937
19478.229734	16971.805333	1131.488281	158.458755
19478.229734	16971.805333	1130.353516	78.712875
19478.229734	16971.805333	1129.217773	95.040474
19478.229734	16971.805333	1128.083008	133.598175
19478.229734	16971.805333	1126.947266	120.411354
19478.229734	16971.805333	1125.811523	188.183456
19478.229734	16971.805333	1124.674805	208.976990
19478.229734	16971.805333	1123.539063	-144.766983
19478.229734	16971.805333	1122.402344	60.274529
19478.229734	16971.805333	1121.265625	159.732849
19478.229734	16971.805333	1120.127930	151.982864
19478.229734	16971.805333	1118.990234	38.983112
19478.229734	16971.805333	1117.853516	-64.086044
19478.229734	16971.805333	1116.714844	-8.832078
19478.229734	16971.805333	1115.577148	-42.527874
19478.229734	16971.805333	1114.439453	-38.110123
19478.229734	16971.805333	1113.300781	19.982403
19478.229734	16971.805333	1112.162109	93.490692
19478.229734	16971.805333	1111.022461	105.807945
19478.229734	16971.805333	1109.883789	237.736420
19478.229734	16971.805333	1108.744141	126.309296
19478.229734	16971.805333	1107.604492	29.583138
19478.229734	16971.805333	1106.463867	87.354355
19478.229734	16971.805333	1105.324219	65.496735
19478.229734	16971.805333	1104.183594	191.734650
19478.229734	16971.805333	1103.042969	153.493927
19478.229734	16971.805333	1101.902344	-6.620648
19478.229734	16971.805333	1100.760742	152.191101
19478.229734	16971.805333	1099.619141	100.722275
19478.229734	16971.805333	1098.477539	46.049358
19478.229734	16971.805333	1097.335938	135.107208
19478.229734	16971.805333	1096.193359	124.684189
19478.229734	16971.805333	1095.051758	248.960297
19478.229734	16971.805333	1093.909180	222.648666
19478.229734	16971.805333	1092.765625	287.027832
19478.229734	16971.805333	1091.623047	-31.934931
19478.229734	16971.805333	1090.479492	236.854218
19478.229734	16971.805333	1089.335938	391.403473
19478.229734	16971.805333	1088.192383	148.684860
19478.229734	16971.805333	1087.047852	127.363464
19478.229734	16971.805333	1085.903320	39.369488
19478.229734	16971.805333	1084.758789	121.972771
19478.229734	16971.805333	1083.614258	50.758579
19478.229734	16971.805333	1082.469727	115.378601
19478.229734	16971.805333	1081.324219	83.419716
19478.229734	16971.805333	1080.178711	124.083710
19478.229734	16971.805333	1079.033203	123.143372
19478.229734	16971.805333	1077.886719	179.339798
19478.229734	16971.805333	1076.740234	8.367039
19478.229734	16971.805333	1075.593750	188.582855
19478.229734	16971.805333	1074.447266	173.382080
19478.229734	16971.805333	1073.300781	179.535553
19478.229734	16971.805333	1072.153320	104.715904
19478.229734	16971.805333	1071.005859	239.204224
19478.229734	16971.805333	1069.858398	119.096535
19478.229734	16971.805333	1068.709961	271.794891
19478.229734	16971.805333	1067.561523	97.367561
19478.229734	16971.805333	1066.413086	194.585373
19478.229734	16971.805333	1065.264648	117.617599
19478.229734	16971.805333	1064.116211	213.506546
19478.229734	16971.805333	1062.966797	165.041870
19478.229734	16971.805333	1061.817383	159.442322
19478.229734	16971.805333	1060.667969	194.589081
19478.229734	16971.805333	1059.517578	103.430916
19478.229734	16971.805333	1058.368164	213.672791
19478.229734	16971.805333	1057.217773	57.291004
19478.229734	16971.805333	1056.067383	131.149918
19478.229734	16971.805333	1054.916016	33.979465
19478.229734	16971.805333	1053.764648	236.523941
19478.229734	16971.805333	1052.613281	-41.347206
19478.229734	16971.805333	1051.461914	125.731567
19478.229734	16971.805333	1050.310547	117.514473
19478.229734	16971.805333	1049.158203	-58.352627
19478.229734	16971.805333	1048.005859	-99.017937
19478.229734	16971.805333	1046.853516	-326.619843
19478.229734	16971.805333	1045.700195	118.296082
19478.229734	16971.805333	1044.547852	57.465466
19478.229734	16971.805333	1043.394531	255.323151
19478.229734	16971.805333	1042.240234	299.076416
19478.229734	16971.805333	1041.086914	45.865311
19478.229734	16971.805333	1039.932617	135.160690
19478.229734	16971.805333	1038.778320	0.459979
19478.229734	16971.805333	1037.624023	156.115997
19478.229734	16971.805333	1036.469727	113.740364
19478.229734	16971.805333	1035.314453	267.640839
19478.229734	16971.805333	1034.159180	221.413513
19478.229734	16971.805333	1033.003906	241.972717
19478.229734	16971.805333	1031.847656	485.215057
19478.229734	16971.805333	1030.692383	494.621613
19478.229734	16971.805333	1029.536133	639.188354
19478.229734	16971.805333	1028.378906	545.943848
19478.229734	16971.805333	1027.222656	437.995178
19478.229734	16971.805333	1026.065430	169.374466
19478.229734	16971.805333	1024.908203	340.121185
19478.229734	16971.805333	1023.750977	113.257118
19478.229734	16971.805333	1022.593750	-13.519272
19478.229734	16971.805333	1021.435547	153.919907
19478.229734	16971.805333	1020.277344	137.631805
19478.229734	16971.805333	1019.119141	41.070759
19478.229734	16971.805333	1017.959961	-119.249641
19478.229734	16971.805333	1016.800781	-20.201902
19478.229734	16971.805333	1015.641602	-119.720375
19478.229734	16971.805333	1014.482422	12.059424
19478.229734	16971.805333	1013.323242	104.780296
19478.229734	16971.805333	1012.163086	17.347353
19478.229734	16971.805333	1011.002930	-56.689030
19478.229734	16971.805333	1009.842773	42.124477
19478.229734	16971.805333	1008.681641	-113.809982
19478.229734	16971.805333	1007.520508	63.214233
19478.229734	16971.805333	1006.359375	-143.298782
19478.229734	16971.805333	1005.198242	36.071102
19478.229734	16971.805333	1004.037109	-53.741375
19478.229734	16971.805333	1002.875000	123.473488
19478.229734	16971.805333	1001.712891	220.661606
19478.229734	16971.805333	1000.550781	-46.538170
19478.229734	16971.805333	999.387695	-304.213074
19478.229734	16971.805333	998.224609	8.478363
19478.229734	16971.805333	997.061523	128.492325
19478.229734	16971.805333	995.898438	58.049675
19478.229734	16971.805333	994.734375	-9.501307
19478.229734	16971.805333	993.571289	118.379585
19478.229734	16971.805333	992.407227	3.670959
19478.229734	16971.805333	991.242188	109.121956
19478.229734	16971.805333	990.078125	-13.478176
19478.229734	16971.805333	988.913086	-164.494629
19478.229734	16971.805333	987.748047	50.304695
19478.229734	16971.805333	986.583008	-97.721703
19478.229734	16971.805333	985.416992	114.802673
19478.229734	16971.805333	984.250977	4.351122
19478.229734	16971.805333	983.084961	-141.981522
19478.229734	16971.805333	981.918945	-20.189325
19478.229734	16971.805333	980.751953	84.027023
19478.229734	16971.805333	979.584961	-77.914841
19478.229734	16971.805333	978.417969	-17.307806
19478.229734	16971.805333	977.250977	-111.291458
19478.229734	16971.805333	976.083008	-57.686672
19478.229734	16971.805333	974.915039	-117.402939
19478.229734	16971.805333	973.747070	-17.051540
19478.229734	16971.805333	972.579102	1.981822
19478.229734	16971.805333	971.410156	148.731705
19478.229734	16971.805333	970.242188	366.187683
19478.229734	16971.805333	969.072266	236.547073
19478.229734	16971.805333	967.903320	226.391891
19478.229734	16971.805333	966.733398	6.214027
19478.229734	16971.805333	965.563477	36.161583
19478.229734	16971.805333	964.393555	45.187691
19478.229734	16971.805333	963.223633	17.909525
19478.229734	16971.805333	962.052734	-11.228300
19478.229734	16971.805333	960.881836	77.659637
19478.229734	16971.805333	959.710938	52.545971
19478.229734	16971.805333	958.540039	57.853516
19478.229734	16971.805333	957.368164	-24.329613
19478.229734	16971.805333	956.196289	-104.361153
19478.229734	16971.805333	955.024414	-87.454048
19478.229734	16971.805333	953.851563	52.355755
19478.229734	16971.805333	952.679688	112.557938
19478.229734	16971.805333	951.506836	-136.321716
19478.229734	16971.805333	950.333984	15.257518
19478.229734	16971.805333	949.160156	51.114109
19478.229734	16971.805333	947.986328	-130.198547
19478.229734	16971.805333	946.812500	112.686661
19478.229734	16971.805333	945.638672	-7.529229
19478.229734	16971.805333	944.464844	-65.269157
19478.229734	16971.805333	943.290039	-49.670757
19478.229734	16971.805333	942.115234	-49.918919
19478.229734	16971.805333	940.940430	-32.103611
19478.229734	16971.805333	939.764648	-40.735554
19478.229734	16971.805333	938.588867	21.354860
19478.229734	16971.805333	937.413086	-117.883301
19478.229734	16971.805333	936.237305	28.250011
19478.229734	16971.805333	935.060547	-41.847778
19478.229734	16971.805333	933.883789	-111.797104
19478.229734	16971.805333	932.707031	30.207533
19478.229734	16971.805333	931.530273	-132.261780
19478.229734	16971.805333	930.352539	-70.123123
19478.229734	16971.805333	929.175781	57.212982
19478.229734	16971.805333	927.998047	285.189850
19478.229734	16971.805333	926.819336	26.236006
19478.229734	16971.805333	925.641602	-16.557156
19478.229734	16971.805333	924.462891	-105.496353
19478.229734	16971.805333	923.284180	67.784340
19478.229734	16971.805333	922.104492	-125.994583
19478.229734	16971.805333	920.924805	101.746674
19478.229734	16971.805333	919.746094	110.014694
19478.229734	16971.805333	919.551758	30.960804
19478.229734	16971.805333	918.386719	46.766010
19478.229734	16971.805333	917.220703	-107.176666
19478.229734	16971.805333	916.054688	-131.171204
19478.229734	16971.805333	914.887695	-144.686630
19478.229734	16971.805333	913.721680	-154.025894
19478.229734	16971.805333	912.554688	186.304794
19478.229734	16971.805333	911.387695	-93.163544
19478.229734	16971.805333	910.220703	-148.581604
19478.229734	16971.805333	909.052734	-208.167511
19478.229734	16971.805333	907.885742	-27.152847
19478.229734	16971.805333	906.717773	-118.139664
19478.229734	16971.805333	905.548828	-223.735733
19478.229734	16971.805333	904.380859	26.137028
19478.229734	16971.805333	903.211914	227.820801
19478.229734	16971.805333	902.042969	42.756786
19478.229734	16971.805333	900.874023	-60.751610
19478.229734	16971.805333	899.704102	55.134922
19478.229734	16971.805333	898.535156	58.160576
19478.229734	16971.805333	897.365234	186.474014
19478.229734	16971.805333	896.194336	135.169571
19478.229734	16971.805333	895.024414	-33.034859
19478.229734	16971.805333	893.853516	99.351089
19478.229734	16971.805333	892.682617	-70.890472
19478.229734	16971.805333	891.511719	-78.358543
19478.229734	16971.805333	890.340820	160.275604
19478.229734	16971.805333	889.168945	98.516159
19478.229734	16971.805333	887.997070	30.507565
19478.229734	16971.805333	886.825195	79.238708
19478.229734	16971.805333	885.653320	-17.951921
19478.229734	16971.805333	884.480469	-102.614937
19478.229734	16971.805333	883.307617	125.214485
19478.229734	16971.805333	882.134766	150.903137
19478.229734	16971.805333	880.961914	55.783646
19478.229734	16971.805333	879.788086	12.736931
19478.229734	16971.805333	878.614258	80.004257
19478.229734	16971.805333	877.440430	74.385010
19478.229734	16971.805333	876.266602	-12.399533
19478.229734	16971.805333	875.091797	23.566620
19478.229734	16971.805333	873.916992	71.973038
19478.229734	16971.805333	872.742188	130.733353
19478.229734	16971.805333	871.567383	87.576630
19478.229734	16971.805333	870.391602	-11.700368
19478.229734	16971.805333	869.215820	15.800981
19478.229734	16971.805333	868.040039	-145.801605
19478.229734	16971.805333	866.864258	-218.042725
19478.229734	16971.805333	865.687500	123.009026
19478.229734	16971.805333	864.510742	-150.715424
19478.229734	16971.805333	863.333984	105.013962
19478.229734	16971.805333	862.157227	296.268982
19478.229734	16971.805333	860.979492	113.903809
19478.229734	16971.805333	859.802734	62.283928
19478.229734	16971.805333	858.625000	-68.161201
19478.229734	16971.805333	857.446289	-125.991684
19478.229734	16971.805333	856.268555	-192.128998
19478.229734	16971.805333	855.089844	-164.980759
19478.229734	16971.805333	853.911133	119.121460
19478.229734	16971.805333	852.731445	-21.704687
19478.229734	16971.805333	851.552734	-60.997654
19478.229734	16971.805333	850.373047	-44.377205
19478.229734	16971.805333	849.193359	241.413101
19478.229734	16971.805333	848.013672	-102.357674
19478.229734	16971.805333	846.833008	23.875221
19478.229734	16971.805333	845.652344	147.950348
19478.229734	16971.805333	844.471680	19.503952
19478.229734	16971.805333	843.291016	-63.413647
19478.229734	16971.805333	842.110352	186.661926
19478.229734	16971.805333	840.928711	0.282574
19478.229734	16971.805333	839.747070	-169.518661
19478.229734	16971.805333	838.564453	18.312983
19478.229734	16971.805333	837.382813	-95.699654
19478.229734	16971.805333	836.200195	129.153961
19478.229734	16971.805333	835.017578	151.431442
19478.229734	16971.805333	833.834961	101.373520
19478.229734	16971.805333	832.651367	-20.969101
19478.229734	16971.805333	831.467773	123.014000
19478.229734	16971.805333	830.284180	-125.272362
19478.229734	16971.805333	829.100586	-53.637230
19478.229734	16971.805333	827.916992	166.476563
19478.229734	16971.805333	826.732422	-69.410744
19478.229734	16971.805333	825.547852	63.915962
19478.229734	16971.805333	824.363281	-27.605286
19478.229734	16971.805333	823.177734	212.772217
19478.229734	16971.805333	821.992188	-49.894512
19478.229734	16971.805333	820.806641	4.840384
19478.229734	16971.805333	819.621094	-86.767670
19478.229734	16971.805333	818.434570	-34.194778
19478.229734	16971.805333	817.249023	80.087082
19478.229734	16971.805333	816.062500	58.388802
19478.229734	16971.805333	814.875000	73.709854
19478.229734	16971.805333	813.688477	156.890015
19478.229734	16971.805333	812.500977	42.454792
19478.229734	16971.805333	811.313477	2.078796
19478.229734	16971.805333	810.125977	74.795799
19478.229734	16971.805333	808.937500	-37.638172
19478.229734	16971.805333	807.749023	131.591278
19478.229734	16971.805333	806.560547	-1.464507
19478.229734	16971.805333	805.372070	169.641373
19478.229734	16971.805333	804.182617	108.448982
19478.229734	16971.805333	802.994141	104.745178
19478.229734	16971.805333	801.803711	133.860764
19478.229734	16971.805333	800.614258	-60.915684
19478.229734	16971.805333	799.424805	274.008636
19478.229734	16971.805333	798.234375	-111.707275
19478.229734	16971.805333	797.043945	32.135189
19478.229734	16971.805333	795.852539	79.438141
19478.229734	16971.805333	794.662109	141.021332
19478.229734	16971.805333	793.470703	206.629684
19478.229734	16971.805333	792.279297	108.120224
19478.229734	16971.805333	791.087891	-66.255394
19478.229734	16971.805333	789.895508	282.036560
19478.229734	16971.805333	788.703125	54.310314
19478.229734	16971.805333	787.510742	-1.283066
19478.229734	16971.805333	786.318359	-126.554390
19478.229734	16971.805333	785.125000	-159.671249
19478.229734	16971.805333	783.931641	282.180786
19478.229734	16971.805333	782.738281	209.982925
19478.229734	16971.805333	781.544922	39.520065
19478.229734	16971.805333	780.350586	176.001434
19478.229734	16971.805333	779.156250	189.620590
19478.229734	16971.805333	777.961914	-9.540640
19478.229734	16971.805333	776.767578	-67.578163
19478.229734	16971.805333	775.572266	-101.113983
19478.229734	16971.805333	774.376953	-24.316610
19478.229734	16971.805333	773.181641	3.342118
19478.229734	16971.805333	771.986328	6.409888
19478.229734	16971.805333	770.790039	95.216690
19478.229734	16971.805333	769.593750	422.884308
19478.229734	16971.805333	768.397461	52.008289
19478.229734	16971.805333	767.201172	109.945000
19478.229734	16971.805333	766.003906	257.609222
19478.229734	16971.805333	764.806641	-100.938568
19478.229734	16971.805333	763.609375	101.671700
19478.229734	16971.805333	762.412109	320.454590
19478.229734	16971.805333	761.213867	23.118689
19478.229734	16971.805333	760.015625	23.536268
19478.229734	16971.805333	758.817383	-94.344460
19478.229734	16971.805333	757.618164	130.169357
19478.229734	16971.805333	756.419922	126.303253
19478.229734	16971.805333	755.220703	59.223190
19478.229734	16971.805333	754.021484	69.510750
19478.229734	16971.805333	752.821289	112.316635
19478.229734	16971.805333	751.621094	128.574097
19478.229734	16971.805333	750.420898	132.549820
19478.229734	16971.805333	749.220703	166.988983
19478.229734	16971.805333	748.020508	107.754959
19478.229734	16971.805333	746.819336	180.715073
19478.229734	16971.805333	745.618164	190.533386
19478.229734	16971.805333	744.416992	265.356506
19478.229734	16971.805333	743.214844	352.287018
19478.229734	16971.805333	742.012695	180.977448
19478.229734	16971.805333	740.810547	19.839087
19478.229734	16971.805333	739.608398	256.932709
19478.229734	16971.805333	738.406250	274.482117
19478.229734	16971.805333	737.203125	415.850494
19478.229734	16971.805333	736.000000	191.610580
19478.229734	16971.805333	734.795898	533.794434
19478.229734	16971.805333	733.592773	561.178528
19478.229734	16971.805333	732.388672	440.359955
19478.229734	16971.805333	731.184570	498.066925
19478.229734	16971.805333	729.979492	462.385071
19478.229734	16971.805333	728.775391	351.624603
19478.229734	16971.805333	727.570313	123.256165
19478.229734	16971.805333	726.365234	219.260300
19478.229734	16971.805333	725.160156	189.513397
19478.229734	16971.805333	723.954102	141.484665
19478.229734	16971.805333	722.748047	184.581589
19478.229734	16971.805333	721.541992	205.324127
19478.229734	16971.805333	720.334961	25.529127
19478.229734	16971.805333	719.128906	129.189285
19478.229734	16971.805333	717.921875	161.907501
19478.229734	16971.805333	716.714844	99.442131
19478.229734	16971.805333	715.506836	275.696808
19478.229734	16971.805333	714.298828	-108.509415
19478.229734	16971.805333	713.090820	-80.031441
19478.229734	16971.805333	711.882813	-11.178265
19478.229734	16971.805333	710.674805	45.464783
19478.229734	16971.805333	709.465820	33.311939
19478.229734	16971.805333	708.256836	-77.903374
19478.229734	16971.805333	707.047852	-82.045738
19478.229734	16971.805333	705.837891	-84.216606
19478.229734	16971.805333	704.627930	-80.377686
19478.229734	16971.805333	703.417969	-167.446243
19478.229734	16971.805333	702.208008	-36.515285
19478.229734	16971.805333	700.998047	-119.616302
19478.229734	16971.805333	699.787109	35.368885
19478.229734	16971.805333	698.576172	73.236656
19478.229734	16971.805333	697.364258	44.484074
19478.229734	16971.805333	696.153320	-159.736053
19478.229734	16971.805333	694.941406	57.446548
19478.229734	16971.805333	693.729492	85.023773
19478.229734	16971.805333	692.516602	37.982857
19478.229734	16971.805333	691.304688	202.475998
19478.229734	16971.805333	690.091797	-62.203915
19478.229734	16971.805333	688.878906	9.519248
19478.229734	16971.805333	687.665039	-136.288239
19478.229734	16971.805333	686.451172	158.799423
19478.229734	16971.805333	685.237305	115.594772
19478.229734	16971.805333	684.023438	199.145676
19478.229734	16971.805333	682.809570	192.093781
19478.229734	16971.805333	681.594727	253.399857
19478.229734	16971.805333	680.379883	103.491905
19478.229734	16971.805333	679.165039	1.870020
19478.229734	16971.805333	677.949219	8.807448
19478.229734	16971.805333	676.733398	51.888580
19478.229734	16971.805333	675.517578	157.211227
19478.229734	16971.805333	674.301758	21.397617
19478.229734	16971.805333	673.084961	100.518845
19478.229734	16971.805333	671.869141	-13.188764
19478.229734	16971.805333	670.651367	148.170242
19478.229734	16971.805333	669.434570	134.813187
19478.229734	16971.805333	668.216797	81.304863
19478.229734	16971.805333	667.000000	156.206024
19478.229734	16971.805333	665.781250	28.457903
19478.229734	16971.805333	664.563477	95.280014
19478.229734	16971.805333	663.344727	158.046692
19478.229734	16971.805333	662.125977	218.766556
19478.229734	16971.805333	660.907227	195.271027
19478.229734	16971.805333	659.688477	157.746017
19478.229734	16971.805333	658.468750	160.292908
19478.229734	16971.805333	657.249023	186.864792
19478.229734	16971.805333	656.029297	57.219879
19478.229734	16971.805333	654.808594	255.968384
19478.229734	16971.805333	653.587891	220.429642
19478.229734	16971.805333	652.367188	64.826790
19478.229734	16971.805333	651.146484	-16.682499
19478.229734	16971.805333	649.924805	-82.154961
19478.229734	16971.805333	648.704102	194.401276
19478.229734	16971.805333	647.482422	-151.026169
19478.229734	16971.805333	646.259766	-82.480690
19478.229734	16971.805333	645.037109	83.978233
19478.229734	16971.805333	643.815430	100.501114
19478.229734	16971.805333	642.591797	-122.721748
19478.229734	16971.805333	641.369141	-154.084641
19478.229734	16971.805333	640.145508	58.215637
19478.229734	16971.805333	638.921875	-11.084445
19478.229734	16971.805333	637.698242	-28.440361
19478.229734	16971.805333	636.474609	-51.759724
19478.229734	16971.805333	635.250000	-160.852966
19478.229734	16971.805333	634.025391	-18.520723
19478.229734	16971.805333	632.800781	69.921188
19478.229734	16971.805333	631.575195	4.802086
19478.229734	16971.805333	630.349609	-100.137711
19478.229734	16971.805333	629.124023	-79.434677
19478.229734	16971.805333	627.898438	24.985056
19478.229734	16971.805333	626.671875	-33.987579
19478.229734	16971.805333	625.445313	158.083969
19478.229734	16971.805333	624.218750	-46.212727
19478.229734	16971.805333	622.992188	-59.240326
19478.229734	16971.805333	621.764648	67.120743
19478.229734	16971.805333	620.537109	58.126274
19478.229734	16971.805333	619.309570	-18.480896
19478.229734	16971.805333	618.081055	-124.856499
19478.229734	16971.805333	616.852539	186.547165
19478.229734	16971.805333	615.624023	100.143814
19478.229734	16971.805333	614.395508	-0.094237
19478.229734	16971.805333	613.166992	58.776024
19478.229734	16971.805333	611.937500	-43.303310
19478.229734	16971.805333	610.708008	-77.734932
19478.229734	16971.805333	609.477539	20.994617
19478.229734	16971.805333	608.248047	-144.410217
19478.229734	16971.805333	607.017578	-81.342064
19478.229734	16971.805333	605.787109	-298.158875
19478.229734	16971.805333	604.555664	-201.228882
19478.229734	16971.805333	603.325195	-54.670311
19478.229734	16971.805333	602.093750	-58.893032
19478.229734	16971.805333	600.861328	-13.462760
19478.229734	16971.805333	599.629883	141.082993
19478.229734	16971.805333	598.397461	-37.460285
19478.229734	16971.805333	597.165039	57.690605
19478.229734	16971.805333	595.932617	-98.822266
19478.229734	16971.805333	594.699219	-162.071899
19478.229734	16971.805333	593.465820	125.414146
19478.229734	16971.805333	592.232422	-151.612732
19478.229734	16971.805333	590.999023	40.849796
19478.229734	16971.805333	589.764648	90.766968
19478.229734	16971.805333	588.530273	51.671452
19478.229734	16971.805333	587.295898	-165.428619
19478.229734	16971.805333	586.061523	46.970936
19478.229734	16971.805333	584.826172	39.800350
19478.229734	16971.805333	583.590820	-218.442245
19478.229734	16971.805333	582.355469	-53.369938
19478.229734	16971.805333	581.119141	-123.517242
19478.229734	16971.805333	579.882813	-67.062096
19478.229734	16971.805333	578.646484	117.893051
19478.229734	16971.805333	577.410156	42.089470
19478.229734	16971.805333	576.172852	-108.642960
19478.229734	16971.805333	574.935547	157.435364
19478.229734	16971.805333	573.698242	328.727692
19478.229734	16971.805333	572.460938	134.881393
19478.229734	16971.805333	571.222656	33.964729
19478.229734	16971.805333	569.984375	126.537163
19478.229734	16971.805333	568.746094	67.278137
19478.229734	16971.805333	567.506836	154.082184
19478.229734	16971.805333	566.267578	284.323822
19478.229734	16971.805333	565.028320	97.227226
19478.229734	16971.805333	563.789063	237.475571
19478.229734	16971.805333	562.548828	216.187088
19478.229734	16971.805333	561.309570	141.813217
19478.229734	16971.805333	560.068359	203.479401
19478.229734	16971.805333	558.828125	95.866470
19478.229734	16971.805333	557.586914	397.906921
19478.229734	16971.805333	556.345703	135.002472
19478.229734	16971.805333	555.104492	267.865143
19478.229734	16971.805333	553.863281	135.157028
19478.229734	16971.805333	552.621094	382.258209
19478.229734	16971.805333	551.378906	367.787598
19478.229734	16971.805333	550.136719	137.136597
19478.229734	16971.805333	548.893555	299.854218
19478.229734	16971.805333	547.650391	411.501251
19478.229734	16971.805333	546.407227	248.101669
19478.229734	16971.805333	545.164063	287.222321
19478.229734	16971.805333	543.919922	365.711029
19478.229734	16971.805333	542.675781	375.534180
19478.229734	16971.805333	541.431641	373.670441
19478.229734	16971.805333	540.186523	195.248840
19478.229734	16971.805333	538.941406	454.627838
19478.229734	16971.805333	537.696289	611.965515
19478.229734	16971.805333	536.451172	402.504761
19478.229734	16971.805333	535.205078	475.643066
19478.229734	16971.805333	533.959961	491.975067
19478.229734	16971.805333	532.712891	482.912537
19478.229734	16971.805333	531.466797	662.091248
19478.229734	16971.805333	530.219727	386.675537
19478.229734	16971.805333	528.972656	618.869995
19478.229734	16971.805333	527.725586	786.409973
19478.229734	16971.805333	526.478516	577.972046
19478.229734	16971.805333	525.230469	583.111389
19478.229734	16971.805333	523.982422	717.513367
19478.229734	16971.805333	522.734375	867.587524
19478.229734	16971.805333	521.485352	751.577393
19478.229734	16971.805333	520.236328	807.827820
19478.229734	16971.805333	518.987305	735.038940
19478.229734	16971.805333	517.737305	900.898376
19478.229734	16971.805333	516.488281	812.602600
19478.229734	16971.805333	515.238281	788.903625
19478.229734	16971.805333	513.988281	1001.707764
19478.229734	16971.805333	512.737305	905.798767
19478.229734	16971.805333	511.486328	909.589478
19478.229734	16971.805333	510.235352	1202.433228
19478.229734	16971.805333	508.984375	1184.758545
19478.229734	16971.805333	507.732422	1290.102173
19478.229734	16971.805333	506.480469	1014.876465
19478.229734	16971.805333	505.228516	1133.919189
19478.229734	16971.805333	503.976563	1184.653320
19478.229734	16971.805333	502.723633	1176.873779
19478.229734	16971.805333	501.470703	1605.874756
19478.229734	16971.805333	500.217773	1486.899658
19478.229734	16971.805333	498.963867	1426.446167
19478.229734	16971.805333	497.709961	1449.798950
19478.229734	16971.805333	496.456055	1609.498657
19478.229734	16971.805333	495.202148	1558.747803
19478.229734	16971.805333	493.947266	1691.045288
19478.229734	16971.805333	492.692383	1712.275391
19478.229734	16971.805333	491.437500	1778.222046
19478.229734	16971.805333	490.181641	1783.765991
19478.229734	16971.805333	488.926758	1925.442139
19478.229734	16971.805333	487.670898	1870.524414
19478.229734	16971.805333	486.414063	2060.612305
19478.229734	16971.805333	485.158203	2166.919678
19478.229734	16971.805333	483.901367	2129.241211
19478.229734	16971.805333	482.644531	2231.415527
19478.229734	16971.805333	481.386719	2271.261475
19478.229734	16971.805333	480.128906	2361.482910
19478.229734	16971.805333	478.871094	2368.018555
19478.229734	16971.805333	477.613281	2450.147217
19478.229734	16971.805333	476.355469	2400.072266
19478.229734	16971.805333	475.096680	2668.197998
19478.229734	16971.805333	473.837891	2621.655518
19478.229734	16971.805333	472.578125	2656.445801
19478.229734	16971.805333	471.319336	2582.395996
19478.229734	16971.805333	470.059570	2853.390381
19478.229734	16971.805333	468.799805	2775.036133
19478.229734	16971.805333	467.539063	2834.129395
19478.229734	16971.805333	466.278320	2937.532471
19478.229734	16971.805333	465.017578	3009.633057
19478.229734	16971.805333	463.756836	2883.830811
19478.229734	16971.805333	462.495117	3007.661865
19478.229734	16971.805333	461.233398	3026.574951
19478.229734	16971.805333	459.971680	3087.762939
19478.229734	16971.805333	458.709961	3076.981689
19478.229734	16971.805333	457.447266	3154.885498
19478.229734	16971.805333	456.184570	3323.335938
19478.229734	16971.805333	454.921875	3096.729736
19478.229734	16971.805333	453.658203	3229.547852
19478.229734	16971.805333	452.394531	3242.025879
19478.229734	16971.805333	451.130859	3478.315674
19478.229734	16971.805333	449.867188	3466.679443
19478.229734	16971.805333	448.602539	3504.827637
19478.229734	16971.805333	447.337891	3528.959717
19478.229734	16971.805333	446.073242	3463.739014
19478.229734	16971.805333	444.807617	3581.476807
19478.229734	16971.805333	443.542969	3650.365723
19478.229734	16971.805333	442.276367	3755.337646
19478.229734	16971.805333	441.010742	3907.936035
19478.229734	16971.805333	439.744141	3731.874512
19478.229734	16971.805333	438.478516	3771.315918
19478.229734	16971.805333	437.210938	3586.380859
19478.229734	16971.805333	435.944336	3771.062012
19478.229734	16971.805333	434.676758	3596.420410
19478.229734	16971.805333	433.409180	3916.450928
19478.229734	16971.805333	432.141602	3707.649658
19478.229734	16971.805333	430.873047	3792.915527
19478.229734	16971.805333	429.604492	3752.166260
19478.229734	16971.805333	428.335938	3812.678711
19478.229734	16971.805333	427.067383	4159.179199
19478.229734	16971.805333	425.797852	4262.132813
19478.229734	16971.805333	424.528320	3969.657959
19478.229734	16971.805333	423.258789	3874.552002
19478.229734	16971.805333	421.988281	4088.211914
19478.229734	16971.805333	420.717773	3968.102051
19478.229734	16971.805333	419.447266	4164.275391
19478.229734	16971.805333	418.175781	4284.339844
19478.229734	16971.805333	416.905273	4180.361816
19478.229734	16971.805333	415.633789	3985.002930
19478.229734	16971.805333	414.362305	4080.586182
19478.229734	16971.805333	413.089844	4009.767822
19478.229734	16971.805333	411.817383	3836.008057
19478.229734	16971.805333	410.544922	3916.411865
19478.229734	16971.805333	409.272461	3899.540771
19478.229734	16971.805333	407.999023	3877.508057
19478.229734	16971.805333	406.725586	4022.965820
19478.229734	16971.805333	405.452148	3817.885986
19478.229734	16971.805333	404.177734	4012.241211
19478.229734	16971.805333	402.903320	3892.538330
19478.229734	16971.805333	401.628906	4152.836914
19478.229734	16971.805333	400.354492	3932.376953
19478.229734	16971.805333	399.079102	3886.672852
19478.229734	16971.805333	397.803711	3894.918213
19478.229734	16971.805333	396.528320	3855.527344
19478.229734	16971.805333	395.251953	3898.660400
19478.229734	16971.805333	393.976563	3740.961670
19478.229734	16971.805333	392.700195	4195.871582
19478.229734	16971.805333	391.422852	4017.238037
19478.229734	16971.805333	390.145508	3658.869141
19478.229734	16971.805333	388.869141	3708.069824
19478.229734	16971.805333	387.590820	3818.284180
19478.229734	16971.805333	386.313477	3658.793945
19478.229734	16971.805333	385.035156	3720.878418
19478.229734	16971.805333	383.756836	3599.247070
19478.229734	16971.805333	382.478516	3645.523193
19478.229734	16971.805333	381.199219	3710.493652
19478.229734	16971.805333	379.919922	3717.751465
19478.229734	16971.805333	378.640625	3694.012451
19478.229734	16971.805333	377.360352	3503.645752
19478.229734	16971.805333	376.080078	3501.748047
19478.229734	16971.805333	374.799805	3234.001221
19478.229734	16971.805333	373.519531	3553.269043
19478.229734	16971.805333	372.238281	3513.025146
19478.229734	16971.805333	370.957031	3357.586914
19478.229734	16971.805333	369.675781	3353.869141
19478.229734	16971.805333	368.394531	3171.967285
19478.229734	16971.805333	367.112305	3332.096680
19478.229734	16971.805333	365.830078	3405.365723
19478.229734	16971.805333	364.546875	3022.153564
19478.229734	16971.805333	363.264648	2956.026367
19478.229734	16971.805333	361.981445	2757.215332
19478.229734	16971.805333	360.698242	2871.245605
19478.229734	16971.805333	359.414063	2869.548584
19478.229734	16971.805333	358.129883	2632.340820
19478.229734	16971.805333	356.845703	2642.885986
19478.229734	16971.805333	355.561523	2581.434326
19478.229734	16971.805333	354.276367	2495.394043
19478.229734	16971.805333	352.991211	2563.497559
19478.229734	16971.805333	351.706055	2439.649902
19478.229734	16971.805333	350.420898	2332.920898
19478.229734	16971.805333	349.134766	2199.415527
19478.229734	16971.805333	347.848633	2153.135742
19478.229734	16971.805333	346.561523	2041.910278
19478.229734	16971.805333	345.275391	2084.258545
19478.229734	16971.805333	343.988281	1972.257813
19478.229734	16971.805333	342.700195	1838.757813
19478.229734	16971.805333	341.413086	1911.609619
19478.229734	16971.805333	340.125000	1581.421631
19478.229734	16971.805333	338.836914	1504.685181
19478.229734	16971.805333	337.548828	1512.388550
19478.229734	16971.805333	336.259766	1596.658936
19478.229734	16971.805333	334.970703	1689.255005
19478.229734	16971.805333	333.681641	1225.407227
19478.229734	16971.805333	332.391602	1216.859619
19478.229734	16971.805333	331.101563	1214.477295
19478.229734	16971.805333	329.811523	1042.044678
19478.229734	16971.805333	328.521484	1002.485718
19478.229734	16971.805333	327.230469	913.731445
19478.229734	16971.805333	325.939453	815.605652
19478.229734	16971.805333	324.648438	872.609436
19478.229734	16971.805333	323.356445	552.826294
19478.229734	16971.805333	322.064453	624.363098
19478.229734	16971.805333	320.772461	644.421204
19478.229734	16971.805333	319.480469	474.929169
19478.229734	16971.805333	318.187500	514.463318
19478.229734	16971.805333	316.894531	300.034210
19478.229734	16971.805333	315.601563	137.719513
19478.229734	16971.805333	314.307617	416.210632
19478.229734	16971.805333	313.013672	-158.146729
19478.229734	16971.805333	311.719727	100.915298
19478.229734	16971.805333	310.425781	-162.444443
19478.229734	16971.805333	309.130859	-29.275341
19478.229734	16971.805333	307.835938	104.074387
19478.229734	16971.805333	306.541016	-141.653992
19478.229734	16971.805333	305.245117	-110.348412
19478.229734	16971.805333	303.949219	-73.580948
19478.229734	16971.805333	302.653320	42.024673
19478.229734	16971.805333	301.356445	104.082657
19478.229734	16971.805333	300.060547	39.544563
19478.229734	16971.805333	298.763672	120.936005
