#X		#Y		#Wave		#Intensity
19482.567926	16972.295000	2000.043945	-53.559208
19482.567926	16972.295000	1999.080078	-73.316437
19482.567926	16972.295000	1998.116211	72.048103
19482.567926	16972.295000	1997.151367	1.650241
19482.567926	16972.295000	1996.186523	-153.079041
19482.567926	16972.295000	1995.222656	-35.372402
19482.567926	16972.295000	1994.256836	-56.504532
19482.567926	16972.295000	1993.291992	75.789383
19482.567926	16972.295000	1992.327148	-160.971008
19482.567926	16972.295000	1991.361328	72.588921
19482.567926	16972.295000	1990.395508	63.418152
19482.567926	16972.295000	1989.429688	19.513494
19482.567926	16972.295000	1988.463867	225.406860
19482.567926	16972.295000	1987.497070	116.997726
19482.567926	16972.295000	1986.531250	112.404900
19482.567926	16972.295000	1985.564453	13.776116
19482.567926	16972.295000	1984.597656	219.175919
19482.567926	16972.295000	1983.630859	290.948517
19482.567926	16972.295000	1982.664063	93.246658
19482.567926	16972.295000	1981.696289	-84.687202
19482.567926	16972.295000	1980.728516	16.522190
19482.567926	16972.295000	1979.761719	-186.181274
19482.567926	16972.295000	1978.792969	23.526134
19482.567926	16972.295000	1977.825195	203.457855
19482.567926	16972.295000	1976.857422	-38.862782
19482.567926	16972.295000	1975.888672	-73.832634
19482.567926	16972.295000	1974.919922	88.556572
19482.567926	16972.295000	1973.951172	162.009949
19482.567926	16972.295000	1972.982422	102.175941
19482.567926	16972.295000	1972.013672	148.355286
19482.567926	16972.295000	1971.043945	179.674088
19482.567926	16972.295000	1970.075195	356.377899
19482.567926	16972.295000	1969.105469	-78.312447
19482.567926	16972.295000	1968.135742	-49.583797
19482.567926	16972.295000	1967.165039	57.937614
19482.567926	16972.295000	1966.195313	121.024963
19482.567926	16972.295000	1965.224609	225.922012
19482.567926	16972.295000	1964.253906	-156.849091
19482.567926	16972.295000	1963.283203	-66.794563
19482.567926	16972.295000	1962.312500	-72.817146
19482.567926	16972.295000	1961.341797	63.873741
19482.567926	16972.295000	1960.370117	94.672829
19482.567926	16972.295000	1959.399414	-201.798706
19482.567926	16972.295000	1958.427734	104.467705
19482.567926	16972.295000	1957.455078	68.742889
19482.567926	16972.295000	1956.483398	207.577820
19482.567926	16972.295000	1955.511719	240.616989
19482.567926	16972.295000	1954.539063	47.487164
19482.567926	16972.295000	1953.566406	109.983986
19482.567926	16972.295000	1952.593750	287.915344
19482.567926	16972.295000	1951.621094	288.880066
19482.567926	16972.295000	1950.647461	81.051567
19482.567926	16972.295000	1949.674805	-21.132267
19482.567926	16972.295000	1948.701172	-52.091492
19482.567926	16972.295000	1947.727539	-102.698448
19482.567926	16972.295000	1946.753906	52.858463
19482.567926	16972.295000	1945.780273	-169.556473
19482.567926	16972.295000	1944.805664	152.757233
19482.567926	16972.295000	1943.831055	-10.752498
19482.567926	16972.295000	1942.856445	90.655510
19482.567926	16972.295000	1941.881836	123.353256
19482.567926	16972.295000	1940.907227	124.154121
19482.567926	16972.295000	1939.932617	210.732788
19482.567926	16972.295000	1938.957031	101.215263
19482.567926	16972.295000	1937.981445	67.686127
19482.567926	16972.295000	1937.005859	17.011391
19482.567926	16972.295000	1936.030273	56.969151
19482.567926	16972.295000	1935.054688	-172.469162
19482.567926	16972.295000	1934.078125	239.652359
19482.567926	16972.295000	1933.101563	-38.704830
19482.567926	16972.295000	1932.125000	-52.637718
19482.567926	16972.295000	1931.148438	-49.442554
19482.567926	16972.295000	1930.171875	-217.513260
19482.567926	16972.295000	1929.194336	20.533638
19482.567926	16972.295000	1928.217773	28.589146
19482.567926	16972.295000	1927.240234	24.417646
19482.567926	16972.295000	1926.262695	286.722687
19482.567926	16972.295000	1925.284180	13.627882
19482.567926	16972.295000	1924.306641	-139.620361
19482.567926	16972.295000	1923.328125	-6.935490
19482.567926	16972.295000	1922.350586	164.782379
19482.567926	16972.295000	1921.372070	153.252533
19482.567926	16972.295000	1920.392578	92.889420
19482.567926	16972.295000	1919.414063	-79.765694
19482.567926	16972.295000	1918.434570	18.609919
19482.567926	16972.295000	1917.456055	-58.782360
19482.567926	16972.295000	1916.476563	146.923141
19482.567926	16972.295000	1915.497070	50.023506
19482.567926	16972.295000	1914.516602	16.585499
19482.567926	16972.295000	1913.537109	241.675644
19482.567926	16972.295000	1912.556641	47.286484
19482.567926	16972.295000	1911.576172	-164.095490
19482.567926	16972.295000	1910.595703	9.725236
19482.567926	16972.295000	1909.615234	-169.883972
19482.567926	16972.295000	1908.633789	62.358372
19482.567926	16972.295000	1907.653320	65.518684
19482.567926	16972.295000	1906.671875	32.149982
19482.567926	16972.295000	1905.690430	-66.952774
19482.567926	16972.295000	1904.708984	267.366760
19482.567926	16972.295000	1903.727539	333.792297
19482.567926	16972.295000	1902.745117	10.790740
19482.567926	16972.295000	1901.762695	21.282021
19482.567926	16972.295000	1900.780273	245.871643
19482.567926	16972.295000	1899.797852	-6.383739
19482.567926	16972.295000	1898.815430	157.332306
19482.567926	16972.295000	1897.832031	269.931976
19482.567926	16972.295000	1896.849609	-35.661098
19482.567926	16972.295000	1895.866211	-64.038551
19482.567926	16972.295000	1894.882813	-17.065765
19482.567926	16972.295000	1893.898438	233.993652
19482.567926	16972.295000	1892.915039	-149.085190
19482.567926	16972.295000	1891.930664	-143.399811
19482.567926	16972.295000	1890.947266	75.979156
19482.567926	16972.295000	1889.962891	147.178802
19482.567926	16972.295000	1888.977539	92.130646
19482.567926	16972.295000	1887.993164	-57.552387
19482.567926	16972.295000	1887.007813	91.293869
19482.567926	16972.295000	1886.023438	72.682686
19482.567926	16972.295000	1885.038086	-25.963964
19482.567926	16972.295000	1884.051758	42.771717
19482.567926	16972.295000	1883.066406	-276.477875
19482.567926	16972.295000	1882.081055	-236.812454
19482.567926	16972.295000	1881.094727	16.139050
19482.567926	16972.295000	1880.108398	-16.959658
19482.567926	16972.295000	1879.122070	-81.544334
19482.567926	16972.295000	1878.135742	33.158218
19482.567926	16972.295000	1877.148438	-181.570847
19482.567926	16972.295000	1876.162109	22.707432
19482.567926	16972.295000	1875.174805	-17.620237
19482.567926	16972.295000	1874.187500	-157.179245
19482.567926	16972.295000	1873.199219	56.667007
19482.567926	16972.295000	1872.211914	-179.644531
19482.567926	16972.295000	1871.223633	22.026741
19482.567926	16972.295000	1870.236328	-318.202545
19482.567926	16972.295000	1869.248047	-22.265989
19482.567926	16972.295000	1868.258789	101.886841
19482.567926	16972.295000	1867.270508	-199.486786
19482.567926	16972.295000	1866.282227	-41.517918
19482.567926	16972.295000	1865.292969	17.314714
19482.567926	16972.295000	1864.303711	196.926682
19482.567926	16972.295000	1863.314453	113.161400
19482.567926	16972.295000	1862.324219	150.186600
19482.567926	16972.295000	1861.334961	3.669694
19482.567926	16972.295000	1860.344727	-125.893372
19482.567926	16972.295000	1859.354492	123.561394
19482.567926	16972.295000	1858.364258	331.889099
19482.567926	16972.295000	1857.374023	-75.168419
19482.567926	16972.295000	1856.383789	174.118927
19482.567926	16972.295000	1855.392578	109.744972
19482.567926	16972.295000	1854.401367	57.447533
19482.567926	16972.295000	1853.410156	287.263367
19482.567926	16972.295000	1852.418945	181.901031
19482.567926	16972.295000	1851.426758	336.877777
19482.567926	16972.295000	1850.435547	171.284943
19482.567926	16972.295000	1849.443359	68.391701
19482.567926	16972.295000	1848.451172	40.203503
19482.567926	16972.295000	1847.458984	250.448456
19482.567926	16972.295000	1846.466797	308.901550
19482.567926	16972.295000	1845.473633	206.025238
19482.567926	16972.295000	1844.480469	394.428497
19482.567926	16972.295000	1843.487305	79.769127
19482.567926	16972.295000	1842.494141	198.324066
19482.567926	16972.295000	1841.500977	40.169060
19482.567926	16972.295000	1840.506836	168.286041
19482.567926	16972.295000	1839.513672	152.051712
19482.567926	16972.295000	1838.519531	183.899048
19482.567926	16972.295000	1837.525391	146.009384
19482.567926	16972.295000	1836.530273	4.774709
19482.567926	16972.295000	1835.536133	370.605072
19482.567926	16972.295000	1834.541016	200.521194
19482.567926	16972.295000	1833.545898	133.774765
19482.567926	16972.295000	1832.550781	-48.238125
19482.567926	16972.295000	1831.555664	-9.293304
19482.567926	16972.295000	1830.560547	-88.016190
19482.567926	16972.295000	1829.564453	-17.905518
19482.567926	16972.295000	1828.568359	258.546356
19482.567926	16972.295000	1827.572266	174.969833
19482.567926	16972.295000	1826.576172	-50.129601
19482.567926	16972.295000	1825.580078	262.091370
19482.567926	16972.295000	1824.583008	207.284302
19482.567926	16972.295000	1823.585938	-89.673927
19482.567926	16972.295000	1822.588867	78.495560
19482.567926	16972.295000	1821.591797	208.233749
19482.567926	16972.295000	1820.594727	246.846893
19482.567926	16972.295000	1819.596680	12.312603
19482.567926	16972.295000	1818.599609	113.182182
19482.567926	16972.295000	1817.601563	218.784348
19482.567926	16972.295000	1816.603516	345.873047
19482.567926	16972.295000	1815.604492	365.168060
19482.567926	16972.295000	1814.606445	209.703278
19482.567926	16972.295000	1813.607422	226.574783
19482.567926	16972.295000	1812.608398	92.681206
19482.567926	16972.295000	1811.609375	293.713562
19482.567926	16972.295000	1810.610352	-31.525826
19482.567926	16972.295000	1809.610352	-210.799744
19482.567926	16972.295000	1808.611328	-119.878693
19482.567926	16972.295000	1807.611328	-67.258621
19482.567926	16972.295000	1806.611328	286.435791
19482.567926	16972.295000	1805.610352	181.205338
19482.567926	16972.295000	1804.610352	-10.019109
19482.567926	16972.295000	1803.609375	412.649139
19482.567926	16972.295000	1802.608398	90.056190
19482.567926	16972.295000	1801.607422	-60.534611
19482.567926	16972.295000	1800.606445	163.683014
19482.567926	16972.295000	1799.605469	215.945038
19482.567926	16972.295000	1798.603516	177.482513
19482.567926	16972.295000	1797.601563	62.657391
19482.567926	16972.295000	1796.599609	24.176348
19482.567926	16972.295000	1795.597656	-45.324230
19482.567926	16972.295000	1794.595703	154.610397
19482.567926	16972.295000	1793.592773	166.107651
19482.567926	16972.295000	1792.589844	158.498383
19482.567926	16972.295000	1791.587891	153.238586
19482.567926	16972.295000	1790.583984	78.857452
19482.567926	16972.295000	1789.581055	214.102509
19482.567926	16972.295000	1788.577148	63.455250
19482.567926	16972.295000	1787.574219	129.525436
19482.567926	16972.295000	1786.570313	257.440948
19482.567926	16972.295000	1785.566406	6.792648
19482.567926	16972.295000	1784.561523	-10.559876
19482.567926	16972.295000	1783.557617	202.866455
19482.567926	16972.295000	1782.552734	142.589890
19482.567926	16972.295000	1781.547852	32.351852
19482.567926	16972.295000	1780.542969	176.577866
19482.567926	16972.295000	1779.538086	-71.605385
19482.567926	16972.295000	1778.532227	-43.969360
19482.567926	16972.295000	1777.527344	221.295654
19482.567926	16972.295000	1776.521484	-64.884293
19482.567926	16972.295000	1775.515625	22.021544
19482.567926	16972.295000	1774.508789	66.098991
19482.567926	16972.295000	1773.502930	143.369019
19482.567926	16972.295000	1772.496094	40.110909
19482.567926	16972.295000	1771.489258	193.254013
19482.567926	16972.295000	1770.482422	-175.897171
19482.567926	16972.295000	1769.475586	-158.120224
19482.567926	16972.295000	1768.467773	99.256470
19482.567926	16972.295000	1767.460938	74.193779
19482.567926	16972.295000	1766.453125	-81.345795
19482.567926	16972.295000	1765.445313	31.098591
19482.567926	16972.295000	1764.437500	243.036530
19482.567926	16972.295000	1763.428711	243.885544
19482.567926	16972.295000	1762.420898	183.071777
19482.567926	16972.295000	1761.412109	-17.561777
19482.567926	16972.295000	1760.403320	144.313141
19482.567926	16972.295000	1759.393555	102.383453
19482.567926	16972.295000	1758.384766	5.956507
19482.567926	16972.295000	1757.375000	94.212891
19482.567926	16972.295000	1756.366211	99.538246
19482.567926	16972.295000	1755.356445	-115.299088
19482.567926	16972.295000	1754.345703	166.853012
19482.567926	16972.295000	1753.335938	-201.785583
19482.567926	16972.295000	1752.325195	77.824738
19482.567926	16972.295000	1751.315430	-110.996368
19482.567926	16972.295000	1750.304688	-44.406693
19482.567926	16972.295000	1749.292969	-10.984565
19482.567926	16972.295000	1748.282227	157.113373
19482.567926	16972.295000	1747.270508	178.584564
19482.567926	16972.295000	1746.259766	145.659271
19482.567926	16972.295000	1745.248047	41.833607
19482.567926	16972.295000	1744.235352	70.271469
19482.567926	16972.295000	1743.223633	-139.851303
19482.567926	16972.295000	1742.211914	-61.893169
19482.567926	16972.295000	1741.199219	79.726723
19482.567926	16972.295000	1740.186523	51.321941
19482.567926	16972.295000	1739.173828	29.964741
19482.567926	16972.295000	1738.160156	126.532738
19482.567926	16972.295000	1737.147461	175.844879
19482.567926	16972.295000	1736.133789	36.433712
19482.567926	16972.295000	1735.120117	-79.390854
19482.567926	16972.295000	1734.106445	-93.845604
19482.567926	16972.295000	1733.091797	80.216461
19482.567926	16972.295000	1732.078125	49.155720
19482.567926	16972.295000	1731.063477	291.363739
19482.567926	16972.295000	1730.048828	156.541290
19482.567926	16972.295000	1729.034180	-67.768600
19482.567926	16972.295000	1728.019531	11.721223
19482.567926	16972.295000	1727.003906	-87.785805
19482.567926	16972.295000	1725.988281	-229.666855
19482.567926	16972.295000	1724.972656	-390.361298
19482.567926	16972.295000	1723.957031	-28.695221
19482.567926	16972.295000	1722.941406	-304.725159
19482.567926	16972.295000	1721.924805	37.884972
19482.567926	16972.295000	1720.909180	-181.696854
19482.567926	16972.295000	1719.892578	245.312714
19482.567926	16972.295000	1718.875977	-44.832333
19482.567926	16972.295000	1717.858398	179.785980
19482.567926	16972.295000	1716.841797	-293.599548
19482.567926	16972.295000	1715.824219	-198.315247
19482.567926	16972.295000	1714.806641	105.937996
19482.567926	16972.295000	1713.789063	172.843933
19482.567926	16972.295000	1712.770508	117.589905
19482.567926	16972.295000	1711.752930	236.030228
19482.567926	16972.295000	1710.734375	133.760071
19482.567926	16972.295000	1709.715820	327.158875
19482.567926	16972.295000	1708.697266	102.828400
19482.567926	16972.295000	1707.678711	124.843056
19482.567926	16972.295000	1706.659180	-94.754539
19482.567926	16972.295000	1705.640625	152.306458
19482.567926	16972.295000	1704.621094	-55.570625
19482.567926	16972.295000	1703.600586	38.954197
19482.567926	16972.295000	1702.581055	79.503555
19482.567926	16972.295000	1701.561523	-212.708115
19482.567926	16972.295000	1700.541016	-22.282892
19482.567926	16972.295000	1699.520508	-91.944435
19482.567926	16972.295000	1698.500000	74.889542
19482.567926	16972.295000	1697.478516	-107.219078
19482.567926	16972.295000	1696.458008	-298.658905
19482.567926	16972.295000	1695.436523	333.722839
19482.567926	16972.295000	1694.415039	130.495636
19482.567926	16972.295000	1693.393555	9.187176
19482.567926	16972.295000	1692.372070	-86.383919
19482.567926	16972.295000	1691.349609	154.787430
19482.567926	16972.295000	1690.327148	133.968185
19482.567926	16972.295000	1689.304688	-139.343307
19482.567926	16972.295000	1688.282227	181.052521
19482.567926	16972.295000	1687.259766	-59.519814
19482.567926	16972.295000	1686.236328	-241.629593
19482.567926	16972.295000	1685.213867	-325.602081
19482.567926	16972.295000	1684.190430	15.456929
19482.567926	16972.295000	1683.166016	232.598526
19482.567926	16972.295000	1682.142578	335.235901
19482.567926	16972.295000	1681.119141	52.686413
19482.567926	16972.295000	1680.094727	173.917755
19482.567926	16972.295000	1679.070313	185.410217
19482.567926	16972.295000	1678.045898	40.578213
19482.567926	16972.295000	1677.020508	105.666687
19482.567926	16972.295000	1675.996094	49.448620
19482.567926	16972.295000	1674.970703	133.095108
19482.567926	16972.295000	1673.945313	237.656937
19482.567926	16972.295000	1672.919922	127.747780
19482.567926	16972.295000	1671.893555	341.714020
19482.567926	16972.295000	1670.868164	266.707855
19482.567926	16972.295000	1669.841797	7.702887
19482.567926	16972.295000	1668.815430	-36.998020
19482.567926	16972.295000	1667.789063	139.462997
19482.567926	16972.295000	1666.761719	92.365807
19482.567926	16972.295000	1665.735352	136.023056
19482.567926	16972.295000	1664.708008	-55.375122
19482.567926	16972.295000	1663.680664	158.060272
19482.567926	16972.295000	1662.653320	131.816010
19482.567926	16972.295000	1661.625000	284.615234
19482.567926	16972.295000	1660.597656	302.479828
19482.567926	16972.295000	1659.569336	66.929810
19482.567926	16972.295000	1658.541016	138.231247
19482.567926	16972.295000	1657.512695	386.078003
19482.567926	16972.295000	1656.483398	287.642303
19482.567926	16972.295000	1655.455078	467.956085
19482.567926	16972.295000	1654.425781	165.130936
19482.567926	16972.295000	1653.396484	315.165497
19482.567926	16972.295000	1652.366211	356.009308
19482.567926	16972.295000	1651.336914	577.852661
19482.567926	16972.295000	1650.306641	330.840271
19482.567926	16972.295000	1649.276367	533.998108
19482.567926	16972.295000	1648.246094	516.692017
19482.567926	16972.295000	1647.215820	441.391266
19482.567926	16972.295000	1646.185547	593.336548
19482.567926	16972.295000	1645.154297	763.748840
19482.567926	16972.295000	1644.123047	632.757813
19482.567926	16972.295000	1643.091797	346.531982
19482.567926	16972.295000	1642.060547	570.128540
19482.567926	16972.295000	1641.028320	738.020325
19482.567926	16972.295000	1639.997070	725.183167
19482.567926	16972.295000	1638.964844	529.402039
19482.567926	16972.295000	1637.931641	479.531006
19482.567926	16972.295000	1636.899414	786.130005
19482.567926	16972.295000	1635.867188	544.121033
19482.567926	16972.295000	1634.833984	806.596008
19482.567926	16972.295000	1633.800781	566.958313
19482.567926	16972.295000	1632.767578	727.532654
19482.567926	16972.295000	1631.734375	964.345093
19482.567926	16972.295000	1630.700195	592.993286
19482.567926	16972.295000	1629.666016	889.814270
19482.567926	16972.295000	1628.631836	486.246033
19482.567926	16972.295000	1627.597656	584.234558
19482.567926	16972.295000	1626.563477	578.215942
19482.567926	16972.295000	1625.528320	950.989075
19482.567926	16972.295000	1624.493164	589.250427
19482.567926	16972.295000	1623.458008	784.078552
19482.567926	16972.295000	1622.422852	644.105042
19482.567926	16972.295000	1621.387695	598.807068
19482.567926	16972.295000	1620.351563	668.891602
19482.567926	16972.295000	1619.315430	759.707520
19482.567926	16972.295000	1618.279297	578.304199
19482.567926	16972.295000	1617.243164	844.361938
19482.567926	16972.295000	1616.207031	683.756348
19482.567926	16972.295000	1615.169922	945.071533
19482.567926	16972.295000	1614.132813	556.324158
19482.567926	16972.295000	1613.095703	695.427002
19482.567926	16972.295000	1612.058594	631.728333
19482.567926	16972.295000	1611.020508	957.339600
19482.567926	16972.295000	1609.983398	909.734985
19482.567926	16972.295000	1608.945313	772.349792
19482.567926	16972.295000	1607.907227	1065.515015
19482.567926	16972.295000	1606.868164	1082.363770
19482.567926	16972.295000	1605.830078	786.245361
19482.567926	16972.295000	1604.791016	881.374084
19482.567926	16972.295000	1603.751953	1096.088989
19482.567926	16972.295000	1602.712891	1043.935791
19482.567926	16972.295000	1601.673828	860.741028
19482.567926	16972.295000	1600.633789	827.055847
19482.567926	16972.295000	1599.594727	1041.635620
19482.567926	16972.295000	1598.554688	1217.065918
19482.567926	16972.295000	1597.513672	1220.111206
19482.567926	16972.295000	1596.473633	1243.841309
19482.567926	16972.295000	1595.433594	1306.613770
19482.567926	16972.295000	1594.392578	1155.815552
19482.567926	16972.295000	1593.351563	1342.574707
19482.567926	16972.295000	1592.310547	1462.704346
19482.567926	16972.295000	1591.268555	1406.087402
19482.567926	16972.295000	1590.227539	1500.942261
19482.567926	16972.295000	1589.185547	1412.245239
19482.567926	16972.295000	1588.143555	1013.962280
19482.567926	16972.295000	1587.100586	1512.466675
19482.567926	16972.295000	1586.058594	1274.837769
19482.567926	16972.295000	1585.015625	1367.397949
19482.567926	16972.295000	1583.972656	1372.849243
19482.567926	16972.295000	1582.929688	1364.567383
19482.567926	16972.295000	1581.886719	1191.359497
19482.567926	16972.295000	1580.843750	1222.087524
19482.567926	16972.295000	1579.799805	959.699341
19482.567926	16972.295000	1578.755859	944.705383
19482.567926	16972.295000	1577.711914	1044.192261
19482.567926	16972.295000	1576.666992	1242.072632
19482.567926	16972.295000	1575.623047	1330.062256
19482.567926	16972.295000	1574.578125	1212.137939
19482.567926	16972.295000	1573.533203	968.480164
19482.567926	16972.295000	1572.488281	901.029053
19482.567926	16972.295000	1571.443359	1217.748047
19482.567926	16972.295000	1570.397461	789.135864
19482.567926	16972.295000	1569.351563	959.525146
19482.567926	16972.295000	1568.305664	1031.613770
19482.567926	16972.295000	1567.259766	1160.816528
19482.567926	16972.295000	1566.213867	787.475647
19482.567926	16972.295000	1565.166992	1065.170044
19482.567926	16972.295000	1564.120117	1043.673706
19482.567926	16972.295000	1563.073242	951.444336
19482.567926	16972.295000	1562.026367	827.328064
19482.567926	16972.295000	1560.978516	1034.171509
19482.567926	16972.295000	1559.930664	1037.908813
19482.567926	16972.295000	1558.883789	877.442383
19482.567926	16972.295000	1557.834961	929.164490
19482.567926	16972.295000	1556.787109	554.510315
19482.567926	16972.295000	1555.739258	704.367432
19482.567926	16972.295000	1554.690430	560.174438
19482.567926	16972.295000	1553.641602	422.909973
19482.567926	16972.295000	1552.592773	837.094238
19482.567926	16972.295000	1551.542969	768.234131
19482.567926	16972.295000	1550.494141	740.432739
19482.567926	16972.295000	1549.444336	637.535461
19482.567926	16972.295000	1548.394531	614.395874
19482.567926	16972.295000	1547.344727	434.250824
19482.567926	16972.295000	1546.293945	565.978638
19482.567926	16972.295000	1545.244141	631.715088
19482.567926	16972.295000	1544.193359	797.554077
19482.567926	16972.295000	1543.142578	674.526672
19482.567926	16972.295000	1542.090820	637.995605
19482.567926	16972.295000	1541.040039	590.155029
19482.567926	16972.295000	1539.988281	556.009216
19482.567926	16972.295000	1538.936523	512.831299
19482.567926	16972.295000	1537.884766	733.274170
19482.567926	16972.295000	1536.833008	665.176208
19482.567926	16972.295000	1535.780273	567.623108
19482.567926	16972.295000	1534.727539	470.151428
19482.567926	16972.295000	1533.674805	549.847656
19482.567926	16972.295000	1532.622070	543.304016
19482.567926	16972.295000	1531.569336	623.046509
19482.567926	16972.295000	1530.515625	600.700012
19482.567926	16972.295000	1529.461914	430.957153
19482.567926	16972.295000	1528.408203	381.535217
19482.567926	16972.295000	1527.354492	354.858521
19482.567926	16972.295000	1526.299805	375.850983
19482.567926	16972.295000	1525.246094	347.017883
19482.567926	16972.295000	1524.191406	-82.883293
19482.567926	16972.295000	1523.136719	230.623001
19482.567926	16972.295000	1522.081055	165.740143
19482.567926	16972.295000	1521.026367	361.400726
19482.567926	16972.295000	1519.970703	43.001301
19482.567926	16972.295000	1518.915039	139.095322
19482.567926	16972.295000	1517.859375	45.066032
19482.567926	16972.295000	1516.802734	394.697144
19482.567926	16972.295000	1515.747070	135.586746
19482.567926	16972.295000	1514.690430	270.260803
19482.567926	16972.295000	1513.633789	0.077124
19482.567926	16972.295000	1512.577148	-12.151332
19482.567926	16972.295000	1511.519531	-33.363297
19482.567926	16972.295000	1510.461914	133.105530
19482.567926	16972.295000	1509.405273	46.448547
19482.567926	16972.295000	1508.346680	-40.117798
19482.567926	16972.295000	1507.289063	-106.260300
19482.567926	16972.295000	1506.231445	146.152710
19482.567926	16972.295000	1505.172852	111.731628
19482.567926	16972.295000	1504.114258	-202.576385
19482.567926	16972.295000	1503.055664	79.227112
19482.567926	16972.295000	1501.996094	-29.454363
19482.567926	16972.295000	1500.937500	-194.446167
19482.567926	16972.295000	1499.877930	-120.175964
19482.567926	16972.295000	1498.818359	-21.064102
19482.567926	16972.295000	1497.757813	69.049019
19482.567926	16972.295000	1496.698242	57.732082
19482.567926	16972.295000	1495.637695	-156.391357
19482.567926	16972.295000	1494.577148	-334.308289
19482.567926	16972.295000	1493.516602	-101.994926
19482.567926	16972.295000	1492.456055	-43.177502
19482.567926	16972.295000	1491.394531	-202.799606
19482.567926	16972.295000	1490.333008	126.376099
19482.567926	16972.295000	1489.271484	-73.610985
19482.567926	16972.295000	1488.209961	-343.237091
19482.567926	16972.295000	1487.148438	21.974623
19482.567926	16972.295000	1486.085938	-337.432800
19482.567926	16972.295000	1485.023438	-37.474327
19482.567926	16972.295000	1483.960938	-119.938690
19482.567926	16972.295000	1482.898438	112.529854
19482.567926	16972.295000	1481.834961	99.910088
19482.567926	16972.295000	1480.772461	269.432861
19482.567926	16972.295000	1479.708984	-1.516767
19482.567926	16972.295000	1478.644531	-20.637564
19482.567926	16972.295000	1477.581055	-102.548668
19482.567926	16972.295000	1476.517578	-74.374733
19482.567926	16972.295000	1475.453125	-205.460846
19482.567926	16972.295000	1474.388672	-60.262085
19482.567926	16972.295000	1473.323242	-97.060921
19482.567926	16972.295000	1472.258789	-342.211548
19482.567926	16972.295000	1471.193359	186.636917
19482.567926	16972.295000	1470.127930	282.499817
19482.567926	16972.295000	1469.062500	-139.605072
19482.567926	16972.295000	1467.997070	185.013885
19482.567926	16972.295000	1466.930664	278.756195
19482.567926	16972.295000	1465.865234	267.079376
19482.567926	16972.295000	1464.798828	295.971710
19482.567926	16972.295000	1463.731445	105.916039
19482.567926	16972.295000	1462.665039	383.551056
19482.567926	16972.295000	1461.597656	125.867447
19482.567926	16972.295000	1460.530273	224.397491
19482.567926	16972.295000	1459.462891	235.908905
19482.567926	16972.295000	1458.395508	234.397964
19482.567926	16972.295000	1457.327148	312.661194
19482.567926	16972.295000	1456.259766	91.531799
19482.567926	16972.295000	1455.191406	129.632050
19482.567926	16972.295000	1454.123047	239.937149
19482.567926	16972.295000	1453.053711	39.775162
19482.567926	16972.295000	1451.985352	56.047047
19482.567926	16972.295000	1450.916016	64.344376
19482.567926	16972.295000	1449.846680	140.204544
19482.567926	16972.295000	1448.776367	259.041809
19482.567926	16972.295000	1447.707031	75.959656
19482.567926	16972.295000	1446.636719	11.044333
19482.567926	16972.295000	1445.566406	228.612244
19482.567926	16972.295000	1444.496094	159.116592
19482.567926	16972.295000	1443.425781	35.500782
19482.567926	16972.295000	1442.354492	22.157927
19482.567926	16972.295000	1441.283203	-29.550943
19482.567926	16972.295000	1440.211914	-57.723442
19482.567926	16972.295000	1439.140625	266.251801
19482.567926	16972.295000	1438.069336	207.613052
19482.567926	16972.295000	1436.997070	107.831909
19482.567926	16972.295000	1435.924805	126.854942
19482.567926	16972.295000	1434.852539	11.566926
19482.567926	16972.295000	1433.780273	-29.764563
19482.567926	16972.295000	1432.707031	-57.497807
19482.567926	16972.295000	1431.633789	192.778320
19482.567926	16972.295000	1430.560547	115.284531
19482.567926	16972.295000	1429.487305	182.686783
19482.567926	16972.295000	1428.413086	104.252052
19482.567926	16972.295000	1427.339844	98.807709
19482.567926	16972.295000	1426.265625	336.274475
19482.567926	16972.295000	1425.191406	293.416565
19482.567926	16972.295000	1424.116211	103.243385
19482.567926	16972.295000	1423.041992	318.443024
19482.567926	16972.295000	1421.966797	380.298096
19482.567926	16972.295000	1420.891602	128.681854
19482.567926	16972.295000	1419.816406	260.404785
19482.567926	16972.295000	1418.740234	278.132813
19482.567926	16972.295000	1417.665039	155.996719
19482.567926	16972.295000	1416.588867	293.473114
19482.567926	16972.295000	1415.512695	283.827454
19482.567926	16972.295000	1414.435547	220.647827
19482.567926	16972.295000	1413.359375	107.777321
19482.567926	16972.295000	1412.282227	274.685211
19482.567926	16972.295000	1411.205078	368.816406
19482.567926	16972.295000	1410.127930	280.647308
19482.567926	16972.295000	1409.049805	350.879578
19482.567926	16972.295000	1407.972656	321.925873
19482.567926	16972.295000	1406.894531	285.640961
19482.567926	16972.295000	1405.816406	315.920471
19482.567926	16972.295000	1404.737305	390.304230
19482.567926	16972.295000	1403.659180	374.571533
19482.567926	16972.295000	1402.580078	322.030731
19482.567926	16972.295000	1401.500977	458.151398
19482.567926	16972.295000	1400.421875	533.253662
19482.567926	16972.295000	1399.341797	479.197968
19482.567926	16972.295000	1398.262695	572.274597
19482.567926	16972.295000	1397.182617	603.142212
19482.567926	16972.295000	1396.102539	538.084412
19482.567926	16972.295000	1395.021484	463.852509
19482.567926	16972.295000	1393.941406	346.796814
19482.567926	16972.295000	1392.860352	580.861633
19482.567926	16972.295000	1391.779297	532.416199
19482.567926	16972.295000	1390.698242	357.657623
19482.567926	16972.295000	1389.616211	509.327667
19482.567926	16972.295000	1388.535156	262.158783
19482.567926	16972.295000	1387.453125	338.705231
19482.567926	16972.295000	1386.371094	310.175812
19482.567926	16972.295000	1385.288086	175.240311
19482.567926	16972.295000	1384.206055	244.421677
19482.567926	16972.295000	1383.123047	171.733597
19482.567926	16972.295000	1382.040039	-67.843880
19482.567926	16972.295000	1380.957031	524.132263
19482.567926	16972.295000	1379.873047	224.054825
19482.567926	16972.295000	1378.789063	150.448456
19482.567926	16972.295000	1377.705078	424.660522
19482.567926	16972.295000	1376.621094	346.647736
19482.567926	16972.295000	1375.537109	411.942932
19482.567926	16972.295000	1374.452148	411.253601
19482.567926	16972.295000	1373.367188	538.901001
19482.567926	16972.295000	1372.282227	463.089844
19482.567926	16972.295000	1371.197266	476.628387
19482.567926	16972.295000	1370.112305	319.742798
19482.567926	16972.295000	1369.026367	552.631104
19482.567926	16972.295000	1367.940430	524.293823
19482.567926	16972.295000	1366.854492	492.879120
19482.567926	16972.295000	1365.767578	365.729584
19482.567926	16972.295000	1364.681641	405.555328
19482.567926	16972.295000	1363.594727	473.626068
19482.567926	16972.295000	1362.507813	400.321014
19482.567926	16972.295000	1361.419922	403.076752
19482.567926	16972.295000	1360.333008	332.626343
19482.567926	16972.295000	1359.245117	306.696991
19482.567926	16972.295000	1358.157227	495.288727
19482.567926	16972.295000	1357.069336	293.957794
19482.567926	16972.295000	1355.981445	268.031860
19482.567926	16972.295000	1354.892578	385.541565
19482.567926	16972.295000	1353.803711	298.227051
19482.567926	16972.295000	1352.714844	215.703018
19482.567926	16972.295000	1351.625000	443.502258
19482.567926	16972.295000	1350.536133	257.759125
19482.567926	16972.295000	1349.446289	147.631454
19482.567926	16972.295000	1348.356445	89.450760
19482.567926	16972.295000	1347.266602	329.679474
19482.567926	16972.295000	1346.175781	141.338913
19482.567926	16972.295000	1345.085938	178.775726
19482.567926	16972.295000	1343.995117	146.611145
19482.567926	16972.295000	1342.903320	98.786209
19482.567926	16972.295000	1341.812500	82.418808
19482.567926	16972.295000	1340.720703	245.159714
19482.567926	16972.295000	1339.629883	145.650024
19482.567926	16972.295000	1338.538086	136.737976
19482.567926	16972.295000	1337.445313	182.735703
19482.567926	16972.295000	1336.353516	14.770327
19482.567926	16972.295000	1335.260742	136.487228
19482.567926	16972.295000	1334.167969	32.151848
19482.567926	16972.295000	1333.075195	189.116180
19482.567926	16972.295000	1331.981445	266.502686
19482.567926	16972.295000	1330.888672	268.056152
19482.567926	16972.295000	1329.794922	159.559113
19482.567926	16972.295000	1328.701172	295.129303
19482.567926	16972.295000	1327.606445	266.298462
19482.567926	16972.295000	1326.512695	112.671432
19482.567926	16972.295000	1325.417969	154.644333
19482.567926	16972.295000	1324.323242	350.727295
19482.567926	16972.295000	1323.227539	398.018616
19482.567926	16972.295000	1322.132813	172.758514
19482.567926	16972.295000	1321.037109	377.895203
19482.567926	16972.295000	1319.941406	546.873169
19482.567926	16972.295000	1318.845703	649.106934
19482.567926	16972.295000	1317.750000	474.984528
19482.567926	16972.295000	1316.653320	288.085999
19482.567926	16972.295000	1315.556641	515.299011
19482.567926	16972.295000	1314.459961	366.911041
19482.567926	16972.295000	1313.363281	252.980164
19482.567926	16972.295000	1312.265625	259.308167
19482.567926	16972.295000	1311.167969	396.755219
19482.567926	16972.295000	1310.070313	368.131287
19482.567926	16972.295000	1308.972656	395.271698
19482.567926	16972.295000	1307.874023	305.661987
19482.567926	16972.295000	1306.776367	273.584259
19482.567926	16972.295000	1305.677734	191.884171
19482.567926	16972.295000	1304.579102	494.092621
19482.567926	16972.295000	1303.479492	560.104431
19482.567926	16972.295000	1302.380859	371.378082
19482.567926	16972.295000	1301.281250	499.268433
19482.567926	16972.295000	1300.181641	411.452637
19482.567926	16972.295000	1299.081055	554.494568
19482.567926	16972.295000	1297.981445	519.996094
19482.567926	16972.295000	1296.880859	459.672577
19482.567926	16972.295000	1295.780273	355.560425
19482.567926	16972.295000	1294.679688	632.563293
19482.567926	16972.295000	1293.578125	222.259933
19482.567926	16972.295000	1292.476563	530.518677
19482.567926	16972.295000	1291.375000	575.159180
19482.567926	16972.295000	1290.273438	354.438660
19482.567926	16972.295000	1289.171875	472.482452
19482.567926	16972.295000	1288.069336	364.957306
19482.567926	16972.295000	1286.966797	400.601501
19482.567926	16972.295000	1285.864258	553.928101
19482.567926	16972.295000	1284.761719	598.866211
19482.567926	16972.295000	1283.658203	539.437012
19482.567926	16972.295000	1282.554688	426.097595
19482.567926	16972.295000	1281.451172	369.042572
19482.567926	16972.295000	1280.347656	364.691254
19482.567926	16972.295000	1279.244141	357.325226
19482.567926	16972.295000	1278.139648	282.964874
19482.567926	16972.295000	1277.035156	189.292709
19482.567926	16972.295000	1275.930664	-26.843304
19482.567926	16972.295000	1274.825195	102.661285
19482.567926	16972.295000	1273.720703	90.484337
19482.567926	16972.295000	1272.615234	183.150864
19482.567926	16972.295000	1271.508789	-55.273338
19482.567926	16972.295000	1270.403320	19.558453
19482.567926	16972.295000	1269.297852	189.363998
19482.567926	16972.295000	1268.191406	107.484177
19482.567926	16972.295000	1267.084961	-55.567665
19482.567926	16972.295000	1265.977539	90.962456
19482.567926	16972.295000	1264.871094	-33.945114
19482.567926	16972.295000	1263.763672	5.736815
19482.567926	16972.295000	1262.656250	-154.934525
19482.567926	16972.295000	1261.548828	-95.618958
19482.567926	16972.295000	1260.440430	10.201247
19482.567926	16972.295000	1259.333008	24.366659
19482.567926	16972.295000	1258.224609	-79.136429
19482.567926	16972.295000	1257.115234	41.726536
19482.567926	16972.295000	1256.006836	-53.428539
19482.567926	16972.295000	1254.897461	82.306564
19482.567926	16972.295000	1253.788086	-13.575456
19482.567926	16972.295000	1252.678711	-34.353558
19482.567926	16972.295000	1251.569336	17.652290
19482.567926	16972.295000	1250.458984	94.841728
19482.567926	16972.295000	1249.349609	-48.220211
19482.567926	16972.295000	1248.239258	-0.786334
19482.567926	16972.295000	1247.127930	206.545090
19482.567926	16972.295000	1246.017578	98.313667
19482.567926	16972.295000	1244.906250	-39.358372
19482.567926	16972.295000	1243.794922	67.630989
19482.567926	16972.295000	1242.683594	21.817249
19482.567926	16972.295000	1241.571289	-183.022949
19482.567926	16972.295000	1240.459961	-70.440842
19482.567926	16972.295000	1239.347656	63.209267
19482.567926	16972.295000	1238.234375	-119.250977
19482.567926	16972.295000	1237.122070	75.827400
19482.567926	16972.295000	1236.008789	-12.143305
19482.567926	16972.295000	1234.896484	20.897020
19482.567926	16972.295000	1233.782227	-24.084743
19482.567926	16972.295000	1232.668945	-201.453186
19482.567926	16972.295000	1231.555664	-127.969727
19482.567926	16972.295000	1230.441406	-164.417328
19482.567926	16972.295000	1229.327148	-92.010361
19482.567926	16972.295000	1228.211914	-152.339371
19482.567926	16972.295000	1227.097656	-55.766056
19482.567926	16972.295000	1225.982422	-1.481692
19482.567926	16972.295000	1224.867188	-100.549248
19482.567926	16972.295000	1223.751953	-305.687103
19482.567926	16972.295000	1222.635742	-62.613731
19482.567926	16972.295000	1221.520508	-192.287476
19482.567926	16972.295000	1220.404297	-54.418179
19482.567926	16972.295000	1219.287109	-50.772095
19482.567926	16972.295000	1218.170898	-232.601395
19482.567926	16972.295000	1217.053711	-116.932426
19482.567926	16972.295000	1215.936523	-181.539978
19482.567926	16972.295000	1214.819336	-69.137520
19482.567926	16972.295000	1213.702148	15.136695
19482.567926	16972.295000	1212.583984	-252.688843
19482.567926	16972.295000	1211.465820	-54.039291
19482.567926	16972.295000	1210.347656	-166.823395
19482.567926	16972.295000	1209.229492	-33.584682
19482.567926	16972.295000	1208.110352	-51.291767
19482.567926	16972.295000	1206.992188	-4.842083
19482.567926	16972.295000	1205.873047	-197.260208
19482.567926	16972.295000	1204.752930	-210.578964
19482.567926	16972.295000	1203.633789	-142.818726
19482.567926	16972.295000	1202.513672	59.515385
19482.567926	16972.295000	1201.393555	-35.205746
19482.567926	16972.295000	1200.273438	-70.144737
19482.567926	16972.295000	1199.152344	-49.564262
19482.567926	16972.295000	1198.032227	-84.106583
19482.567926	16972.295000	1196.911133	-55.255497
19482.567926	16972.295000	1195.790039	-119.808945
19482.567926	16972.295000	1194.667969	43.599255
19482.567926	16972.295000	1193.545898	-23.698902
19482.567926	16972.295000	1192.424805	-50.607674
19482.567926	16972.295000	1191.301758	9.287817
19482.567926	16972.295000	1190.179688	-91.307190
19482.567926	16972.295000	1189.056641	-36.296677
19482.567926	16972.295000	1187.933594	-48.797745
19482.567926	16972.295000	1186.810547	30.274090
19482.567926	16972.295000	1185.687500	41.772846
19482.567926	16972.295000	1184.563477	41.830181
19482.567926	16972.295000	1183.440430	115.065155
19482.567926	16972.295000	1182.316406	195.508118
19482.567926	16972.295000	1181.191406	110.681999
19482.567926	16972.295000	1180.067383	-25.237352
19482.567926	16972.295000	1178.942383	-56.128887
19482.567926	16972.295000	1177.817383	55.127834
19482.567926	16972.295000	1176.692383	-142.494965
19482.567926	16972.295000	1175.566406	82.335381
19482.567926	16972.295000	1174.440430	85.255013
19482.567926	16972.295000	1173.314453	15.278177
19482.567926	16972.295000	1172.188477	-52.128757
19482.567926	16972.295000	1171.062500	-37.476936
19482.567926	16972.295000	1169.935547	-42.393784
19482.567926	16972.295000	1168.808594	-75.364067
19482.567926	16972.295000	1167.681641	-56.448742
19482.567926	16972.295000	1166.553711	-16.759661
19482.567926	16972.295000	1165.426758	74.728439
19482.567926	16972.295000	1164.298828	-151.395294
19482.567926	16972.295000	1163.170898	44.057365
19482.567926	16972.295000	1162.041992	6.167830
19482.567926	16972.295000	1160.914063	11.594436
19482.567926	16972.295000	1159.785156	-17.186203
19482.567926	16972.295000	1158.656250	-65.981796
19482.567926	16972.295000	1157.526367	-35.217880
19482.567926	16972.295000	1156.397461	84.501450
19482.567926	16972.295000	1155.267578	-107.212646
19482.567926	16972.295000	1154.137695	101.353745
19482.567926	16972.295000	1153.006836	103.481033
19482.567926	16972.295000	1151.876953	15.544898
19482.567926	16972.295000	1150.746094	-18.458000
19482.567926	16972.295000	1149.615234	-20.157337
19482.567926	16972.295000	1148.484375	141.447556
19482.567926	16972.295000	1147.352539	142.887924
19482.567926	16972.295000	1146.220703	8.562511
19482.567926	16972.295000	1145.088867	-8.860008
19482.567926	16972.295000	1143.957031	22.067341
19482.567926	16972.295000	1142.825195	-108.832474
19482.567926	16972.295000	1141.692383	-61.489307
19482.567926	16972.295000	1140.559570	65.185265
19482.567926	16972.295000	1139.426758	-113.668404
19482.567926	16972.295000	1138.292969	-8.865983
19482.567926	16972.295000	1137.159180	56.440830
19482.567926	16972.295000	1136.025391	-8.136880
19482.567926	16972.295000	1134.891602	66.144791
19482.567926	16972.295000	1133.757813	-71.862831
19482.567926	16972.295000	1132.623047	-53.512688
19482.567926	16972.295000	1131.488281	157.113068
19482.567926	16972.295000	1130.353516	134.999588
19482.567926	16972.295000	1129.217773	44.352406
19482.567926	16972.295000	1128.083008	164.641617
19482.567926	16972.295000	1126.947266	188.821442
19482.567926	16972.295000	1125.811523	101.296318
19482.567926	16972.295000	1124.674805	155.359528
19482.567926	16972.295000	1123.539063	244.425842
19482.567926	16972.295000	1122.402344	27.345680
19482.567926	16972.295000	1121.265625	26.865442
19482.567926	16972.295000	1120.127930	92.571259
19482.567926	16972.295000	1118.990234	290.171509
19482.567926	16972.295000	1117.853516	26.820086
19482.567926	16972.295000	1116.714844	99.188568
19482.567926	16972.295000	1115.577148	83.904869
19482.567926	16972.295000	1114.439453	-73.155846
19482.567926	16972.295000	1113.300781	129.798416
19482.567926	16972.295000	1112.162109	-12.277601
19482.567926	16972.295000	1111.022461	101.439278
19482.567926	16972.295000	1109.883789	-88.908607
19482.567926	16972.295000	1108.744141	72.053696
19482.567926	16972.295000	1107.604492	-73.992325
19482.567926	16972.295000	1106.463867	-51.765617
19482.567926	16972.295000	1105.324219	-129.701630
19482.567926	16972.295000	1104.183594	152.957123
19482.567926	16972.295000	1103.042969	62.199902
19482.567926	16972.295000	1101.902344	76.535454
19482.567926	16972.295000	1100.760742	-12.355940
19482.567926	16972.295000	1099.619141	31.836447
19482.567926	16972.295000	1098.477539	91.159439
19482.567926	16972.295000	1097.335938	138.333694
19482.567926	16972.295000	1096.193359	32.858700
19482.567926	16972.295000	1095.051758	317.924805
19482.567926	16972.295000	1093.909180	85.102234
19482.567926	16972.295000	1092.765625	103.197510
19482.567926	16972.295000	1091.623047	84.760628
19482.567926	16972.295000	1090.479492	310.955322
19482.567926	16972.295000	1089.335938	176.865265
19482.567926	16972.295000	1088.192383	259.292175
19482.567926	16972.295000	1087.047852	200.223511
19482.567926	16972.295000	1085.903320	228.158112
19482.567926	16972.295000	1084.758789	151.299088
19482.567926	16972.295000	1083.614258	239.889633
19482.567926	16972.295000	1082.469727	200.760864
19482.567926	16972.295000	1081.324219	203.449829
19482.567926	16972.295000	1080.178711	142.559113
19482.567926	16972.295000	1079.033203	122.699104
19482.567926	16972.295000	1077.886719	106.439987
19482.567926	16972.295000	1076.740234	129.088562
19482.567926	16972.295000	1075.593750	204.229843
19482.567926	16972.295000	1074.447266	189.834610
19482.567926	16972.295000	1073.300781	68.912697
19482.567926	16972.295000	1072.153320	36.888618
19482.567926	16972.295000	1071.005859	189.321350
19482.567926	16972.295000	1069.858398	105.627953
19482.567926	16972.295000	1068.709961	317.536560
19482.567926	16972.295000	1067.561523	175.738129
19482.567926	16972.295000	1066.413086	303.847961
19482.567926	16972.295000	1065.264648	195.578140
19482.567926	16972.295000	1064.116211	233.659195
19482.567926	16972.295000	1062.966797	193.225342
19482.567926	16972.295000	1061.817383	367.849579
19482.567926	16972.295000	1060.667969	172.702942
19482.567926	16972.295000	1059.517578	341.018158
19482.567926	16972.295000	1058.368164	199.282303
19482.567926	16972.295000	1057.217773	164.949890
19482.567926	16972.295000	1056.067383	236.150818
19482.567926	16972.295000	1054.916016	247.591293
19482.567926	16972.295000	1053.764648	53.232323
19482.567926	16972.295000	1052.613281	304.165894
19482.567926	16972.295000	1051.461914	196.258331
19482.567926	16972.295000	1050.310547	297.564575
19482.567926	16972.295000	1049.158203	281.253479
19482.567926	16972.295000	1048.005859	308.193573
19482.567926	16972.295000	1046.853516	124.513893
19482.567926	16972.295000	1045.700195	304.825684
19482.567926	16972.295000	1044.547852	256.661957
19482.567926	16972.295000	1043.394531	283.210724
19482.567926	16972.295000	1042.240234	139.997437
19482.567926	16972.295000	1041.086914	343.887390
19482.567926	16972.295000	1039.932617	372.419983
19482.567926	16972.295000	1038.778320	338.095825
19482.567926	16972.295000	1037.624023	107.895615
19482.567926	16972.295000	1036.469727	321.132080
19482.567926	16972.295000	1035.314453	610.404419
19482.567926	16972.295000	1034.159180	579.760254
19482.567926	16972.295000	1033.003906	696.145203
19482.567926	16972.295000	1031.847656	967.449402
19482.567926	16972.295000	1030.692383	938.618835
19482.567926	16972.295000	1029.536133	836.909058
19482.567926	16972.295000	1028.378906	795.553589
19482.567926	16972.295000	1027.222656	862.915771
19482.567926	16972.295000	1026.065430	606.213806
19482.567926	16972.295000	1024.908203	600.528870
19482.567926	16972.295000	1023.750977	107.505760
19482.567926	16972.295000	1022.593750	252.442612
19482.567926	16972.295000	1021.435547	375.960693
19482.567926	16972.295000	1020.277344	228.607178
19482.567926	16972.295000	1019.119141	188.031769
19482.567926	16972.295000	1017.959961	-37.558441
19482.567926	16972.295000	1016.800781	230.894592
19482.567926	16972.295000	1015.641602	287.791534
19482.567926	16972.295000	1014.482422	244.544830
19482.567926	16972.295000	1013.323242	146.472107
19482.567926	16972.295000	1012.163086	99.931694
19482.567926	16972.295000	1011.002930	221.641983
19482.567926	16972.295000	1009.842773	65.375725
19482.567926	16972.295000	1008.681641	-40.752007
19482.567926	16972.295000	1007.520508	35.401096
19482.567926	16972.295000	1006.359375	167.362686
19482.567926	16972.295000	1005.198242	142.767838
19482.567926	16972.295000	1004.037109	115.304352
19482.567926	16972.295000	1002.875000	24.795181
19482.567926	16972.295000	1001.712891	-65.233421
19482.567926	16972.295000	1000.550781	118.012810
19482.567926	16972.295000	999.387695	-1.452837
19482.567926	16972.295000	998.224609	138.275864
19482.567926	16972.295000	997.061523	-64.443314
19482.567926	16972.295000	995.898438	-85.736053
19482.567926	16972.295000	994.734375	-1.289361
19482.567926	16972.295000	993.571289	61.897732
19482.567926	16972.295000	992.407227	65.827782
19482.567926	16972.295000	991.242188	-77.330025
19482.567926	16972.295000	990.078125	46.246754
19482.567926	16972.295000	988.913086	177.254837
19482.567926	16972.295000	987.748047	-111.199051
19482.567926	16972.295000	986.583008	26.707682
19482.567926	16972.295000	985.416992	28.592487
19482.567926	16972.295000	984.250977	-48.410492
19482.567926	16972.295000	983.084961	187.488144
19482.567926	16972.295000	981.918945	15.402011
19482.567926	16972.295000	980.751953	124.135963
19482.567926	16972.295000	979.584961	-108.594688
19482.567926	16972.295000	978.417969	-49.587467
19482.567926	16972.295000	977.250977	-161.429932
19482.567926	16972.295000	976.083008	-56.292881
19482.567926	16972.295000	974.915039	191.737305
19482.567926	16972.295000	973.747070	-37.727707
19482.567926	16972.295000	972.579102	-131.969788
19482.567926	16972.295000	971.410156	34.244423
19482.567926	16972.295000	970.242188	-156.893600
19482.567926	16972.295000	969.072266	53.601665
19482.567926	16972.295000	967.903320	-0.565176
19482.567926	16972.295000	966.733398	-158.332123
19482.567926	16972.295000	965.563477	-78.951340
19482.567926	16972.295000	964.393555	-32.883453
19482.567926	16972.295000	963.223633	159.423645
19482.567926	16972.295000	962.052734	104.556664
19482.567926	16972.295000	960.881836	25.813309
19482.567926	16972.295000	959.710938	24.661688
19482.567926	16972.295000	958.540039	22.652914
19482.567926	16972.295000	957.368164	-58.176186
19482.567926	16972.295000	956.196289	165.126465
19482.567926	16972.295000	955.024414	-78.908531
19482.567926	16972.295000	953.851563	111.138405
19482.567926	16972.295000	952.679688	-246.166626
19482.567926	16972.295000	951.506836	109.426315
19482.567926	16972.295000	950.333984	116.056908
19482.567926	16972.295000	949.160156	-16.817280
19482.567926	16972.295000	947.986328	-44.256733
19482.567926	16972.295000	946.812500	-116.762115
19482.567926	16972.295000	945.638672	-172.448334
19482.567926	16972.295000	944.464844	-39.849266
19482.567926	16972.295000	943.290039	-130.800385
19482.567926	16972.295000	942.115234	105.338081
19482.567926	16972.295000	940.940430	80.379921
19482.567926	16972.295000	939.764648	-52.483051
19482.567926	16972.295000	938.588867	62.994450
19482.567926	16972.295000	937.413086	211.207260
19482.567926	16972.295000	936.237305	-103.515236
19482.567926	16972.295000	935.060547	84.051926
19482.567926	16972.295000	933.883789	67.722435
19482.567926	16972.295000	932.707031	-75.746582
19482.567926	16972.295000	931.530273	133.656876
19482.567926	16972.295000	930.352539	189.636215
19482.567926	16972.295000	929.175781	96.419258
19482.567926	16972.295000	927.998047	7.666401
19482.567926	16972.295000	926.819336	-159.959045
19482.567926	16972.295000	925.641602	-82.177399
19482.567926	16972.295000	924.462891	37.230221
19482.567926	16972.295000	923.284180	-88.731956
19482.567926	16972.295000	922.104492	-10.988580
19482.567926	16972.295000	920.924805	7.605218
19482.567926	16972.295000	919.746094	13.339870
19482.567926	16972.295000	919.551758	103.738396
19482.567926	16972.295000	918.386719	39.040562
19482.567926	16972.295000	917.220703	123.157013
19482.567926	16972.295000	916.054688	-144.996841
19482.567926	16972.295000	914.887695	-91.518608
19482.567926	16972.295000	913.721680	-46.825676
19482.567926	16972.295000	912.554688	2.215585
19482.567926	16972.295000	911.387695	-69.002823
19482.567926	16972.295000	910.220703	-190.468964
19482.567926	16972.295000	909.052734	-233.229736
19482.567926	16972.295000	907.885742	-35.680965
19482.567926	16972.295000	906.717773	54.757145
19482.567926	16972.295000	905.548828	-184.590042
19482.567926	16972.295000	904.380859	12.801634
19482.567926	16972.295000	903.211914	105.332199
19482.567926	16972.295000	902.042969	51.594879
19482.567926	16972.295000	900.874023	41.507820
19482.567926	16972.295000	899.704102	-171.458405
19482.567926	16972.295000	898.535156	136.920609
19482.567926	16972.295000	897.365234	89.729355
19482.567926	16972.295000	896.194336	-96.978310
19482.567926	16972.295000	895.024414	-100.525795
19482.567926	16972.295000	893.853516	-53.952686
19482.567926	16972.295000	892.682617	-22.657921
19482.567926	16972.295000	891.511719	71.787354
19482.567926	16972.295000	890.340820	-55.963406
19482.567926	16972.295000	889.168945	55.859070
19482.567926	16972.295000	887.997070	-119.743736
19482.567926	16972.295000	886.825195	-155.979721
19482.567926	16972.295000	885.653320	103.750832
19482.567926	16972.295000	884.480469	265.463257
19482.567926	16972.295000	883.307617	46.429535
19482.567926	16972.295000	882.134766	121.079453
19482.567926	16972.295000	880.961914	241.354507
19482.567926	16972.295000	879.788086	96.355911
19482.567926	16972.295000	878.614258	40.521667
19482.567926	16972.295000	877.440430	-106.564156
19482.567926	16972.295000	876.266602	-14.609497
19482.567926	16972.295000	875.091797	-105.157730
19482.567926	16972.295000	873.916992	121.396149
19482.567926	16972.295000	872.742188	141.578568
19482.567926	16972.295000	871.567383	-33.628994
19482.567926	16972.295000	870.391602	10.441972
19482.567926	16972.295000	869.215820	143.455063
19482.567926	16972.295000	868.040039	120.204262
19482.567926	16972.295000	866.864258	162.026505
19482.567926	16972.295000	865.687500	121.422256
19482.567926	16972.295000	864.510742	141.536575
19482.567926	16972.295000	863.333984	18.566746
19482.567926	16972.295000	862.157227	27.843813
19482.567926	16972.295000	860.979492	-168.734344
19482.567926	16972.295000	859.802734	42.038452
19482.567926	16972.295000	858.625000	-72.169991
19482.567926	16972.295000	857.446289	-21.756195
19482.567926	16972.295000	856.268555	-198.705383
19482.567926	16972.295000	855.089844	1.059388
19482.567926	16972.295000	853.911133	70.884354
19482.567926	16972.295000	852.731445	-4.292662
19482.567926	16972.295000	851.552734	-51.325981
19482.567926	16972.295000	850.373047	-148.088943
19482.567926	16972.295000	849.193359	23.317427
19482.567926	16972.295000	848.013672	23.852041
19482.567926	16972.295000	846.833008	33.029812
19482.567926	16972.295000	845.652344	65.967491
19482.567926	16972.295000	844.471680	-145.265671
19482.567926	16972.295000	843.291016	30.251108
19482.567926	16972.295000	842.110352	-232.736160
19482.567926	16972.295000	840.928711	-48.647202
19482.567926	16972.295000	839.747070	3.667939
19482.567926	16972.295000	838.564453	-198.732956
19482.567926	16972.295000	837.382813	-107.581062
19482.567926	16972.295000	836.200195	-225.748993
19482.567926	16972.295000	835.017578	-173.469589
19482.567926	16972.295000	833.834961	59.936680
19482.567926	16972.295000	832.651367	-19.404099
19482.567926	16972.295000	831.467773	-208.663254
19482.567926	16972.295000	830.284180	-22.834101
19482.567926	16972.295000	829.100586	-112.909981
19482.567926	16972.295000	827.916992	14.635301
19482.567926	16972.295000	826.732422	-10.807603
19482.567926	16972.295000	825.547852	-75.013519
19482.567926	16972.295000	824.363281	-33.703335
19482.567926	16972.295000	823.177734	-229.204224
19482.567926	16972.295000	821.992188	-28.634752
19482.567926	16972.295000	820.806641	-120.793953
19482.567926	16972.295000	819.621094	167.852127
19482.567926	16972.295000	818.434570	-68.435829
19482.567926	16972.295000	817.249023	-3.584134
19482.567926	16972.295000	816.062500	18.233423
19482.567926	16972.295000	814.875000	-97.534210
19482.567926	16972.295000	813.688477	-62.835735
19482.567926	16972.295000	812.500977	-60.389957
19482.567926	16972.295000	811.313477	85.970734
19482.567926	16972.295000	810.125977	-23.323254
19482.567926	16972.295000	808.937500	155.157547
19482.567926	16972.295000	807.749023	35.137409
19482.567926	16972.295000	806.560547	-9.722815
19482.567926	16972.295000	805.372070	-15.950748
19482.567926	16972.295000	804.182617	-198.119919
19482.567926	16972.295000	802.994141	-45.599773
19482.567926	16972.295000	801.803711	46.800766
19482.567926	16972.295000	800.614258	57.663464
19482.567926	16972.295000	799.424805	-57.973907
19482.567926	16972.295000	798.234375	-29.975014
19482.567926	16972.295000	797.043945	19.424522
19482.567926	16972.295000	795.852539	-70.466148
19482.567926	16972.295000	794.662109	145.962219
19482.567926	16972.295000	793.470703	-61.736252
19482.567926	16972.295000	792.279297	107.465569
19482.567926	16972.295000	791.087891	79.639595
19482.567926	16972.295000	789.895508	-172.909988
19482.567926	16972.295000	788.703125	34.674015
19482.567926	16972.295000	787.510742	-78.744461
19482.567926	16972.295000	786.318359	-121.552505
19482.567926	16972.295000	785.125000	85.836197
19482.567926	16972.295000	783.931641	30.148062
19482.567926	16972.295000	782.738281	-78.976662
19482.567926	16972.295000	781.544922	143.171631
19482.567926	16972.295000	780.350586	29.757280
19482.567926	16972.295000	779.156250	-17.410238
19482.567926	16972.295000	777.961914	-11.185796
19482.567926	16972.295000	776.767578	-94.670364
19482.567926	16972.295000	775.572266	-0.944793
19482.567926	16972.295000	774.376953	-80.171234
19482.567926	16972.295000	773.181641	-20.678205
19482.567926	16972.295000	771.986328	190.246796
19482.567926	16972.295000	770.790039	106.695663
19482.567926	16972.295000	769.593750	97.796364
19482.567926	16972.295000	768.397461	31.306299
19482.567926	16972.295000	767.201172	35.165501
19482.567926	16972.295000	766.003906	98.677689
19482.567926	16972.295000	764.806641	-31.773239
19482.567926	16972.295000	763.609375	110.498817
19482.567926	16972.295000	762.412109	176.004196
19482.567926	16972.295000	761.213867	264.882446
19482.567926	16972.295000	760.015625	113.105461
19482.567926	16972.295000	758.817383	138.042908
19482.567926	16972.295000	757.618164	94.840134
19482.567926	16972.295000	756.419922	-86.683495
19482.567926	16972.295000	755.220703	144.544342
19482.567926	16972.295000	754.021484	92.769073
19482.567926	16972.295000	752.821289	332.310730
19482.567926	16972.295000	751.621094	82.738991
19482.567926	16972.295000	750.420898	135.069061
19482.567926	16972.295000	749.220703	-54.919220
19482.567926	16972.295000	748.020508	1.601860
19482.567926	16972.295000	746.819336	72.938522
19482.567926	16972.295000	745.618164	44.393978
19482.567926	16972.295000	744.416992	60.416046
19482.567926	16972.295000	743.214844	-70.080727
19482.567926	16972.295000	742.012695	81.730385
19482.567926	16972.295000	740.810547	178.268875
19482.567926	16972.295000	739.608398	143.192551
19482.567926	16972.295000	738.406250	250.210907
19482.567926	16972.295000	737.203125	123.874115
19482.567926	16972.295000	736.000000	394.039307
19482.567926	16972.295000	734.795898	600.462646
19482.567926	16972.295000	733.592773	501.569031
19482.567926	16972.295000	732.388672	375.134796
19482.567926	16972.295000	731.184570	263.543610
19482.567926	16972.295000	729.979492	315.050476
19482.567926	16972.295000	728.775391	578.252502
19482.567926	16972.295000	727.570313	235.800674
19482.567926	16972.295000	726.365234	67.020294
19482.567926	16972.295000	725.160156	120.478294
19482.567926	16972.295000	723.954102	321.981323
19482.567926	16972.295000	722.748047	66.435715
19482.567926	16972.295000	721.541992	66.860634
19482.567926	16972.295000	720.334961	137.023544
19482.567926	16972.295000	719.128906	209.225204
19482.567926	16972.295000	717.921875	101.698196
19482.567926	16972.295000	716.714844	78.697701
19482.567926	16972.295000	715.506836	142.285980
19482.567926	16972.295000	714.298828	53.717335
19482.567926	16972.295000	713.090820	43.278503
19482.567926	16972.295000	711.882813	-205.789673
19482.567926	16972.295000	710.674805	-13.610603
19482.567926	16972.295000	709.465820	161.558472
19482.567926	16972.295000	708.256836	-114.947845
19482.567926	16972.295000	707.047852	-13.763723
19482.567926	16972.295000	705.837891	-56.091797
19482.567926	16972.295000	704.627930	17.529596
19482.567926	16972.295000	703.417969	-164.032684
19482.567926	16972.295000	702.208008	-29.389338
19482.567926	16972.295000	700.998047	56.677116
19482.567926	16972.295000	699.787109	138.445297
19482.567926	16972.295000	698.576172	20.007931
19482.567926	16972.295000	697.364258	145.877975
19482.567926	16972.295000	696.153320	122.141891
19482.567926	16972.295000	694.941406	-25.842148
19482.567926	16972.295000	693.729492	165.052002
19482.567926	16972.295000	692.516602	277.955292
19482.567926	16972.295000	691.304688	94.110794
19482.567926	16972.295000	690.091797	183.738693
19482.567926	16972.295000	688.878906	136.581528
19482.567926	16972.295000	687.665039	127.237892
19482.567926	16972.295000	686.451172	183.010971
19482.567926	16972.295000	685.237305	232.400513
19482.567926	16972.295000	684.023438	113.618240
19482.567926	16972.295000	682.809570	228.018417
19482.567926	16972.295000	681.594727	-8.439213
19482.567926	16972.295000	680.379883	-15.963905
19482.567926	16972.295000	679.165039	-174.701355
19482.567926	16972.295000	677.949219	-83.644073
19482.567926	16972.295000	676.733398	13.616022
19482.567926	16972.295000	675.517578	91.896164
19482.567926	16972.295000	674.301758	138.621964
19482.567926	16972.295000	673.084961	120.257820
19482.567926	16972.295000	671.869141	158.459457
19482.567926	16972.295000	670.651367	-13.046804
19482.567926	16972.295000	669.434570	199.014435
19482.567926	16972.295000	668.216797	-39.597076
19482.567926	16972.295000	667.000000	233.023849
19482.567926	16972.295000	665.781250	-7.701685
19482.567926	16972.295000	664.563477	-1.274055
19482.567926	16972.295000	663.344727	155.841568
19482.567926	16972.295000	662.125977	-149.778107
19482.567926	16972.295000	660.907227	149.499695
19482.567926	16972.295000	659.688477	57.318485
19482.567926	16972.295000	658.468750	124.106079
19482.567926	16972.295000	657.249023	199.173798
19482.567926	16972.295000	656.029297	-91.782089
19482.567926	16972.295000	654.808594	116.983521
19482.567926	16972.295000	653.587891	206.463745
19482.567926	16972.295000	652.367188	17.913490
19482.567926	16972.295000	651.146484	188.742966
19482.567926	16972.295000	649.924805	67.003746
19482.567926	16972.295000	648.704102	-19.238289
19482.567926	16972.295000	647.482422	-151.437637
19482.567926	16972.295000	646.259766	100.466187
19482.567926	16972.295000	645.037109	135.148346
19482.567926	16972.295000	643.815430	69.600586
19482.567926	16972.295000	642.591797	-125.322823
19482.567926	16972.295000	641.369141	23.929365
19482.567926	16972.295000	640.145508	250.217606
19482.567926	16972.295000	638.921875	30.189013
19482.567926	16972.295000	637.698242	-66.821297
19482.567926	16972.295000	636.474609	115.406578
19482.567926	16972.295000	635.250000	222.493164
19482.567926	16972.295000	634.025391	62.837734
19482.567926	16972.295000	632.800781	-40.573166
19482.567926	16972.295000	631.575195	228.720734
19482.567926	16972.295000	630.349609	181.412811
19482.567926	16972.295000	629.124023	248.543381
19482.567926	16972.295000	627.898438	167.844086
19482.567926	16972.295000	626.671875	-25.221970
19482.567926	16972.295000	625.445313	-62.260014
19482.567926	16972.295000	624.218750	27.517340
19482.567926	16972.295000	622.992188	94.331078
19482.567926	16972.295000	621.764648	13.472274
19482.567926	16972.295000	620.537109	-173.397476
19482.567926	16972.295000	619.309570	-85.970245
19482.567926	16972.295000	618.081055	9.673846
19482.567926	16972.295000	616.852539	36.685814
19482.567926	16972.295000	615.624023	-54.727943
19482.567926	16972.295000	614.395508	-9.136410
19482.567926	16972.295000	613.166992	-48.716957
19482.567926	16972.295000	611.937500	-59.282295
19482.567926	16972.295000	610.708008	15.169428
19482.567926	16972.295000	609.477539	12.787359
19482.567926	16972.295000	608.248047	-68.450272
19482.567926	16972.295000	607.017578	-10.786603
19482.567926	16972.295000	605.787109	-137.693222
19482.567926	16972.295000	604.555664	-17.966429
19482.567926	16972.295000	603.325195	-111.764366
19482.567926	16972.295000	602.093750	192.184204
19482.567926	16972.295000	600.861328	-168.906540
19482.567926	16972.295000	599.629883	-97.099785
19482.567926	16972.295000	598.397461	-70.920380
19482.567926	16972.295000	597.165039	-84.128677
19482.567926	16972.295000	595.932617	-95.308212
19482.567926	16972.295000	594.699219	-241.018219
19482.567926	16972.295000	593.465820	-41.262066
19482.567926	16972.295000	592.232422	-81.539307
19482.567926	16972.295000	590.999023	-134.251801
19482.567926	16972.295000	589.764648	67.282303
19482.567926	16972.295000	588.530273	53.737492
19482.567926	16972.295000	587.295898	13.291989
19482.567926	16972.295000	586.061523	12.071272
19482.567926	16972.295000	584.826172	-90.402122
19482.567926	16972.295000	583.590820	-52.452572
19482.567926	16972.295000	582.355469	6.084460
19482.567926	16972.295000	581.119141	-205.853546
19482.567926	16972.295000	579.882813	-153.586960
19482.567926	16972.295000	578.646484	-128.206146
19482.567926	16972.295000	577.410156	-38.928402
19482.567926	16972.295000	576.172852	-308.589813
19482.567926	16972.295000	574.935547	-101.863197
19482.567926	16972.295000	573.698242	9.905223
19482.567926	16972.295000	572.460938	-72.154213
19482.567926	16972.295000	571.222656	-178.948059
19482.567926	16972.295000	569.984375	-190.965424
19482.567926	16972.295000	568.746094	-67.071129
19482.567926	16972.295000	567.506836	11.424865
19482.567926	16972.295000	566.267578	-78.978233
19482.567926	16972.295000	565.028320	-122.035881
19482.567926	16972.295000	563.789063	135.357773
19482.567926	16972.295000	562.548828	170.385773
19482.567926	16972.295000	561.309570	153.937012
19482.567926	16972.295000	560.068359	-72.327934
19482.567926	16972.295000	558.828125	139.452515
19482.567926	16972.295000	557.586914	32.453457
19482.567926	16972.295000	556.345703	-4.651000
19482.567926	16972.295000	555.104492	28.093525
19482.567926	16972.295000	553.863281	46.407990
19482.567926	16972.295000	552.621094	-64.727058
19482.567926	16972.295000	551.378906	13.084204
19482.567926	16972.295000	550.136719	-32.363117
19482.567926	16972.295000	548.893555	-22.402092
19482.567926	16972.295000	547.650391	-4.270690
19482.567926	16972.295000	546.407227	46.649361
19482.567926	16972.295000	545.164063	126.234116
19482.567926	16972.295000	543.919922	113.454994
19482.567926	16972.295000	542.675781	-8.030503
19482.567926	16972.295000	541.431641	112.414337
19482.567926	16972.295000	540.186523	-9.088855
19482.567926	16972.295000	538.941406	6.723849
19482.567926	16972.295000	537.696289	-47.161343
19482.567926	16972.295000	536.451172	-43.704556
19482.567926	16972.295000	535.205078	51.868916
19482.567926	16972.295000	533.959961	-20.521278
19482.567926	16972.295000	532.712891	95.404289
19482.567926	16972.295000	531.466797	129.385101
19482.567926	16972.295000	530.219727	114.205818
19482.567926	16972.295000	528.972656	272.881195
19482.567926	16972.295000	527.725586	222.835541
19482.567926	16972.295000	526.478516	111.429672
19482.567926	16972.295000	525.230469	210.601746
19482.567926	16972.295000	523.982422	338.309784
19482.567926	16972.295000	522.734375	126.699562
19482.567926	16972.295000	521.485352	266.546875
19482.567926	16972.295000	520.236328	136.664124
19482.567926	16972.295000	518.987305	72.147095
19482.567926	16972.295000	517.737305	236.287918
19482.567926	16972.295000	516.488281	351.327484
19482.567926	16972.295000	515.238281	80.542274
19482.567926	16972.295000	513.988281	366.867493
19482.567926	16972.295000	512.737305	228.698349
19482.567926	16972.295000	511.486328	194.557907
19482.567926	16972.295000	510.235352	144.069763
19482.567926	16972.295000	508.984375	168.982422
19482.567926	16972.295000	507.732422	-7.959786
19482.567926	16972.295000	506.480469	265.476959
19482.567926	16972.295000	505.228516	288.141449
19482.567926	16972.295000	503.976563	316.848267
19482.567926	16972.295000	502.723633	587.821716
19482.567926	16972.295000	501.470703	551.171265
19482.567926	16972.295000	500.217773	750.603821
19482.567926	16972.295000	498.963867	719.902710
19482.567926	16972.295000	497.709961	676.937134
19482.567926	16972.295000	496.456055	664.432129
19482.567926	16972.295000	495.202148	495.250397
19482.567926	16972.295000	493.947266	653.442139
19482.567926	16972.295000	492.692383	752.527649
19482.567926	16972.295000	491.437500	1018.157349
19482.567926	16972.295000	490.181641	960.474609
19482.567926	16972.295000	488.926758	784.894104
19482.567926	16972.295000	487.670898	869.290466
19482.567926	16972.295000	486.414063	713.912964
19482.567926	16972.295000	485.158203	891.487671
19482.567926	16972.295000	483.901367	983.619812
19482.567926	16972.295000	482.644531	742.766663
19482.567926	16972.295000	481.386719	769.735107
19482.567926	16972.295000	480.128906	1159.698120
19482.567926	16972.295000	478.871094	963.226379
19482.567926	16972.295000	477.613281	1121.570313
19482.567926	16972.295000	476.355469	1206.731201
19482.567926	16972.295000	475.096680	1318.063354
19482.567926	16972.295000	473.837891	1084.713989
19482.567926	16972.295000	472.578125	1141.029175
19482.567926	16972.295000	471.319336	1249.839844
19482.567926	16972.295000	470.059570	1224.782349
19482.567926	16972.295000	468.799805	1310.929321
19482.567926	16972.295000	467.539063	1226.826660
19482.567926	16972.295000	466.278320	1395.560547
19482.567926	16972.295000	465.017578	1586.297485
19482.567926	16972.295000	463.756836	1382.288574
19482.567926	16972.295000	462.495117	1402.663452
19482.567926	16972.295000	461.233398	1566.392578
19482.567926	16972.295000	459.971680	1414.465698
19482.567926	16972.295000	458.709961	1494.823730
19482.567926	16972.295000	457.447266	1625.431641
19482.567926	16972.295000	456.184570	1632.509399
19482.567926	16972.295000	454.921875	1546.426880
19482.567926	16972.295000	453.658203	1777.173950
19482.567926	16972.295000	452.394531	1561.360352
19482.567926	16972.295000	451.130859	1732.934937
19482.567926	16972.295000	449.867188	1637.763672
19482.567926	16972.295000	448.602539	1475.751465
19482.567926	16972.295000	447.337891	1499.097412
19482.567926	16972.295000	446.073242	1437.417480
19482.567926	16972.295000	444.807617	1560.942505
19482.567926	16972.295000	443.542969	1532.895874
19482.567926	16972.295000	442.276367	1738.298828
19482.567926	16972.295000	441.010742	1778.032715
19482.567926	16972.295000	439.744141	1720.670288
19482.567926	16972.295000	438.478516	1872.443115
19482.567926	16972.295000	437.210938	1681.394653
19482.567926	16972.295000	435.944336	2051.758301
19482.567926	16972.295000	434.676758	1698.900635
19482.567926	16972.295000	433.409180	1812.657104
19482.567926	16972.295000	432.141602	1563.754150
19482.567926	16972.295000	430.873047	1940.093140
19482.567926	16972.295000	429.604492	1843.172363
19482.567926	16972.295000	428.335938	1924.758057
19482.567926	16972.295000	427.067383	1977.660400
19482.567926	16972.295000	425.797852	1985.787476
19482.567926	16972.295000	424.528320	1919.025024
19482.567926	16972.295000	423.258789	1789.459106
19482.567926	16972.295000	421.988281	1775.858643
19482.567926	16972.295000	420.717773	1942.403198
19482.567926	16972.295000	419.447266	1889.432617
19482.567926	16972.295000	418.175781	1675.261841
19482.567926	16972.295000	416.905273	1562.903687
19482.567926	16972.295000	415.633789	1867.236450
19482.567926	16972.295000	414.362305	1956.117554
19482.567926	16972.295000	413.089844	1779.510254
19482.567926	16972.295000	411.817383	1858.899902
19482.567926	16972.295000	410.544922	1841.285889
19482.567926	16972.295000	409.272461	1638.522949
19482.567926	16972.295000	407.999023	1823.763550
19482.567926	16972.295000	406.725586	1841.830811
19482.567926	16972.295000	405.452148	1997.250610
19482.567926	16972.295000	404.177734	1613.054810
19482.567926	16972.295000	402.903320	1772.685791
19482.567926	16972.295000	401.628906	1803.231323
19482.567926	16972.295000	400.354492	1888.855591
19482.567926	16972.295000	399.079102	1949.441650
19482.567926	16972.295000	397.803711	1818.979370
19482.567926	16972.295000	396.528320	1935.531372
19482.567926	16972.295000	395.251953	1920.992554
19482.567926	16972.295000	393.976563	1793.465576
19482.567926	16972.295000	392.700195	1662.856079
19482.567926	16972.295000	391.422852	1904.778442
19482.567926	16972.295000	390.145508	1765.864014
19482.567926	16972.295000	388.869141	1657.795532
19482.567926	16972.295000	387.590820	1460.610718
19482.567926	16972.295000	386.313477	1525.796021
19482.567926	16972.295000	385.035156	1427.944092
19482.567926	16972.295000	383.756836	1737.873047
19482.567926	16972.295000	382.478516	1611.368530
19482.567926	16972.295000	381.199219	1587.190063
19482.567926	16972.295000	379.919922	1565.561523
19482.567926	16972.295000	378.640625	1271.303589
19482.567926	16972.295000	377.360352	1493.873901
19482.567926	16972.295000	376.080078	1336.130249
19482.567926	16972.295000	374.799805	1423.916016
19482.567926	16972.295000	373.519531	1486.112427
19482.567926	16972.295000	372.238281	1307.554565
19482.567926	16972.295000	370.957031	1561.415894
19482.567926	16972.295000	369.675781	1455.059204
19482.567926	16972.295000	368.394531	1293.190063
19482.567926	16972.295000	367.112305	1224.986450
19482.567926	16972.295000	365.830078	1353.842163
19482.567926	16972.295000	364.546875	1102.714478
19482.567926	16972.295000	363.264648	1295.180664
19482.567926	16972.295000	361.981445	1203.130859
19482.567926	16972.295000	360.698242	1393.251709
19482.567926	16972.295000	359.414063	1108.095825
19482.567926	16972.295000	358.129883	995.688965
19482.567926	16972.295000	356.845703	1063.809082
19482.567926	16972.295000	355.561523	641.027222
19482.567926	16972.295000	354.276367	859.296082
19482.567926	16972.295000	352.991211	755.427917
19482.567926	16972.295000	351.706055	730.479797
19482.567926	16972.295000	350.420898	790.295776
19482.567926	16972.295000	349.134766	849.377014
19482.567926	16972.295000	347.848633	594.363953
19482.567926	16972.295000	346.561523	804.613770
19482.567926	16972.295000	345.275391	736.478455
19482.567926	16972.295000	343.988281	687.221802
19482.567926	16972.295000	342.700195	393.200592
19482.567926	16972.295000	341.413086	460.929474
19482.567926	16972.295000	340.125000	214.482407
19482.567926	16972.295000	338.836914	155.107361
19482.567926	16972.295000	337.548828	411.308167
19482.567926	16972.295000	336.259766	264.150085
19482.567926	16972.295000	334.970703	497.624268
19482.567926	16972.295000	333.681641	128.030365
19482.567926	16972.295000	332.391602	245.561386
19482.567926	16972.295000	331.101563	137.930618
19482.567926	16972.295000	329.811523	111.687355
19482.567926	16972.295000	328.521484	233.916702
19482.567926	16972.295000	327.230469	148.552628
19482.567926	16972.295000	325.939453	126.475456
19482.567926	16972.295000	324.648438	-75.437325
19482.567926	16972.295000	323.356445	-133.359055
19482.567926	16972.295000	322.064453	-11.805733
19482.567926	16972.295000	320.772461	-157.177948
19482.567926	16972.295000	319.480469	-141.063400
19482.567926	16972.295000	318.187500	40.144089
19482.567926	16972.295000	316.894531	-185.797775
19482.567926	16972.295000	315.601563	-130.290222
19482.567926	16972.295000	314.307617	-164.531662
19482.567926	16972.295000	313.013672	-107.023087
19482.567926	16972.295000	311.719727	-72.260719
19482.567926	16972.295000	310.425781	-216.033508
19482.567926	16972.295000	309.130859	-81.358749
19482.567926	16972.295000	307.835938	-86.005440
19482.567926	16972.295000	306.541016	-42.887131
19482.567926	16972.295000	305.245117	75.244377
19482.567926	16972.295000	303.949219	-30.846540
19482.567926	16972.295000	302.653320	119.125946
19482.567926	16972.295000	301.356445	196.057327
19482.567926	16972.295000	300.060547	570.125122
19482.567926	16972.295000	298.763672	563.984131
