#X		#Y		#Wave		#Intensity
2762.056862	17388.714000	2000.043945	119.928169
2762.056862	17388.714000	1999.080078	-110.370728
2762.056862	17388.714000	1998.116211	36.803242
2762.056862	17388.714000	1997.151367	-48.832626
2762.056862	17388.714000	1996.186523	26.804474
2762.056862	17388.714000	1995.222656	15.896346
2762.056862	17388.714000	1994.256836	57.174847
2762.056862	17388.714000	1993.291992	49.084743
2762.056862	17388.714000	1992.327148	-114.816650
2762.056862	17388.714000	1991.361328	-6.207512
2762.056862	17388.714000	1990.395508	144.588501
2762.056862	17388.714000	1989.429688	-88.069145
2762.056862	17388.714000	1988.463867	55.552235
2762.056862	17388.714000	1987.497070	-25.840620
2762.056862	17388.714000	1986.531250	83.360741
2762.056862	17388.714000	1985.564453	2.250479
2762.056862	17388.714000	1984.597656	-41.626011
2762.056862	17388.714000	1983.630859	92.594490
2762.056862	17388.714000	1982.664063	-2.951251
2762.056862	17388.714000	1981.696289	-14.348941
2762.056862	17388.714000	1980.728516	-186.213348
2762.056862	17388.714000	1979.761719	-9.659510
2762.056862	17388.714000	1978.792969	6.406570
2762.056862	17388.714000	1977.825195	-46.574734
2762.056862	17388.714000	1976.857422	-200.659058
2762.056862	17388.714000	1975.888672	-88.056870
2762.056862	17388.714000	1974.919922	-24.770540
2762.056862	17388.714000	1973.951172	4.027181
2762.056862	17388.714000	1972.982422	153.750565
2762.056862	17388.714000	1972.013672	66.728035
2762.056862	17388.714000	1971.043945	115.416992
2762.056862	17388.714000	1970.075195	80.327858
2762.056862	17388.714000	1969.105469	-8.919651
2762.056862	17388.714000	1968.135742	76.891983
2762.056862	17388.714000	1967.165039	-44.248978
2762.056862	17388.714000	1966.195313	4.682446
2762.056862	17388.714000	1965.224609	63.491322
2762.056862	17388.714000	1964.253906	107.544716
2762.056862	17388.714000	1963.283203	-25.650383
2762.056862	17388.714000	1962.312500	-13.523444
2762.056862	17388.714000	1961.341797	-11.211849
2762.056862	17388.714000	1960.370117	271.652435
2762.056862	17388.714000	1959.399414	-104.913445
2762.056862	17388.714000	1958.427734	111.503136
2762.056862	17388.714000	1957.455078	86.845230
2762.056862	17388.714000	1956.483398	-45.972473
2762.056862	17388.714000	1955.511719	118.749527
2762.056862	17388.714000	1954.539063	-13.989325
2762.056862	17388.714000	1953.566406	-104.884979
2762.056862	17388.714000	1952.593750	67.173851
2762.056862	17388.714000	1951.621094	177.764359
2762.056862	17388.714000	1950.647461	-131.681091
2762.056862	17388.714000	1949.674805	18.214340
2762.056862	17388.714000	1948.701172	-94.652367
2762.056862	17388.714000	1947.727539	-106.825516
2762.056862	17388.714000	1946.753906	-37.999119
2762.056862	17388.714000	1945.780273	65.157288
2762.056862	17388.714000	1944.805664	-54.986069
2762.056862	17388.714000	1943.831055	80.021812
2762.056862	17388.714000	1942.856445	153.662918
2762.056862	17388.714000	1941.881836	53.177078
2762.056862	17388.714000	1940.907227	94.914543
2762.056862	17388.714000	1939.932617	67.998055
2762.056862	17388.714000	1938.957031	-69.198959
2762.056862	17388.714000	1937.981445	26.418346
2762.056862	17388.714000	1937.005859	124.438675
2762.056862	17388.714000	1936.030273	-83.754311
2762.056862	17388.714000	1935.054688	19.122501
2762.056862	17388.714000	1934.078125	68.082336
2762.056862	17388.714000	1933.101563	195.343338
2762.056862	17388.714000	1932.125000	-2.975333
2762.056862	17388.714000	1931.148438	102.194756
2762.056862	17388.714000	1930.171875	1.795112
2762.056862	17388.714000	1929.194336	-27.647289
2762.056862	17388.714000	1928.217773	45.618690
2762.056862	17388.714000	1927.240234	30.810009
2762.056862	17388.714000	1926.262695	55.102196
2762.056862	17388.714000	1925.284180	135.580872
2762.056862	17388.714000	1924.306641	3.393926
2762.056862	17388.714000	1923.328125	-62.795433
2762.056862	17388.714000	1922.350586	-168.070618
2762.056862	17388.714000	1921.372070	156.544052
2762.056862	17388.714000	1920.392578	68.310608
2762.056862	17388.714000	1919.414063	60.656590
2762.056862	17388.714000	1918.434570	45.655254
2762.056862	17388.714000	1917.456055	30.633713
2762.056862	17388.714000	1916.476563	54.632927
2762.056862	17388.714000	1915.497070	34.680508
2762.056862	17388.714000	1914.516602	107.399170
2762.056862	17388.714000	1913.537109	-134.545776
2762.056862	17388.714000	1912.556641	96.613029
2762.056862	17388.714000	1911.576172	-77.037025
2762.056862	17388.714000	1910.595703	-84.905518
2762.056862	17388.714000	1909.615234	63.167339
2762.056862	17388.714000	1908.633789	99.071777
2762.056862	17388.714000	1907.653320	-164.707138
2762.056862	17388.714000	1906.671875	148.827225
2762.056862	17388.714000	1905.690430	-54.047073
2762.056862	17388.714000	1904.708984	-66.968033
2762.056862	17388.714000	1903.727539	129.431244
2762.056862	17388.714000	1902.745117	67.737167
2762.056862	17388.714000	1901.762695	18.200615
2762.056862	17388.714000	1900.780273	165.715866
2762.056862	17388.714000	1899.797852	264.492645
2762.056862	17388.714000	1898.815430	-52.673389
2762.056862	17388.714000	1897.832031	-131.464508
2762.056862	17388.714000	1896.849609	-117.878212
2762.056862	17388.714000	1895.866211	63.382320
2762.056862	17388.714000	1894.882813	-83.535271
2762.056862	17388.714000	1893.898438	-74.931503
2762.056862	17388.714000	1892.915039	-93.086807
2762.056862	17388.714000	1891.930664	143.755356
2762.056862	17388.714000	1890.947266	-46.919655
2762.056862	17388.714000	1889.962891	10.087919
2762.056862	17388.714000	1888.977539	1.494607
2762.056862	17388.714000	1887.993164	121.500816
2762.056862	17388.714000	1887.007813	-27.922394
2762.056862	17388.714000	1886.023438	16.762449
2762.056862	17388.714000	1885.038086	155.993073
2762.056862	17388.714000	1884.051758	130.219391
2762.056862	17388.714000	1883.066406	-220.494522
2762.056862	17388.714000	1882.081055	-93.530518
2762.056862	17388.714000	1881.094727	-160.560638
2762.056862	17388.714000	1880.108398	-38.579243
2762.056862	17388.714000	1879.122070	-64.480042
2762.056862	17388.714000	1878.135742	-177.617676
2762.056862	17388.714000	1877.148438	-24.331303
2762.056862	17388.714000	1876.162109	12.626238
2762.056862	17388.714000	1875.174805	175.426346
2762.056862	17388.714000	1874.187500	120.268219
2762.056862	17388.714000	1873.199219	40.887749
2762.056862	17388.714000	1872.211914	-28.821119
2762.056862	17388.714000	1871.223633	-40.483196
2762.056862	17388.714000	1870.236328	-134.417282
2762.056862	17388.714000	1869.248047	44.918663
2762.056862	17388.714000	1868.258789	132.263611
2762.056862	17388.714000	1867.270508	76.907372
2762.056862	17388.714000	1866.282227	67.454811
2762.056862	17388.714000	1865.292969	118.376839
2762.056862	17388.714000	1864.303711	227.225540
2762.056862	17388.714000	1863.314453	-113.319557
2762.056862	17388.714000	1862.324219	280.441803
2762.056862	17388.714000	1861.334961	-11.773360
2762.056862	17388.714000	1860.344727	72.707130
2762.056862	17388.714000	1859.354492	-2.199222
2762.056862	17388.714000	1858.364258	-72.292419
2762.056862	17388.714000	1857.374023	-0.038491
2762.056862	17388.714000	1856.383789	-9.879050
2762.056862	17388.714000	1855.392578	-183.779175
2762.056862	17388.714000	1854.401367	30.607536
2762.056862	17388.714000	1853.410156	208.702728
2762.056862	17388.714000	1852.418945	133.566727
2762.056862	17388.714000	1851.426758	227.127823
2762.056862	17388.714000	1850.435547	132.650757
2762.056862	17388.714000	1849.443359	-14.842677
2762.056862	17388.714000	1848.451172	326.672852
2762.056862	17388.714000	1847.458984	109.264496
2762.056862	17388.714000	1846.466797	62.857742
2762.056862	17388.714000	1845.473633	223.464615
2762.056862	17388.714000	1844.480469	102.341026
2762.056862	17388.714000	1843.487305	84.699615
2762.056862	17388.714000	1842.494141	240.261765
2762.056862	17388.714000	1841.500977	8.401231
2762.056862	17388.714000	1840.506836	228.762558
2762.056862	17388.714000	1839.513672	-152.200150
2762.056862	17388.714000	1838.519531	-20.946552
2762.056862	17388.714000	1837.525391	-257.584717
2762.056862	17388.714000	1836.530273	65.812943
2762.056862	17388.714000	1835.536133	107.896149
2762.056862	17388.714000	1834.541016	49.003696
2762.056862	17388.714000	1833.545898	83.764992
2762.056862	17388.714000	1832.550781	185.708023
2762.056862	17388.714000	1831.555664	97.870537
2762.056862	17388.714000	1830.560547	91.639885
2762.056862	17388.714000	1829.564453	42.152252
2762.056862	17388.714000	1828.568359	170.216934
2762.056862	17388.714000	1827.572266	-71.318748
2762.056862	17388.714000	1826.576172	-53.734474
2762.056862	17388.714000	1825.580078	35.743801
2762.056862	17388.714000	1824.583008	-18.748009
2762.056862	17388.714000	1823.585938	49.000992
2762.056862	17388.714000	1822.588867	-51.124817
2762.056862	17388.714000	1821.591797	-5.073092
2762.056862	17388.714000	1820.594727	0.171403
2762.056862	17388.714000	1819.596680	10.146640
2762.056862	17388.714000	1818.599609	15.275425
2762.056862	17388.714000	1817.601563	61.053963
2762.056862	17388.714000	1816.603516	-94.369026
2762.056862	17388.714000	1815.604492	209.839127
2762.056862	17388.714000	1814.606445	63.905327
2762.056862	17388.714000	1813.607422	71.118324
2762.056862	17388.714000	1812.608398	87.840897
2762.056862	17388.714000	1811.609375	133.202499
2762.056862	17388.714000	1810.610352	94.779831
2762.056862	17388.714000	1809.610352	-24.995161
2762.056862	17388.714000	1808.611328	41.699791
2762.056862	17388.714000	1807.611328	7.911532
2762.056862	17388.714000	1806.611328	-21.147240
2762.056862	17388.714000	1805.610352	181.511795
2762.056862	17388.714000	1804.610352	68.694778
2762.056862	17388.714000	1803.609375	-48.925968
2762.056862	17388.714000	1802.608398	-32.833805
2762.056862	17388.714000	1801.607422	-112.315323
2762.056862	17388.714000	1800.606445	-48.602432
2762.056862	17388.714000	1799.605469	-125.794228
2762.056862	17388.714000	1798.603516	-38.375477
2762.056862	17388.714000	1797.601563	-27.401533
2762.056862	17388.714000	1796.599609	-102.371887
2762.056862	17388.714000	1795.597656	-222.692276
2762.056862	17388.714000	1794.595703	-59.286045
2762.056862	17388.714000	1793.592773	-70.047440
2762.056862	17388.714000	1792.589844	-68.955345
2762.056862	17388.714000	1791.587891	-120.354599
2762.056862	17388.714000	1790.583984	40.238575
2762.056862	17388.714000	1789.581055	98.273041
2762.056862	17388.714000	1788.577148	-179.616867
2762.056862	17388.714000	1787.574219	87.849724
2762.056862	17388.714000	1786.570313	198.001190
2762.056862	17388.714000	1785.566406	-10.933834
2762.056862	17388.714000	1784.561523	-8.053358
2762.056862	17388.714000	1783.557617	42.347843
2762.056862	17388.714000	1782.552734	-209.487320
2762.056862	17388.714000	1781.547852	-18.885639
2762.056862	17388.714000	1780.542969	-137.586853
2762.056862	17388.714000	1779.538086	-108.902954
2762.056862	17388.714000	1778.532227	116.996376
2762.056862	17388.714000	1777.527344	5.239051
2762.056862	17388.714000	1776.521484	-42.398659
2762.056862	17388.714000	1775.515625	-52.081985
2762.056862	17388.714000	1774.508789	-30.967237
2762.056862	17388.714000	1773.502930	16.193245
2762.056862	17388.714000	1772.496094	-15.109028
2762.056862	17388.714000	1771.489258	-153.313416
2762.056862	17388.714000	1770.482422	-37.567825
2762.056862	17388.714000	1769.475586	-47.724281
2762.056862	17388.714000	1768.467773	108.124939
2762.056862	17388.714000	1767.460938	88.291878
2762.056862	17388.714000	1766.453125	30.428295
2762.056862	17388.714000	1765.445313	48.388271
2762.056862	17388.714000	1764.437500	123.159653
2762.056862	17388.714000	1763.428711	-245.466415
2762.056862	17388.714000	1762.420898	73.276009
2762.056862	17388.714000	1761.412109	57.696152
2762.056862	17388.714000	1760.403320	169.968796
2762.056862	17388.714000	1759.393555	109.192421
2762.056862	17388.714000	1758.384766	48.362114
2762.056862	17388.714000	1757.375000	37.182980
2762.056862	17388.714000	1756.366211	134.825241
2762.056862	17388.714000	1755.356445	206.299362
2762.056862	17388.714000	1754.345703	-115.174591
2762.056862	17388.714000	1753.335938	34.219604
2762.056862	17388.714000	1752.325195	-3.416261
2762.056862	17388.714000	1751.315430	145.722672
2762.056862	17388.714000	1750.304688	200.120667
2762.056862	17388.714000	1749.292969	60.538841
2762.056862	17388.714000	1748.282227	126.570656
2762.056862	17388.714000	1747.270508	199.566101
2762.056862	17388.714000	1746.259766	88.154152
2762.056862	17388.714000	1745.248047	300.325134
2762.056862	17388.714000	1744.235352	233.609665
2762.056862	17388.714000	1743.223633	171.559143
2762.056862	17388.714000	1742.211914	241.654785
2762.056862	17388.714000	1741.199219	96.811050
2762.056862	17388.714000	1740.186523	143.097061
2762.056862	17388.714000	1739.173828	57.130695
2762.056862	17388.714000	1738.160156	105.566422
2762.056862	17388.714000	1737.147461	193.998672
2762.056862	17388.714000	1736.133789	223.334244
2762.056862	17388.714000	1735.120117	283.215027
2762.056862	17388.714000	1734.106445	154.384872
2762.056862	17388.714000	1733.091797	261.192230
2762.056862	17388.714000	1732.078125	94.519508
2762.056862	17388.714000	1731.063477	215.240494
2762.056862	17388.714000	1730.048828	328.751434
2762.056862	17388.714000	1729.034180	406.795258
2762.056862	17388.714000	1728.019531	397.587646
2762.056862	17388.714000	1727.003906	322.355377
2762.056862	17388.714000	1725.988281	289.421875
2762.056862	17388.714000	1724.972656	272.876831
2762.056862	17388.714000	1723.957031	46.831417
2762.056862	17388.714000	1722.941406	314.788391
2762.056862	17388.714000	1721.924805	410.835541
2762.056862	17388.714000	1720.909180	440.915955
2762.056862	17388.714000	1719.892578	390.935730
2762.056862	17388.714000	1718.875977	169.278534
2762.056862	17388.714000	1717.858398	521.041565
2762.056862	17388.714000	1716.841797	346.240051
2762.056862	17388.714000	1715.824219	556.677734
2762.056862	17388.714000	1714.806641	586.072754
2762.056862	17388.714000	1713.789063	563.691589
2762.056862	17388.714000	1712.770508	531.814636
2762.056862	17388.714000	1711.752930	727.569458
2762.056862	17388.714000	1710.734375	690.778503
2762.056862	17388.714000	1709.715820	501.371307
2762.056862	17388.714000	1708.697266	577.051941
2762.056862	17388.714000	1707.678711	479.019623
2762.056862	17388.714000	1706.659180	629.508423
2762.056862	17388.714000	1705.640625	683.714355
2762.056862	17388.714000	1704.621094	639.323181
2762.056862	17388.714000	1703.600586	894.854187
2762.056862	17388.714000	1702.581055	744.782288
2762.056862	17388.714000	1701.561523	756.334595
2762.056862	17388.714000	1700.541016	727.944824
2762.056862	17388.714000	1699.520508	891.517212
2762.056862	17388.714000	1698.500000	797.343750
2762.056862	17388.714000	1697.478516	782.693054
2762.056862	17388.714000	1696.458008	1004.378052
2762.056862	17388.714000	1695.436523	933.324219
2762.056862	17388.714000	1694.415039	1121.921631
2762.056862	17388.714000	1693.393555	898.611694
2762.056862	17388.714000	1692.372070	991.046204
2762.056862	17388.714000	1691.349609	1176.869995
2762.056862	17388.714000	1690.327148	1292.380859
2762.056862	17388.714000	1689.304688	1031.394531
2762.056862	17388.714000	1688.282227	943.357300
2762.056862	17388.714000	1687.259766	1163.700317
2762.056862	17388.714000	1686.236328	989.017273
2762.056862	17388.714000	1685.213867	849.353882
2762.056862	17388.714000	1684.190430	947.837769
2762.056862	17388.714000	1683.166016	987.797119
2762.056862	17388.714000	1682.142578	997.311340
2762.056862	17388.714000	1681.119141	1104.751465
2762.056862	17388.714000	1680.094727	808.331909
2762.056862	17388.714000	1679.070313	889.892578
2762.056862	17388.714000	1678.045898	968.992371
2762.056862	17388.714000	1677.020508	929.006775
2762.056862	17388.714000	1675.996094	837.657776
2762.056862	17388.714000	1674.970703	1142.555054
2762.056862	17388.714000	1673.945313	1195.506836
2762.056862	17388.714000	1672.919922	964.031982
2762.056862	17388.714000	1671.893555	823.404114
2762.056862	17388.714000	1670.868164	1008.885132
2762.056862	17388.714000	1669.841797	1217.474609
2762.056862	17388.714000	1668.815430	1321.103271
2762.056862	17388.714000	1667.789063	1208.079224
2762.056862	17388.714000	1666.761719	1225.341675
2762.056862	17388.714000	1665.735352	1517.139771
2762.056862	17388.714000	1664.708008	1764.507568
2762.056862	17388.714000	1663.680664	1688.324463
2762.056862	17388.714000	1662.653320	1656.272583
2762.056862	17388.714000	1661.625000	1733.423706
2762.056862	17388.714000	1660.597656	1831.396973
2762.056862	17388.714000	1659.569336	1757.209106
2762.056862	17388.714000	1658.541016	1638.803345
2762.056862	17388.714000	1657.512695	1734.134644
2762.056862	17388.714000	1656.483398	1929.222412
2762.056862	17388.714000	1655.455078	1838.465088
2762.056862	17388.714000	1654.425781	1710.483154
2762.056862	17388.714000	1653.396484	1661.409790
2762.056862	17388.714000	1652.366211	1670.288940
2762.056862	17388.714000	1651.336914	2010.998779
2762.056862	17388.714000	1650.306641	1926.819824
2762.056862	17388.714000	1649.276367	1772.988770
2762.056862	17388.714000	1648.246094	1834.861206
2762.056862	17388.714000	1647.215820	2005.631104
2762.056862	17388.714000	1646.185547	2090.462646
2762.056862	17388.714000	1645.154297	1827.421265
2762.056862	17388.714000	1644.123047	2134.590576
2762.056862	17388.714000	1643.091797	1927.104980
2762.056862	17388.714000	1642.060547	2303.490967
2762.056862	17388.714000	1641.028320	2151.478027
2762.056862	17388.714000	1639.997070	2400.141602
2762.056862	17388.714000	1638.964844	2396.217773
2762.056862	17388.714000	1637.931641	2480.178955
2762.056862	17388.714000	1636.899414	2545.536377
2762.056862	17388.714000	1635.867188	2788.994385
2762.056862	17388.714000	1634.833984	2675.944580
2762.056862	17388.714000	1633.800781	2787.263672
2762.056862	17388.714000	1632.767578	2764.323242
2762.056862	17388.714000	1631.734375	2896.258545
2762.056862	17388.714000	1630.700195	2547.161621
2762.056862	17388.714000	1629.666016	2803.760010
2762.056862	17388.714000	1628.631836	2775.929688
2762.056862	17388.714000	1627.597656	2785.016602
2762.056862	17388.714000	1626.563477	2766.315918
2762.056862	17388.714000	1625.528320	2930.011475
2762.056862	17388.714000	1624.493164	2848.798584
2762.056862	17388.714000	1623.458008	2783.718994
2762.056862	17388.714000	1622.422852	2753.232910
2762.056862	17388.714000	1621.387695	2868.103516
2762.056862	17388.714000	1620.351563	2509.814453
2762.056862	17388.714000	1619.315430	2516.126221
2762.056862	17388.714000	1618.279297	2642.325195
2762.056862	17388.714000	1617.243164	2364.844238
2762.056862	17388.714000	1616.207031	2719.186523
2762.056862	17388.714000	1615.169922	2692.951172
2762.056862	17388.714000	1614.132813	2668.984863
2762.056862	17388.714000	1613.095703	2748.673340
2762.056862	17388.714000	1612.058594	3005.688232
2762.056862	17388.714000	1611.020508	3020.673096
2762.056862	17388.714000	1609.983398	2883.629395
2762.056862	17388.714000	1608.945313	2972.228027
2762.056862	17388.714000	1607.907227	2996.292725
2762.056862	17388.714000	1606.868164	2988.062744
2762.056862	17388.714000	1605.830078	3331.907227
2762.056862	17388.714000	1604.791016	3314.336914
2762.056862	17388.714000	1603.751953	3565.874512
2762.056862	17388.714000	1602.712891	3559.693359
2762.056862	17388.714000	1601.673828	3661.554932
2762.056862	17388.714000	1600.633789	3979.430420
2762.056862	17388.714000	1599.594727	3504.173828
2762.056862	17388.714000	1598.554688	3789.721191
2762.056862	17388.714000	1597.513672	4323.253906
2762.056862	17388.714000	1596.473633	4093.906250
2762.056862	17388.714000	1595.433594	4066.734863
2762.056862	17388.714000	1594.392578	4175.011719
2762.056862	17388.714000	1593.351563	4028.385010
2762.056862	17388.714000	1592.310547	4187.081055
2762.056862	17388.714000	1591.268555	4143.722168
2762.056862	17388.714000	1590.227539	4350.481934
2762.056862	17388.714000	1589.185547	4233.662598
2762.056862	17388.714000	1588.143555	3940.267334
2762.056862	17388.714000	1587.100586	4043.668701
2762.056862	17388.714000	1586.058594	4119.525391
2762.056862	17388.714000	1585.015625	3858.358887
2762.056862	17388.714000	1583.972656	3888.345459
2762.056862	17388.714000	1582.929688	3952.684082
2762.056862	17388.714000	1581.886719	4074.264648
2762.056862	17388.714000	1580.843750	3920.936523
2762.056862	17388.714000	1579.799805	3813.447021
2762.056862	17388.714000	1578.755859	3708.288086
2762.056862	17388.714000	1577.711914	3713.047363
2762.056862	17388.714000	1576.666992	3633.104980
2762.056862	17388.714000	1575.623047	3635.596191
2762.056862	17388.714000	1574.578125	3564.859375
2762.056862	17388.714000	1573.533203	3503.309082
2762.056862	17388.714000	1572.488281	3412.060059
2762.056862	17388.714000	1571.443359	3366.586426
2762.056862	17388.714000	1570.397461	2889.071045
2762.056862	17388.714000	1569.351563	2798.012451
2762.056862	17388.714000	1568.305664	2818.972412
2762.056862	17388.714000	1567.259766	2725.708496
2762.056862	17388.714000	1566.213867	2477.175537
2762.056862	17388.714000	1565.166992	2425.142334
2762.056862	17388.714000	1564.120117	2466.765625
2762.056862	17388.714000	1563.073242	2391.970215
2762.056862	17388.714000	1562.026367	2091.271973
2762.056862	17388.714000	1560.978516	2420.515869
2762.056862	17388.714000	1559.930664	2135.936279
2762.056862	17388.714000	1558.883789	2195.954834
2762.056862	17388.714000	1557.834961	2144.194336
2762.056862	17388.714000	1556.787109	2370.685547
2762.056862	17388.714000	1555.739258	2207.293701
2762.056862	17388.714000	1554.690430	1904.950073
2762.056862	17388.714000	1553.641602	2646.455322
2762.056862	17388.714000	1552.592773	2155.117676
2762.056862	17388.714000	1551.542969	2112.743652
2762.056862	17388.714000	1550.494141	2175.213623
2762.056862	17388.714000	1549.444336	2082.848145
2762.056862	17388.714000	1548.394531	2190.904297
2762.056862	17388.714000	1547.344727	1866.503174
2762.056862	17388.714000	1546.293945	1660.596191
2762.056862	17388.714000	1545.244141	1855.281616
2762.056862	17388.714000	1544.193359	1697.335815
2762.056862	17388.714000	1543.142578	1580.445313
2762.056862	17388.714000	1542.090820	1570.513184
2762.056862	17388.714000	1541.040039	1476.545410
2762.056862	17388.714000	1539.988281	1537.219238
2762.056862	17388.714000	1538.936523	1541.119507
2762.056862	17388.714000	1537.884766	1638.238159
2762.056862	17388.714000	1536.833008	1567.283936
2762.056862	17388.714000	1535.780273	1453.255737
2762.056862	17388.714000	1534.727539	1727.638794
2762.056862	17388.714000	1533.674805	1550.196411
2762.056862	17388.714000	1532.622070	1652.088501
2762.056862	17388.714000	1531.569336	1906.064941
2762.056862	17388.714000	1530.515625	1372.677612
2762.056862	17388.714000	1529.461914	1606.329346
2762.056862	17388.714000	1528.408203	1429.453369
2762.056862	17388.714000	1527.354492	1456.815186
2762.056862	17388.714000	1526.299805	1300.591919
2762.056862	17388.714000	1525.246094	1391.604248
2762.056862	17388.714000	1524.191406	1407.865234
2762.056862	17388.714000	1523.136719	1084.337646
2762.056862	17388.714000	1522.081055	831.238342
2762.056862	17388.714000	1521.026367	965.648560
2762.056862	17388.714000	1519.970703	755.885132
2762.056862	17388.714000	1518.915039	817.982666
2762.056862	17388.714000	1517.859375	762.448669
2762.056862	17388.714000	1516.802734	580.285645
2762.056862	17388.714000	1515.747070	491.081573
2762.056862	17388.714000	1514.690430	655.369141
2762.056862	17388.714000	1513.633789	677.205872
2762.056862	17388.714000	1512.577148	708.185242
2762.056862	17388.714000	1511.519531	562.898071
2762.056862	17388.714000	1510.461914	533.058716
2762.056862	17388.714000	1509.405273	480.760162
2762.056862	17388.714000	1508.346680	695.189270
2762.056862	17388.714000	1507.289063	523.361511
2762.056862	17388.714000	1506.231445	532.411072
2762.056862	17388.714000	1505.172852	787.702759
2762.056862	17388.714000	1504.114258	778.857605
2762.056862	17388.714000	1503.055664	519.576355
2762.056862	17388.714000	1501.996094	497.478271
2762.056862	17388.714000	1500.937500	563.528992
2762.056862	17388.714000	1499.877930	446.934265
2762.056862	17388.714000	1498.818359	222.249893
2762.056862	17388.714000	1497.757813	31.597500
2762.056862	17388.714000	1496.698242	165.831436
2762.056862	17388.714000	1495.637695	36.395657
2762.056862	17388.714000	1494.577148	213.652115
2762.056862	17388.714000	1493.516602	-111.504112
2762.056862	17388.714000	1492.456055	-71.434769
2762.056862	17388.714000	1491.394531	4.784280
2762.056862	17388.714000	1490.333008	-202.628159
2762.056862	17388.714000	1489.271484	-27.061193
2762.056862	17388.714000	1488.209961	-130.547531
2762.056862	17388.714000	1487.148438	-78.555397
2762.056862	17388.714000	1486.085938	-210.958847
2762.056862	17388.714000	1485.023438	118.026627
2762.056862	17388.714000	1483.960938	-86.036995
2762.056862	17388.714000	1482.898438	9.236501
2762.056862	17388.714000	1481.834961	347.458984
2762.056862	17388.714000	1480.772461	36.103539
2762.056862	17388.714000	1479.708984	390.257843
2762.056862	17388.714000	1478.644531	596.141479
2762.056862	17388.714000	1477.581055	703.304810
2762.056862	17388.714000	1476.517578	664.641113
2762.056862	17388.714000	1475.453125	711.413513
2762.056862	17388.714000	1474.388672	1101.936157
2762.056862	17388.714000	1473.323242	1137.880737
2762.056862	17388.714000	1472.258789	1476.824219
2762.056862	17388.714000	1471.193359	1627.247070
2762.056862	17388.714000	1470.127930	1762.246216
2762.056862	17388.714000	1469.062500	1587.699829
2762.056862	17388.714000	1467.997070	2101.376709
2762.056862	17388.714000	1466.930664	2070.541260
2762.056862	17388.714000	1465.865234	2185.422607
2762.056862	17388.714000	1464.798828	2025.097290
2762.056862	17388.714000	1463.731445	1961.488647
2762.056862	17388.714000	1462.665039	2056.807617
2762.056862	17388.714000	1461.597656	1883.820557
2762.056862	17388.714000	1460.530273	2080.632568
2762.056862	17388.714000	1459.462891	1794.680420
2762.056862	17388.714000	1458.395508	2062.795166
2762.056862	17388.714000	1457.327148	1907.996704
2762.056862	17388.714000	1456.259766	1828.116211
2762.056862	17388.714000	1455.191406	1687.512573
2762.056862	17388.714000	1454.123047	2027.527588
2762.056862	17388.714000	1453.053711	1766.667969
2762.056862	17388.714000	1451.985352	1732.107544
2762.056862	17388.714000	1450.916016	1398.975708
2762.056862	17388.714000	1449.846680	1298.781738
2762.056862	17388.714000	1448.776367	1280.290649
2762.056862	17388.714000	1447.707031	976.518494
2762.056862	17388.714000	1446.636719	906.617737
2762.056862	17388.714000	1445.566406	920.717773
2762.056862	17388.714000	1444.496094	790.259033
2762.056862	17388.714000	1443.425781	830.922180
2762.056862	17388.714000	1442.354492	1000.094421
2762.056862	17388.714000	1441.283203	1177.883057
2762.056862	17388.714000	1440.211914	974.120789
2762.056862	17388.714000	1439.140625	984.037231
2762.056862	17388.714000	1438.069336	855.463196
2762.056862	17388.714000	1436.997070	877.800598
2762.056862	17388.714000	1435.924805	938.405518
2762.056862	17388.714000	1434.852539	779.206482
2762.056862	17388.714000	1433.780273	761.882019
2762.056862	17388.714000	1432.707031	737.526123
2762.056862	17388.714000	1431.633789	781.972534
2762.056862	17388.714000	1430.560547	765.757202
2762.056862	17388.714000	1429.487305	753.720703
2762.056862	17388.714000	1428.413086	650.776001
2762.056862	17388.714000	1427.339844	570.544678
2762.056862	17388.714000	1426.265625	736.309326
2762.056862	17388.714000	1425.191406	804.460999
2762.056862	17388.714000	1424.116211	615.698608
2762.056862	17388.714000	1423.041992	798.407654
2762.056862	17388.714000	1421.966797	890.464050
2762.056862	17388.714000	1420.891602	559.431824
2762.056862	17388.714000	1419.816406	524.315430
2762.056862	17388.714000	1418.740234	370.248352
2762.056862	17388.714000	1417.665039	453.963501
2762.056862	17388.714000	1416.588867	540.092651
2762.056862	17388.714000	1415.512695	442.878448
2762.056862	17388.714000	1414.435547	509.242157
2762.056862	17388.714000	1413.359375	229.545837
2762.056862	17388.714000	1412.282227	329.133820
2762.056862	17388.714000	1411.205078	868.282959
2762.056862	17388.714000	1410.127930	499.692810
2762.056862	17388.714000	1409.049805	330.676300
2762.056862	17388.714000	1407.972656	544.489807
2762.056862	17388.714000	1406.894531	662.194458
2762.056862	17388.714000	1405.816406	450.964355
2762.056862	17388.714000	1404.737305	236.951096
2762.056862	17388.714000	1403.659180	158.669006
2762.056862	17388.714000	1402.580078	76.858604
2762.056862	17388.714000	1401.500977	124.730179
2762.056862	17388.714000	1400.421875	426.444092
2762.056862	17388.714000	1399.341797	294.152893
2762.056862	17388.714000	1398.262695	376.671417
2762.056862	17388.714000	1397.182617	69.185577
2762.056862	17388.714000	1396.102539	250.953308
2762.056862	17388.714000	1395.021484	67.752907
2762.056862	17388.714000	1393.941406	56.268555
2762.056862	17388.714000	1392.860352	16.488541
2762.056862	17388.714000	1391.779297	248.824188
2762.056862	17388.714000	1390.698242	43.959110
2762.056862	17388.714000	1389.616211	-104.079376
2762.056862	17388.714000	1388.535156	-8.421839
2762.056862	17388.714000	1387.453125	33.693527
2762.056862	17388.714000	1386.371094	185.885864
2762.056862	17388.714000	1385.288086	412.509399
2762.056862	17388.714000	1384.206055	217.806808
2762.056862	17388.714000	1383.123047	222.330551
2762.056862	17388.714000	1382.040039	294.521118
2762.056862	17388.714000	1380.957031	358.384216
2762.056862	17388.714000	1379.873047	441.017212
2762.056862	17388.714000	1378.789063	375.734863
2762.056862	17388.714000	1377.705078	862.146362
2762.056862	17388.714000	1376.621094	987.960449
2762.056862	17388.714000	1375.537109	628.051758
2762.056862	17388.714000	1374.452148	698.921143
2762.056862	17388.714000	1373.367188	962.544250
2762.056862	17388.714000	1372.282227	1061.965576
2762.056862	17388.714000	1371.197266	1172.802124
2762.056862	17388.714000	1370.112305	1254.590576
2762.056862	17388.714000	1369.026367	1337.488770
2762.056862	17388.714000	1367.940430	1404.754517
2762.056862	17388.714000	1366.854492	1286.942017
2762.056862	17388.714000	1365.767578	1474.514526
2762.056862	17388.714000	1364.681641	1371.376343
2762.056862	17388.714000	1363.594727	1104.136353
2762.056862	17388.714000	1362.507813	1117.467041
2762.056862	17388.714000	1361.419922	1168.160400
2762.056862	17388.714000	1360.333008	960.107544
2762.056862	17388.714000	1359.245117	835.488953
2762.056862	17388.714000	1358.157227	929.903992
2762.056862	17388.714000	1357.069336	837.240662
2762.056862	17388.714000	1355.981445	726.160583
2762.056862	17388.714000	1354.892578	532.943176
2762.056862	17388.714000	1353.803711	285.657593
2762.056862	17388.714000	1352.714844	527.027771
2762.056862	17388.714000	1351.625000	375.167725
2762.056862	17388.714000	1350.536133	375.034943
2762.056862	17388.714000	1349.446289	372.838806
2762.056862	17388.714000	1348.356445	594.620056
2762.056862	17388.714000	1347.266602	487.428650
2762.056862	17388.714000	1346.175781	592.760376
2762.056862	17388.714000	1345.085938	294.099915
2762.056862	17388.714000	1343.995117	357.783508
2762.056862	17388.714000	1342.903320	392.017975
2762.056862	17388.714000	1341.812500	245.628448
2762.056862	17388.714000	1340.720703	33.864494
2762.056862	17388.714000	1339.629883	211.058289
2762.056862	17388.714000	1338.538086	271.651520
2762.056862	17388.714000	1337.445313	118.941650
2762.056862	17388.714000	1336.353516	7.959806
2762.056862	17388.714000	1335.260742	109.444702
2762.056862	17388.714000	1334.167969	-15.972034
2762.056862	17388.714000	1333.075195	112.243683
2762.056862	17388.714000	1331.981445	30.194412
2762.056862	17388.714000	1330.888672	74.329193
2762.056862	17388.714000	1329.794922	-135.558731
2762.056862	17388.714000	1328.701172	180.892685
2762.056862	17388.714000	1327.606445	-3.238756
2762.056862	17388.714000	1326.512695	293.809845
2762.056862	17388.714000	1325.417969	322.430847
2762.056862	17388.714000	1324.323242	300.254944
2762.056862	17388.714000	1323.227539	396.058868
2762.056862	17388.714000	1322.132813	399.153809
2762.056862	17388.714000	1321.037109	387.473450
2762.056862	17388.714000	1319.941406	327.808899
2762.056862	17388.714000	1318.845703	499.377594
2762.056862	17388.714000	1317.750000	319.258270
2762.056862	17388.714000	1316.653320	449.316498
2762.056862	17388.714000	1315.556641	597.644348
2762.056862	17388.714000	1314.459961	605.889771
2762.056862	17388.714000	1313.363281	886.552429
2762.056862	17388.714000	1312.265625	730.168396
2762.056862	17388.714000	1311.167969	783.406067
2762.056862	17388.714000	1310.070313	679.715210
2762.056862	17388.714000	1308.972656	661.619690
2762.056862	17388.714000	1307.874023	886.359375
2762.056862	17388.714000	1306.776367	949.563538
2762.056862	17388.714000	1305.677734	1066.633423
2762.056862	17388.714000	1304.579102	1207.421997
2762.056862	17388.714000	1303.479492	1458.962402
2762.056862	17388.714000	1302.380859	1740.033081
2762.056862	17388.714000	1301.281250	2169.729736
2762.056862	17388.714000	1300.181641	2409.961426
2762.056862	17388.714000	1299.081055	2946.654297
2762.056862	17388.714000	1297.981445	3552.396240
2762.056862	17388.714000	1296.880859	3802.213623
2762.056862	17388.714000	1295.780273	4099.645508
2762.056862	17388.714000	1294.679688	4210.924805
2762.056862	17388.714000	1293.578125	4134.945313
2762.056862	17388.714000	1292.476563	3916.583252
2762.056862	17388.714000	1291.375000	3705.956299
2762.056862	17388.714000	1290.273438	3591.312500
2762.056862	17388.714000	1289.171875	3390.886475
2762.056862	17388.714000	1288.069336	3135.506592
2762.056862	17388.714000	1286.966797	2864.190674
2762.056862	17388.714000	1285.864258	2942.025146
2762.056862	17388.714000	1284.761719	2758.361572
2762.056862	17388.714000	1283.658203	2919.694824
2762.056862	17388.714000	1282.554688	2646.668945
2762.056862	17388.714000	1281.451172	2572.098877
2762.056862	17388.714000	1280.347656	2246.717285
2762.056862	17388.714000	1279.244141	2195.146729
2762.056862	17388.714000	1278.139648	2069.785400
2762.056862	17388.714000	1277.035156	1769.878174
2762.056862	17388.714000	1275.930664	1505.265259
2762.056862	17388.714000	1274.825195	1261.962646
2762.056862	17388.714000	1273.720703	1080.028198
2762.056862	17388.714000	1272.615234	872.532166
2762.056862	17388.714000	1271.508789	699.475098
2762.056862	17388.714000	1270.403320	644.226379
2762.056862	17388.714000	1269.297852	499.361023
2762.056862	17388.714000	1268.191406	474.440643
2762.056862	17388.714000	1267.084961	457.672241
2762.056862	17388.714000	1265.977539	507.623596
2762.056862	17388.714000	1264.871094	572.352539
2762.056862	17388.714000	1263.763672	716.906677
2762.056862	17388.714000	1262.656250	640.072754
2762.056862	17388.714000	1261.548828	512.067383
2762.056862	17388.714000	1260.440430	573.666809
2762.056862	17388.714000	1259.333008	586.902405
2762.056862	17388.714000	1258.224609	513.282715
2762.056862	17388.714000	1257.115234	323.876282
2762.056862	17388.714000	1256.006836	408.189514
2762.056862	17388.714000	1254.897461	384.993225
2762.056862	17388.714000	1253.788086	442.037079
2762.056862	17388.714000	1252.678711	490.596283
2762.056862	17388.714000	1251.569336	260.290771
2762.056862	17388.714000	1250.458984	141.025391
2762.056862	17388.714000	1249.349609	170.331802
2762.056862	17388.714000	1248.239258	184.569717
2762.056862	17388.714000	1247.127930	-8.127052
2762.056862	17388.714000	1246.017578	172.845932
2762.056862	17388.714000	1244.906250	89.996254
2762.056862	17388.714000	1243.794922	162.323730
2762.056862	17388.714000	1242.683594	119.515640
2762.056862	17388.714000	1241.571289	134.659943
2762.056862	17388.714000	1240.459961	98.565430
2762.056862	17388.714000	1239.347656	288.680786
2762.056862	17388.714000	1238.234375	76.962936
2762.056862	17388.714000	1237.122070	92.077736
2762.056862	17388.714000	1236.008789	22.997637
2762.056862	17388.714000	1234.896484	124.529823
2762.056862	17388.714000	1233.782227	100.351768
2762.056862	17388.714000	1232.668945	55.689758
2762.056862	17388.714000	1231.555664	-19.742926
2762.056862	17388.714000	1230.441406	13.529871
2762.056862	17388.714000	1229.327148	-11.152062
2762.056862	17388.714000	1228.211914	-8.916980
2762.056862	17388.714000	1227.097656	166.313080
2762.056862	17388.714000	1225.982422	196.350311
2762.056862	17388.714000	1224.867188	131.915131
2762.056862	17388.714000	1223.751953	227.785599
2762.056862	17388.714000	1222.635742	326.412720
2762.056862	17388.714000	1221.520508	318.182678
2762.056862	17388.714000	1220.404297	337.397247
2762.056862	17388.714000	1219.287109	345.593353
2762.056862	17388.714000	1218.170898	348.683319
2762.056862	17388.714000	1217.053711	211.830429
2762.056862	17388.714000	1215.936523	260.986298
2762.056862	17388.714000	1214.819336	209.659454
2762.056862	17388.714000	1213.702148	170.499954
2762.056862	17388.714000	1212.583984	238.219788
2762.056862	17388.714000	1211.465820	78.045868
2762.056862	17388.714000	1210.347656	173.237686
2762.056862	17388.714000	1209.229492	14.747094
2762.056862	17388.714000	1208.110352	-32.573277
2762.056862	17388.714000	1206.992188	-83.204926
2762.056862	17388.714000	1205.873047	-218.107346
2762.056862	17388.714000	1204.752930	-95.405800
2762.056862	17388.714000	1203.633789	-92.806427
2762.056862	17388.714000	1202.513672	-244.791138
2762.056862	17388.714000	1201.393555	-155.218033
2762.056862	17388.714000	1200.273438	-82.070778
2762.056862	17388.714000	1199.152344	-40.762348
2762.056862	17388.714000	1198.032227	-178.135544
2762.056862	17388.714000	1196.911133	10.205609
2762.056862	17388.714000	1195.790039	-45.209240
2762.056862	17388.714000	1194.667969	209.368011
2762.056862	17388.714000	1193.545898	157.329376
2762.056862	17388.714000	1192.424805	249.468262
2762.056862	17388.714000	1191.301758	166.115356
2762.056862	17388.714000	1190.179688	282.722717
2762.056862	17388.714000	1189.056641	447.421478
2762.056862	17388.714000	1187.933594	602.825439
2762.056862	17388.714000	1186.810547	521.562256
2762.056862	17388.714000	1185.687500	357.267548
2762.056862	17388.714000	1184.563477	436.310333
2762.056862	17388.714000	1183.440430	295.514404
2762.056862	17388.714000	1182.316406	232.715683
2762.056862	17388.714000	1181.191406	92.457817
2762.056862	17388.714000	1180.067383	326.945770
2762.056862	17388.714000	1178.942383	255.183136
2762.056862	17388.714000	1177.817383	325.960876
2762.056862	17388.714000	1176.692383	172.866684
2762.056862	17388.714000	1175.566406	196.249832
2762.056862	17388.714000	1174.440430	347.388641
2762.056862	17388.714000	1173.314453	316.130707
2762.056862	17388.714000	1172.188477	319.279572
2762.056862	17388.714000	1171.062500	291.676056
2762.056862	17388.714000	1169.935547	217.651489
2762.056862	17388.714000	1168.808594	226.894730
2762.056862	17388.714000	1167.681641	269.197723
2762.056862	17388.714000	1166.553711	152.726700
2762.056862	17388.714000	1165.426758	18.697826
2762.056862	17388.714000	1164.298828	35.360546
2762.056862	17388.714000	1163.170898	-94.594978
2762.056862	17388.714000	1162.041992	-46.244930
2762.056862	17388.714000	1160.914063	-217.270020
2762.056862	17388.714000	1159.785156	-42.028698
2762.056862	17388.714000	1158.656250	-199.564896
2762.056862	17388.714000	1157.526367	-93.687431
2762.056862	17388.714000	1156.397461	-182.154541
2762.056862	17388.714000	1155.267578	-83.514648
2762.056862	17388.714000	1154.137695	-48.640446
2762.056862	17388.714000	1153.006836	75.667755
2762.056862	17388.714000	1151.876953	46.810638
2762.056862	17388.714000	1150.746094	108.823135
2762.056862	17388.714000	1149.615234	-34.202194
2762.056862	17388.714000	1148.484375	157.124451
2762.056862	17388.714000	1147.352539	394.414490
2762.056862	17388.714000	1146.220703	377.024475
2762.056862	17388.714000	1145.088867	254.002411
2762.056862	17388.714000	1143.957031	235.762619
2762.056862	17388.714000	1142.825195	342.035767
2762.056862	17388.714000	1141.692383	279.478821
2762.056862	17388.714000	1140.559570	337.470276
2762.056862	17388.714000	1139.426758	353.395203
2762.056862	17388.714000	1138.292969	489.629028
2762.056862	17388.714000	1137.159180	372.210785
2762.056862	17388.714000	1136.025391	318.253113
2762.056862	17388.714000	1134.891602	336.761230
2762.056862	17388.714000	1133.757813	356.446442
2762.056862	17388.714000	1132.623047	378.177887
2762.056862	17388.714000	1131.488281	459.956085
2762.056862	17388.714000	1130.353516	590.752197
2762.056862	17388.714000	1129.217773	583.824768
2762.056862	17388.714000	1128.083008	602.190125
2762.056862	17388.714000	1126.947266	636.306274
2762.056862	17388.714000	1125.811523	675.759277
2762.056862	17388.714000	1124.674805	536.271118
2762.056862	17388.714000	1123.539063	670.563416
2762.056862	17388.714000	1122.402344	450.772858
2762.056862	17388.714000	1121.265625	313.091614
2762.056862	17388.714000	1120.127930	329.855438
2762.056862	17388.714000	1118.990234	105.530312
2762.056862	17388.714000	1117.853516	89.078758
2762.056862	17388.714000	1116.714844	54.443775
2762.056862	17388.714000	1115.577148	12.258867
2762.056862	17388.714000	1114.439453	1.326460
2762.056862	17388.714000	1113.300781	-21.774162
2762.056862	17388.714000	1112.162109	-21.556665
2762.056862	17388.714000	1111.022461	26.239649
2762.056862	17388.714000	1109.883789	72.276161
2762.056862	17388.714000	1108.744141	132.612488
2762.056862	17388.714000	1107.604492	141.279541
2762.056862	17388.714000	1106.463867	263.501404
2762.056862	17388.714000	1105.324219	290.993347
2762.056862	17388.714000	1104.183594	347.945862
2762.056862	17388.714000	1103.042969	427.653137
2762.056862	17388.714000	1101.902344	523.073120
2762.056862	17388.714000	1100.760742	491.871674
2762.056862	17388.714000	1099.619141	557.762451
2762.056862	17388.714000	1098.477539	640.550232
2762.056862	17388.714000	1097.335938	682.485840
2762.056862	17388.714000	1096.193359	707.759277
2762.056862	17388.714000	1095.051758	599.927307
2762.056862	17388.714000	1093.909180	693.396790
2762.056862	17388.714000	1092.765625	679.154785
2762.056862	17388.714000	1091.623047	741.705322
2762.056862	17388.714000	1090.479492	588.048218
2762.056862	17388.714000	1089.335938	605.727722
2762.056862	17388.714000	1088.192383	454.955933
2762.056862	17388.714000	1087.047852	382.893372
2762.056862	17388.714000	1085.903320	540.855225
2762.056862	17388.714000	1084.758789	493.494232
2762.056862	17388.714000	1083.614258	407.286163
2762.056862	17388.714000	1082.469727	629.670837
2762.056862	17388.714000	1081.324219	594.531738
2762.056862	17388.714000	1080.178711	526.237732
2762.056862	17388.714000	1079.033203	561.771606
2762.056862	17388.714000	1077.886719	382.246948
2762.056862	17388.714000	1076.740234	509.041931
2762.056862	17388.714000	1075.593750	673.577942
2762.056862	17388.714000	1074.447266	469.938446
2762.056862	17388.714000	1073.300781	550.063416
2762.056862	17388.714000	1072.153320	491.351837
2762.056862	17388.714000	1071.005859	472.677979
2762.056862	17388.714000	1069.858398	498.904663
2762.056862	17388.714000	1068.709961	522.228455
2762.056862	17388.714000	1067.561523	530.856018
2762.056862	17388.714000	1066.413086	512.274414
2762.056862	17388.714000	1065.264648	809.115173
2762.056862	17388.714000	1064.116211	720.458008
2762.056862	17388.714000	1062.966797	744.867004
2762.056862	17388.714000	1061.817383	830.476563
2762.056862	17388.714000	1060.667969	900.693726
2762.056862	17388.714000	1059.517578	932.249023
2762.056862	17388.714000	1058.368164	979.039978
2762.056862	17388.714000	1057.217773	1094.900879
2762.056862	17388.714000	1056.067383	1089.077515
2762.056862	17388.714000	1054.916016	915.548889
2762.056862	17388.714000	1053.764648	1063.041382
2762.056862	17388.714000	1052.613281	1235.088379
2762.056862	17388.714000	1051.461914	1474.390991
2762.056862	17388.714000	1050.310547	1616.596680
2762.056862	17388.714000	1049.158203	1758.897583
2762.056862	17388.714000	1048.005859	1935.839600
2762.056862	17388.714000	1046.853516	2093.590820
2762.056862	17388.714000	1045.700195	1964.335083
2762.056862	17388.714000	1044.547852	2059.510498
2762.056862	17388.714000	1043.394531	2000.756226
2762.056862	17388.714000	1042.240234	2127.454590
2762.056862	17388.714000	1041.086914	2035.456909
2762.056862	17388.714000	1039.932617	2038.350586
2762.056862	17388.714000	1038.778320	2006.068726
2762.056862	17388.714000	1037.624023	2004.743286
2762.056862	17388.714000	1036.469727	1960.076904
2762.056862	17388.714000	1035.314453	1986.529663
2762.056862	17388.714000	1034.159180	1907.889893
2762.056862	17388.714000	1033.003906	1740.627563
2762.056862	17388.714000	1031.847656	1558.437744
2762.056862	17388.714000	1030.692383	1481.504761
2762.056862	17388.714000	1029.536133	1324.124268
2762.056862	17388.714000	1028.378906	1304.309082
2762.056862	17388.714000	1027.222656	1046.812744
2762.056862	17388.714000	1026.065430	1080.749512
2762.056862	17388.714000	1024.908203	938.426819
2762.056862	17388.714000	1023.750977	956.778687
2762.056862	17388.714000	1022.593750	1145.809692
2762.056862	17388.714000	1021.435547	1023.554382
2762.056862	17388.714000	1020.277344	1059.347290
2762.056862	17388.714000	1019.119141	919.100220
2762.056862	17388.714000	1017.959961	1003.874695
2762.056862	17388.714000	1016.800781	750.142395
2762.056862	17388.714000	1015.641602	819.938171
2762.056862	17388.714000	1014.482422	674.196472
2762.056862	17388.714000	1013.323242	694.545898
2762.056862	17388.714000	1012.163086	761.391174
2762.056862	17388.714000	1011.002930	664.161865
2762.056862	17388.714000	1009.842773	689.567749
2762.056862	17388.714000	1008.681641	772.056213
2762.056862	17388.714000	1007.520508	700.602173
2762.056862	17388.714000	1006.359375	771.641174
2762.056862	17388.714000	1005.198242	848.009949
2762.056862	17388.714000	1004.037109	862.642090
2762.056862	17388.714000	1002.875000	975.506714
2762.056862	17388.714000	1001.712891	893.569946
2762.056862	17388.714000	1000.550781	760.774109
2762.056862	17388.714000	999.387695	795.209167
2762.056862	17388.714000	998.224609	957.894287
2762.056862	17388.714000	997.061523	700.834534
2762.056862	17388.714000	995.898438	841.318970
2762.056862	17388.714000	994.734375	917.896057
2762.056862	17388.714000	993.571289	909.369507
2762.056862	17388.714000	992.407227	1074.236328
2762.056862	17388.714000	991.242188	1037.264893
2762.056862	17388.714000	990.078125	1155.992188
2762.056862	17388.714000	988.913086	1087.305176
2762.056862	17388.714000	987.748047	1092.921753
2762.056862	17388.714000	986.583008	1044.897705
2762.056862	17388.714000	985.416992	871.663513
2762.056862	17388.714000	984.250977	806.102478
2762.056862	17388.714000	983.084961	809.207153
2762.056862	17388.714000	981.918945	701.749268
2762.056862	17388.714000	980.751953	580.056152
2762.056862	17388.714000	979.584961	552.263794
2762.056862	17388.714000	978.417969	465.177277
2762.056862	17388.714000	977.250977	371.601563
2762.056862	17388.714000	976.083008	565.143799
2762.056862	17388.714000	974.915039	684.098816
2762.056862	17388.714000	973.747070	700.858582
2762.056862	17388.714000	972.579102	669.571960
2762.056862	17388.714000	971.410156	462.807587
2762.056862	17388.714000	970.242188	619.320068
2762.056862	17388.714000	969.072266	721.823792
2762.056862	17388.714000	967.903320	773.475403
2762.056862	17388.714000	966.733398	808.260864
2762.056862	17388.714000	965.563477	880.479858
2762.056862	17388.714000	964.393555	1100.211060
2762.056862	17388.714000	963.223633	1223.973511
2762.056862	17388.714000	962.052734	1213.257935
2762.056862	17388.714000	960.881836	1342.007080
2762.056862	17388.714000	959.710938	1429.446289
2762.056862	17388.714000	958.540039	1577.831909
2762.056862	17388.714000	957.368164	1739.906128
2762.056862	17388.714000	956.196289	1881.106445
2762.056862	17388.714000	955.024414	2233.958984
2762.056862	17388.714000	953.851563	2557.126465
2762.056862	17388.714000	952.679688	2906.556396
2762.056862	17388.714000	951.506836	3293.779053
2762.056862	17388.714000	950.333984	3110.887451
2762.056862	17388.714000	949.160156	2765.643311
2762.056862	17388.714000	947.986328	2712.391357
2762.056862	17388.714000	946.812500	2598.212891
2762.056862	17388.714000	945.638672	2021.764526
2762.056862	17388.714000	944.464844	1707.161377
2762.056862	17388.714000	943.290039	1791.033447
2762.056862	17388.714000	942.115234	1311.437378
2762.056862	17388.714000	940.940430	1081.979492
2762.056862	17388.714000	939.764648	896.028687
2762.056862	17388.714000	938.588867	780.823792
2762.056862	17388.714000	937.413086	804.441711
2762.056862	17388.714000	936.237305	708.588196
2762.056862	17388.714000	935.060547	767.425903
2762.056862	17388.714000	933.883789	622.976257
2762.056862	17388.714000	932.707031	259.027954
2762.056862	17388.714000	931.530273	509.650238
2762.056862	17388.714000	930.352539	613.435974
2762.056862	17388.714000	929.175781	504.159576
2762.056862	17388.714000	927.998047	501.332245
2762.056862	17388.714000	926.819336	424.240692
2762.056862	17388.714000	925.641602	564.721191
2762.056862	17388.714000	924.462891	426.253296
2762.056862	17388.714000	923.284180	534.344482
2762.056862	17388.714000	922.104492	265.257202
2762.056862	17388.714000	920.924805	400.593719
2762.056862	17388.714000	919.746094	399.235809
2762.056862	17388.714000	919.551758	389.006012
2762.056862	17388.714000	918.386719	224.600769
2762.056862	17388.714000	917.220703	498.145782
2762.056862	17388.714000	916.054688	407.700531
2762.056862	17388.714000	914.887695	219.049530
2762.056862	17388.714000	913.721680	349.023315
2762.056862	17388.714000	912.554688	182.861023
2762.056862	17388.714000	911.387695	200.073532
2762.056862	17388.714000	910.220703	183.450623
2762.056862	17388.714000	909.052734	99.248207
2762.056862	17388.714000	907.885742	215.964325
2762.056862	17388.714000	906.717773	75.431366
2762.056862	17388.714000	905.548828	151.826660
2762.056862	17388.714000	904.380859	-36.931606
2762.056862	17388.714000	903.211914	57.025818
2762.056862	17388.714000	902.042969	158.928894
2762.056862	17388.714000	900.874023	117.853493
2762.056862	17388.714000	899.704102	-35.615692
2762.056862	17388.714000	898.535156	106.237732
2762.056862	17388.714000	897.365234	69.885155
2762.056862	17388.714000	896.194336	-64.350594
2762.056862	17388.714000	895.024414	78.909172
2762.056862	17388.714000	893.853516	133.876831
2762.056862	17388.714000	892.682617	33.273815
2762.056862	17388.714000	891.511719	294.939606
2762.056862	17388.714000	890.340820	159.025192
2762.056862	17388.714000	889.168945	117.669655
2762.056862	17388.714000	887.997070	93.925537
2762.056862	17388.714000	886.825195	41.336380
2762.056862	17388.714000	885.653320	86.422310
2762.056862	17388.714000	884.480469	115.456062
2762.056862	17388.714000	883.307617	-34.812519
2762.056862	17388.714000	882.134766	48.603443
2762.056862	17388.714000	880.961914	-18.429296
2762.056862	17388.714000	879.788086	-152.639069
2762.056862	17388.714000	878.614258	-53.308243
2762.056862	17388.714000	877.440430	-89.945099
2762.056862	17388.714000	876.266602	20.496756
2762.056862	17388.714000	875.091797	108.504730
2762.056862	17388.714000	873.916992	-196.643005
2762.056862	17388.714000	872.742188	-52.724323
2762.056862	17388.714000	871.567383	-25.478025
2762.056862	17388.714000	870.391602	-62.131622
2762.056862	17388.714000	869.215820	-84.404037
2762.056862	17388.714000	868.040039	-9.289023
2762.056862	17388.714000	866.864258	32.276314
2762.056862	17388.714000	865.687500	-98.514694
2762.056862	17388.714000	864.510742	-230.845871
2762.056862	17388.714000	863.333984	-34.535225
2762.056862	17388.714000	862.157227	42.093323
2762.056862	17388.714000	860.979492	97.966476
2762.056862	17388.714000	859.802734	214.402649
2762.056862	17388.714000	858.625000	348.327148
2762.056862	17388.714000	857.446289	380.224670
2762.056862	17388.714000	856.268555	327.687897
2762.056862	17388.714000	855.089844	181.207581
2762.056862	17388.714000	853.911133	233.857529
2762.056862	17388.714000	852.731445	342.221588
2762.056862	17388.714000	851.552734	253.176544
2762.056862	17388.714000	850.373047	332.878174
2762.056862	17388.714000	849.193359	418.929413
2762.056862	17388.714000	848.013672	329.973969
2762.056862	17388.714000	846.833008	430.341766
2762.056862	17388.714000	845.652344	282.622955
2762.056862	17388.714000	844.471680	100.010956
2762.056862	17388.714000	843.291016	-103.167091
2762.056862	17388.714000	842.110352	-74.216835
2762.056862	17388.714000	840.928711	-26.189196
2762.056862	17388.714000	839.747070	167.989182
2762.056862	17388.714000	838.564453	117.530090
2762.056862	17388.714000	837.382813	-1.158230
2762.056862	17388.714000	836.200195	32.633991
2762.056862	17388.714000	835.017578	-103.391174
2762.056862	17388.714000	833.834961	27.269043
2762.056862	17388.714000	832.651367	73.816689
2762.056862	17388.714000	831.467773	-76.316826
2762.056862	17388.714000	830.284180	97.170036
2762.056862	17388.714000	829.100586	208.781906
2762.056862	17388.714000	827.916992	52.472607
2762.056862	17388.714000	826.732422	275.060425
2762.056862	17388.714000	825.547852	218.700134
2762.056862	17388.714000	824.363281	70.511520
2762.056862	17388.714000	823.177734	114.078506
2762.056862	17388.714000	821.992188	78.482460
2762.056862	17388.714000	820.806641	23.940744
2762.056862	17388.714000	819.621094	50.191185
2762.056862	17388.714000	818.434570	9.997429
2762.056862	17388.714000	817.249023	50.560257
2762.056862	17388.714000	816.062500	-76.547661
2762.056862	17388.714000	814.875000	-154.530869
2762.056862	17388.714000	813.688477	14.249587
2762.056862	17388.714000	812.500977	108.692703
2762.056862	17388.714000	811.313477	45.069736
2762.056862	17388.714000	810.125977	111.105621
2762.056862	17388.714000	808.937500	162.934189
2762.056862	17388.714000	807.749023	59.973022
2762.056862	17388.714000	806.560547	-11.314770
2762.056862	17388.714000	805.372070	18.530010
2762.056862	17388.714000	804.182617	-82.630249
2762.056862	17388.714000	802.994141	-139.508057
2762.056862	17388.714000	801.803711	-106.370056
2762.056862	17388.714000	800.614258	-278.308746
2762.056862	17388.714000	799.424805	-109.407158
2762.056862	17388.714000	798.234375	-115.590912
2762.056862	17388.714000	797.043945	43.832375
2762.056862	17388.714000	795.852539	-127.818794
2762.056862	17388.714000	794.662109	-23.534016
2762.056862	17388.714000	793.470703	11.416504
2762.056862	17388.714000	792.279297	188.188751
2762.056862	17388.714000	791.087891	294.051147
2762.056862	17388.714000	789.895508	434.558563
2762.056862	17388.714000	788.703125	301.090454
2762.056862	17388.714000	787.510742	288.931732
2762.056862	17388.714000	786.318359	325.610504
2762.056862	17388.714000	785.125000	266.333038
2762.056862	17388.714000	783.931641	392.758759
2762.056862	17388.714000	782.738281	300.547516
2762.056862	17388.714000	781.544922	353.088562
2762.056862	17388.714000	780.350586	272.014038
2762.056862	17388.714000	779.156250	393.785858
2762.056862	17388.714000	777.961914	352.106659
2762.056862	17388.714000	776.767578	723.718201
2762.056862	17388.714000	775.572266	790.461548
2762.056862	17388.714000	774.376953	832.087463
2762.056862	17388.714000	773.181641	859.603210
2762.056862	17388.714000	771.986328	618.689758
2762.056862	17388.714000	770.790039	503.482300
2762.056862	17388.714000	769.593750	432.299591
2762.056862	17388.714000	768.397461	350.201538
2762.056862	17388.714000	767.201172	412.485291
2762.056862	17388.714000	766.003906	286.584778
2762.056862	17388.714000	764.806641	196.835144
2762.056862	17388.714000	763.609375	237.269867
2762.056862	17388.714000	762.412109	204.058990
2762.056862	17388.714000	761.213867	305.654022
2762.056862	17388.714000	760.015625	274.072571
2762.056862	17388.714000	758.817383	313.020752
2762.056862	17388.714000	757.618164	549.299683
2762.056862	17388.714000	756.419922	243.783936
2762.056862	17388.714000	755.220703	256.189880
2762.056862	17388.714000	754.021484	212.277969
2762.056862	17388.714000	752.821289	252.904007
2762.056862	17388.714000	751.621094	188.725830
2762.056862	17388.714000	750.420898	-16.165821
2762.056862	17388.714000	749.220703	80.849068
2762.056862	17388.714000	748.020508	5.871928
2762.056862	17388.714000	746.819336	26.295595
2762.056862	17388.714000	745.618164	160.809937
2762.056862	17388.714000	744.416992	81.236031
2762.056862	17388.714000	743.214844	206.346588
2762.056862	17388.714000	742.012695	289.254181
2762.056862	17388.714000	740.810547	347.159729
2762.056862	17388.714000	739.608398	478.426178
2762.056862	17388.714000	738.406250	722.026917
2762.056862	17388.714000	737.203125	1049.802856
2762.056862	17388.714000	736.000000	1313.486572
2762.056862	17388.714000	734.795898	1569.268677
2762.056862	17388.714000	733.592773	1954.388794
2762.056862	17388.714000	732.388672	1933.972778
2762.056862	17388.714000	731.184570	1915.127930
2762.056862	17388.714000	729.979492	1943.049561
2762.056862	17388.714000	728.775391	1872.793823
2762.056862	17388.714000	727.570313	1699.750977
2762.056862	17388.714000	726.365234	1696.547729
2762.056862	17388.714000	725.160156	1455.091919
2762.056862	17388.714000	723.954102	1339.839478
2762.056862	17388.714000	722.748047	1304.012939
2762.056862	17388.714000	721.541992	1721.056152
2762.056862	17388.714000	720.334961	2060.119141
2762.056862	17388.714000	719.128906	2080.137207
2762.056862	17388.714000	717.921875	1966.382813
2762.056862	17388.714000	716.714844	1977.056030
2762.056862	17388.714000	715.506836	2096.529785
2762.056862	17388.714000	714.298828	2135.114502
2762.056862	17388.714000	713.090820	2430.065186
2762.056862	17388.714000	711.882813	2386.180908
2762.056862	17388.714000	710.674805	2275.501221
2762.056862	17388.714000	709.465820	2192.797119
2762.056862	17388.714000	708.256836	2026.258667
2762.056862	17388.714000	707.047852	1988.604248
2762.056862	17388.714000	705.837891	1936.967896
2762.056862	17388.714000	704.627930	1595.160034
2762.056862	17388.714000	703.417969	1386.878174
2762.056862	17388.714000	702.208008	1094.893921
2762.056862	17388.714000	700.998047	933.252563
2762.056862	17388.714000	699.787109	935.979614
2762.056862	17388.714000	698.576172	715.459961
2762.056862	17388.714000	697.364258	790.984741
2762.056862	17388.714000	696.153320	668.113525
2762.056862	17388.714000	694.941406	670.720581
2762.056862	17388.714000	693.729492	744.521851
2762.056862	17388.714000	692.516602	641.722534
2762.056862	17388.714000	691.304688	825.312012
2762.056862	17388.714000	690.091797	1066.037354
2762.056862	17388.714000	688.878906	1192.096069
2762.056862	17388.714000	687.665039	1376.834839
2762.056862	17388.714000	686.451172	1184.021240
2762.056862	17388.714000	685.237305	1329.902832
2762.056862	17388.714000	684.023438	1239.101563
2762.056862	17388.714000	682.809570	1265.756348
2762.056862	17388.714000	681.594727	1551.973389
2762.056862	17388.714000	680.379883	1859.633911
2762.056862	17388.714000	679.165039	2113.026123
2762.056862	17388.714000	677.949219	2221.055176
2762.056862	17388.714000	676.733398	2611.549561
2762.056862	17388.714000	675.517578	2455.279297
2762.056862	17388.714000	674.301758	2217.190430
2762.056862	17388.714000	673.084961	1989.923096
2762.056862	17388.714000	671.869141	1734.900269
2762.056862	17388.714000	670.651367	1552.399414
2762.056862	17388.714000	669.434570	1499.440308
2762.056862	17388.714000	668.216797	1492.672363
2762.056862	17388.714000	667.000000	1599.896973
2762.056862	17388.714000	665.781250	1596.014038
2762.056862	17388.714000	664.563477	1327.003052
2762.056862	17388.714000	663.344727	1278.315918
2762.056862	17388.714000	662.125977	980.029175
2762.056862	17388.714000	660.907227	1065.220581
2762.056862	17388.714000	659.688477	1000.933228
2762.056862	17388.714000	658.468750	955.042847
2762.056862	17388.714000	657.249023	972.168518
2762.056862	17388.714000	656.029297	958.410339
2762.056862	17388.714000	654.808594	873.787170
2762.056862	17388.714000	653.587891	1049.017090
2762.056862	17388.714000	652.367188	1168.707153
2762.056862	17388.714000	651.146484	1165.248535
2762.056862	17388.714000	649.924805	1169.363770
2762.056862	17388.714000	648.704102	1571.373535
2762.056862	17388.714000	647.482422	1572.100952
2762.056862	17388.714000	646.259766	1502.051147
2762.056862	17388.714000	645.037109	1557.843262
2762.056862	17388.714000	643.815430	1349.406738
2762.056862	17388.714000	642.591797	1252.994507
2762.056862	17388.714000	641.369141	989.215393
2762.056862	17388.714000	640.145508	1072.204712
2762.056862	17388.714000	638.921875	1061.453735
2762.056862	17388.714000	637.698242	950.886841
2762.056862	17388.714000	636.474609	1004.321472
2762.056862	17388.714000	635.250000	1092.864380
2762.056862	17388.714000	634.025391	1089.272705
2762.056862	17388.714000	632.800781	1034.980957
2762.056862	17388.714000	631.575195	1034.204346
2762.056862	17388.714000	630.349609	941.385681
2762.056862	17388.714000	629.124023	1105.767456
2762.056862	17388.714000	627.898438	1052.517700
2762.056862	17388.714000	626.671875	1009.868835
2762.056862	17388.714000	625.445313	939.552612
2762.056862	17388.714000	624.218750	1077.239136
2762.056862	17388.714000	622.992188	732.815613
2762.056862	17388.714000	621.764648	474.052063
2762.056862	17388.714000	620.537109	577.689758
2762.056862	17388.714000	619.309570	343.254456
2762.056862	17388.714000	618.081055	405.321869
2762.056862	17388.714000	616.852539	318.980286
2762.056862	17388.714000	615.624023	382.273285
2762.056862	17388.714000	614.395508	243.753296
2762.056862	17388.714000	613.166992	450.319458
2762.056862	17388.714000	611.937500	441.347931
2762.056862	17388.714000	610.708008	322.321381
2762.056862	17388.714000	609.477539	354.302338
2762.056862	17388.714000	608.248047	337.302032
2762.056862	17388.714000	607.017578	327.788513
2762.056862	17388.714000	605.787109	191.534088
2762.056862	17388.714000	604.555664	-18.012154
2762.056862	17388.714000	603.325195	37.692413
2762.056862	17388.714000	602.093750	-114.090942
2762.056862	17388.714000	600.861328	-64.782158
2762.056862	17388.714000	599.629883	54.461044
2762.056862	17388.714000	598.397461	-29.106380
2762.056862	17388.714000	597.165039	-88.410110
2762.056862	17388.714000	595.932617	-129.556046
2762.056862	17388.714000	594.699219	-62.739067
2762.056862	17388.714000	593.465820	-180.265198
2762.056862	17388.714000	592.232422	-188.311447
2762.056862	17388.714000	590.999023	-23.046942
2762.056862	17388.714000	589.764648	-11.631579
2762.056862	17388.714000	588.530273	7.246498
2762.056862	17388.714000	587.295898	16.856833
2762.056862	17388.714000	586.061523	56.732700
2762.056862	17388.714000	584.826172	126.845894
2762.056862	17388.714000	583.590820	-2.259606
2762.056862	17388.714000	582.355469	49.341286
2762.056862	17388.714000	581.119141	-23.764507
2762.056862	17388.714000	579.882813	3.254622
2762.056862	17388.714000	578.646484	198.656967
2762.056862	17388.714000	577.410156	178.309296
2762.056862	17388.714000	576.172852	151.766174
2762.056862	17388.714000	574.935547	135.731979
2762.056862	17388.714000	573.698242	230.317810
2762.056862	17388.714000	572.460938	297.444397
2762.056862	17388.714000	571.222656	256.760010
2762.056862	17388.714000	569.984375	61.349545
2762.056862	17388.714000	568.746094	393.346832
2762.056862	17388.714000	567.506836	338.677429
2762.056862	17388.714000	566.267578	259.681580
2762.056862	17388.714000	565.028320	310.872253
2762.056862	17388.714000	563.789063	313.475342
2762.056862	17388.714000	562.548828	361.385193
2762.056862	17388.714000	561.309570	465.188446
2762.056862	17388.714000	560.068359	352.418640
2762.056862	17388.714000	558.828125	371.244568
2762.056862	17388.714000	557.586914	314.323517
2762.056862	17388.714000	556.345703	198.351318
2762.056862	17388.714000	555.104492	416.507568
2762.056862	17388.714000	553.863281	422.840027
2762.056862	17388.714000	552.621094	361.063263
2762.056862	17388.714000	551.378906	337.010498
2762.056862	17388.714000	550.136719	246.416245
2762.056862	17388.714000	548.893555	364.219696
2762.056862	17388.714000	547.650391	512.104065
2762.056862	17388.714000	546.407227	167.660477
2762.056862	17388.714000	545.164063	315.391266
2762.056862	17388.714000	543.919922	223.031693
2762.056862	17388.714000	542.675781	100.477264
2762.056862	17388.714000	541.431641	-50.741161
2762.056862	17388.714000	540.186523	116.271881
2762.056862	17388.714000	538.941406	46.431767
2762.056862	17388.714000	537.696289	-3.824210
2762.056862	17388.714000	536.451172	120.739136
2762.056862	17388.714000	535.205078	144.241028
2762.056862	17388.714000	533.959961	-52.248661
2762.056862	17388.714000	532.712891	-9.209894
2762.056862	17388.714000	531.466797	238.602982
2762.056862	17388.714000	530.219727	108.372017
2762.056862	17388.714000	528.972656	47.423386
2762.056862	17388.714000	527.725586	174.608871
2762.056862	17388.714000	526.478516	155.782242
2762.056862	17388.714000	525.230469	63.237873
2762.056862	17388.714000	523.982422	73.004295
2762.056862	17388.714000	522.734375	-58.573360
2762.056862	17388.714000	521.485352	-86.364639
2762.056862	17388.714000	520.236328	63.226501
2762.056862	17388.714000	518.987305	229.301147
2762.056862	17388.714000	517.737305	213.528015
2762.056862	17388.714000	516.488281	337.490265
2762.056862	17388.714000	515.238281	270.699677
2762.056862	17388.714000	513.988281	534.284607
2762.056862	17388.714000	512.737305	490.063416
2762.056862	17388.714000	511.486328	654.513062
2762.056862	17388.714000	510.235352	911.968201
2762.056862	17388.714000	508.984375	642.826050
2762.056862	17388.714000	507.732422	279.360260
2762.056862	17388.714000	506.480469	117.043777
2762.056862	17388.714000	505.228516	121.272858
2762.056862	17388.714000	503.976563	34.142948
2762.056862	17388.714000	502.723633	58.009064
2762.056862	17388.714000	501.470703	212.289246
2762.056862	17388.714000	500.217773	297.689270
2762.056862	17388.714000	498.963867	546.366150
2762.056862	17388.714000	497.709961	717.177124
2762.056862	17388.714000	496.456055	891.009583
2762.056862	17388.714000	495.202148	729.640564
2762.056862	17388.714000	493.947266	982.904053
2762.056862	17388.714000	492.692383	764.954651
2762.056862	17388.714000	491.437500	686.311646
2762.056862	17388.714000	490.181641	580.900879
2762.056862	17388.714000	488.926758	696.928650
2762.056862	17388.714000	487.670898	573.888062
2762.056862	17388.714000	486.414063	609.427246
2762.056862	17388.714000	485.158203	743.704773
2762.056862	17388.714000	483.901367	839.226929
2762.056862	17388.714000	482.644531	1016.991882
2762.056862	17388.714000	481.386719	1182.883057
2762.056862	17388.714000	480.128906	1566.796631
2762.056862	17388.714000	478.871094	1850.717041
2762.056862	17388.714000	477.613281	1603.505371
2762.056862	17388.714000	476.355469	1566.906494
2762.056862	17388.714000	475.096680	1351.517944
2762.056862	17388.714000	473.837891	988.780579
2762.056862	17388.714000	472.578125	586.122192
2762.056862	17388.714000	471.319336	215.128998
2762.056862	17388.714000	470.059570	273.635315
2762.056862	17388.714000	468.799805	49.242214
2762.056862	17388.714000	467.539063	130.478943
2762.056862	17388.714000	466.278320	77.851227
2762.056862	17388.714000	465.017578	134.132034
2762.056862	17388.714000	463.756836	119.140091
2762.056862	17388.714000	462.495117	-7.264311
2762.056862	17388.714000	461.233398	167.145905
2762.056862	17388.714000	459.971680	-58.467361
2762.056862	17388.714000	458.709961	-17.556662
2762.056862	17388.714000	457.447266	1.238193
2762.056862	17388.714000	456.184570	-89.771255
2762.056862	17388.714000	454.921875	-37.845829
2762.056862	17388.714000	453.658203	20.210426
2762.056862	17388.714000	452.394531	-136.960114
2762.056862	17388.714000	451.130859	-197.302628
2762.056862	17388.714000	449.867188	-169.789841
2762.056862	17388.714000	448.602539	-146.530853
2762.056862	17388.714000	447.337891	-204.707321
2762.056862	17388.714000	446.073242	-253.741104
2762.056862	17388.714000	444.807617	-10.253386
2762.056862	17388.714000	443.542969	85.005035
2762.056862	17388.714000	442.276367	26.185638
2762.056862	17388.714000	441.010742	-47.224628
2762.056862	17388.714000	439.744141	73.797241
2762.056862	17388.714000	438.478516	151.990936
2762.056862	17388.714000	437.210938	129.581680
2762.056862	17388.714000	435.944336	310.343048
2762.056862	17388.714000	434.676758	424.562469
2762.056862	17388.714000	433.409180	269.410034
2762.056862	17388.714000	432.141602	407.647369
2762.056862	17388.714000	430.873047	218.879410
2762.056862	17388.714000	429.604492	271.583069
2762.056862	17388.714000	428.335938	161.678802
2762.056862	17388.714000	427.067383	235.404953
2762.056862	17388.714000	425.797852	287.066223
2762.056862	17388.714000	424.528320	250.134079
2762.056862	17388.714000	423.258789	344.918640
2762.056862	17388.714000	421.988281	368.847290
2762.056862	17388.714000	420.717773	454.944305
2762.056862	17388.714000	419.447266	385.994659
2762.056862	17388.714000	418.175781	522.472107
2762.056862	17388.714000	416.905273	419.758240
2762.056862	17388.714000	415.633789	435.270996
2762.056862	17388.714000	414.362305	363.753815
2762.056862	17388.714000	413.089844	482.682129
2762.056862	17388.714000	411.817383	411.269592
2762.056862	17388.714000	410.544922	513.967651
2762.056862	17388.714000	409.272461	565.011169
2762.056862	17388.714000	407.999023	701.537842
2762.056862	17388.714000	406.725586	345.631439
2762.056862	17388.714000	405.452148	502.710114
2762.056862	17388.714000	404.177734	522.626892
2762.056862	17388.714000	402.903320	490.893982
2762.056862	17388.714000	401.628906	419.307922
2762.056862	17388.714000	400.354492	359.412567
2762.056862	17388.714000	399.079102	287.620789
2762.056862	17388.714000	397.803711	442.362366
2762.056862	17388.714000	396.528320	577.716614
2762.056862	17388.714000	395.251953	486.230774
2762.056862	17388.714000	393.976563	507.806915
2762.056862	17388.714000	392.700195	561.459106
2762.056862	17388.714000	391.422852	511.876465
2762.056862	17388.714000	390.145508	384.086395
2762.056862	17388.714000	388.869141	264.823273
2762.056862	17388.714000	387.590820	209.874313
2762.056862	17388.714000	386.313477	82.560608
2762.056862	17388.714000	385.035156	57.659325
2762.056862	17388.714000	383.756836	66.061867
2762.056862	17388.714000	382.478516	106.242203
2762.056862	17388.714000	381.199219	156.124100
2762.056862	17388.714000	379.919922	52.786839
2762.056862	17388.714000	378.640625	141.052231
2762.056862	17388.714000	377.360352	-102.878967
2762.056862	17388.714000	376.080078	33.856064
2762.056862	17388.714000	374.799805	115.533211
2762.056862	17388.714000	373.519531	82.045181
2762.056862	17388.714000	372.238281	-78.309647
2762.056862	17388.714000	370.957031	-63.666946
2762.056862	17388.714000	369.675781	1.298205
2762.056862	17388.714000	368.394531	-249.624908
2762.056862	17388.714000	367.112305	-85.659523
2762.056862	17388.714000	365.830078	-41.435825
2762.056862	17388.714000	364.546875	-127.188820
2762.056862	17388.714000	363.264648	-61.922462
2762.056862	17388.714000	361.981445	-195.458069
2762.056862	17388.714000	360.698242	-178.151733
2762.056862	17388.714000	359.414063	-65.749146
2762.056862	17388.714000	358.129883	8.602893
2762.056862	17388.714000	356.845703	90.172798
2762.056862	17388.714000	355.561523	-44.694668
2762.056862	17388.714000	354.276367	-96.440842
2762.056862	17388.714000	352.991211	133.479767
2762.056862	17388.714000	351.706055	-50.325275
2762.056862	17388.714000	350.420898	108.646103
2762.056862	17388.714000	349.134766	296.222290
2762.056862	17388.714000	347.848633	204.391251
2762.056862	17388.714000	346.561523	28.743483
2762.056862	17388.714000	345.275391	-36.672054
2762.056862	17388.714000	343.988281	102.723061
2762.056862	17388.714000	342.700195	-53.442661
2762.056862	17388.714000	341.413086	8.159723
2762.056862	17388.714000	340.125000	153.128143
2762.056862	17388.714000	338.836914	126.340851
2762.056862	17388.714000	337.548828	277.462341
2762.056862	17388.714000	336.259766	135.761169
2762.056862	17388.714000	334.970703	132.414856
2762.056862	17388.714000	333.681641	246.843033
2762.056862	17388.714000	332.391602	87.250717
2762.056862	17388.714000	331.101563	224.226257
2762.056862	17388.714000	329.811523	101.663689
2762.056862	17388.714000	328.521484	20.729790
2762.056862	17388.714000	327.230469	68.472427
2762.056862	17388.714000	325.939453	118.244370
2762.056862	17388.714000	324.648438	21.641281
2762.056862	17388.714000	323.356445	-10.701119
2762.056862	17388.714000	322.064453	127.182617
2762.056862	17388.714000	320.772461	262.169128
2762.056862	17388.714000	319.480469	193.688629
2762.056862	17388.714000	318.187500	197.547577
2762.056862	17388.714000	316.894531	84.899765
2762.056862	17388.714000	315.601563	192.415680
2762.056862	17388.714000	314.307617	-43.347740
2762.056862	17388.714000	313.013672	95.937424
2762.056862	17388.714000	311.719727	31.107178
2762.056862	17388.714000	310.425781	2.866156
2762.056862	17388.714000	309.130859	-242.818634
2762.056862	17388.714000	307.835938	-41.964706
2762.056862	17388.714000	306.541016	-108.072754
2762.056862	17388.714000	305.245117	3.551326
2762.056862	17388.714000	303.949219	-125.921989
2762.056862	17388.714000	302.653320	42.246941
2762.056862	17388.714000	301.356445	-60.079136
2762.056862	17388.714000	300.060547	56.676907
2762.056862	17388.714000	298.763672	-74.165863
