#X		#Y		#Wave		#Intensity
2843.091968	17433.929000	2000.043945	-35.973106
2843.091968	17433.929000	1999.080078	-3.396110
2843.091968	17433.929000	1998.116211	-31.290913
2843.091968	17433.929000	1997.151367	-74.224480
2843.091968	17433.929000	1996.186523	-55.377449
2843.091968	17433.929000	1995.222656	30.175108
2843.091968	17433.929000	1994.256836	21.417454
2843.091968	17433.929000	1993.291992	29.835102
2843.091968	17433.929000	1992.327148	80.185799
2843.091968	17433.929000	1991.361328	105.616669
2843.091968	17433.929000	1990.395508	83.871201
2843.091968	17433.929000	1989.429688	22.403955
2843.091968	17433.929000	1988.463867	10.307067
2843.091968	17433.929000	1987.497070	45.085545
2843.091968	17433.929000	1986.531250	-83.497749
2843.091968	17433.929000	1985.564453	62.313232
2843.091968	17433.929000	1984.597656	76.930573
2843.091968	17433.929000	1983.630859	-19.793892
2843.091968	17433.929000	1982.664063	6.976414
2843.091968	17433.929000	1981.696289	-99.787041
2843.091968	17433.929000	1980.728516	50.310284
2843.091968	17433.929000	1979.761719	59.476212
2843.091968	17433.929000	1978.792969	21.631983
2843.091968	17433.929000	1977.825195	161.484650
2843.091968	17433.929000	1976.857422	-83.883209
2843.091968	17433.929000	1975.888672	68.121315
2843.091968	17433.929000	1974.919922	42.330223
2843.091968	17433.929000	1973.951172	58.421486
2843.091968	17433.929000	1972.982422	-11.892846
2843.091968	17433.929000	1972.013672	-50.181095
2843.091968	17433.929000	1971.043945	24.910585
2843.091968	17433.929000	1970.075195	129.504288
2843.091968	17433.929000	1969.105469	54.071693
2843.091968	17433.929000	1968.135742	5.726847
2843.091968	17433.929000	1967.165039	70.694145
2843.091968	17433.929000	1966.195313	93.716354
2843.091968	17433.929000	1965.224609	170.874771
2843.091968	17433.929000	1964.253906	90.363411
2843.091968	17433.929000	1963.283203	-24.622663
2843.091968	17433.929000	1962.312500	145.953339
2843.091968	17433.929000	1961.341797	131.846405
2843.091968	17433.929000	1960.370117	169.392426
2843.091968	17433.929000	1959.399414	24.839947
2843.091968	17433.929000	1958.427734	13.147701
2843.091968	17433.929000	1957.455078	112.109360
2843.091968	17433.929000	1956.483398	137.250244
2843.091968	17433.929000	1955.511719	-9.725974
2843.091968	17433.929000	1954.539063	135.838303
2843.091968	17433.929000	1953.566406	33.125351
2843.091968	17433.929000	1952.593750	41.008633
2843.091968	17433.929000	1951.621094	31.683821
2843.091968	17433.929000	1950.647461	12.529912
2843.091968	17433.929000	1949.674805	13.025051
2843.091968	17433.929000	1948.701172	25.791571
2843.091968	17433.929000	1947.727539	146.562180
2843.091968	17433.929000	1946.753906	9.582541
2843.091968	17433.929000	1945.780273	137.673416
2843.091968	17433.929000	1944.805664	-9.065367
2843.091968	17433.929000	1943.831055	30.679733
2843.091968	17433.929000	1942.856445	1.744461
2843.091968	17433.929000	1941.881836	14.511376
2843.091968	17433.929000	1940.907227	-63.428028
2843.091968	17433.929000	1939.932617	-35.931046
2843.091968	17433.929000	1938.957031	-40.295109
2843.091968	17433.929000	1937.981445	95.016594
2843.091968	17433.929000	1937.005859	83.302864
2843.091968	17433.929000	1936.030273	-70.454437
2843.091968	17433.929000	1935.054688	-6.192452
2843.091968	17433.929000	1934.078125	97.232613
2843.091968	17433.929000	1933.101563	97.820641
2843.091968	17433.929000	1932.125000	54.369713
2843.091968	17433.929000	1931.148438	40.315056
2843.091968	17433.929000	1930.171875	40.961983
2843.091968	17433.929000	1929.194336	-21.973591
2843.091968	17433.929000	1928.217773	-146.008713
2843.091968	17433.929000	1927.240234	13.664276
2843.091968	17433.929000	1926.262695	92.620041
2843.091968	17433.929000	1925.284180	110.457703
2843.091968	17433.929000	1924.306641	-30.540775
2843.091968	17433.929000	1923.328125	114.408821
2843.091968	17433.929000	1922.350586	-21.610922
2843.091968	17433.929000	1921.372070	-8.569202
2843.091968	17433.929000	1920.392578	-93.192780
2843.091968	17433.929000	1919.414063	-26.386139
2843.091968	17433.929000	1918.434570	-52.345486
2843.091968	17433.929000	1917.456055	7.149549
2843.091968	17433.929000	1916.476563	-16.323311
2843.091968	17433.929000	1915.497070	-20.248131
2843.091968	17433.929000	1914.516602	5.121527
2843.091968	17433.929000	1913.537109	-8.517708
2843.091968	17433.929000	1912.556641	58.335773
2843.091968	17433.929000	1911.576172	-23.526915
2843.091968	17433.929000	1910.595703	-41.963783
2843.091968	17433.929000	1909.615234	41.982563
2843.091968	17433.929000	1908.633789	-17.838934
2843.091968	17433.929000	1907.653320	36.880707
2843.091968	17433.929000	1906.671875	-27.746449
2843.091968	17433.929000	1905.690430	41.607037
2843.091968	17433.929000	1904.708984	20.869616
2843.091968	17433.929000	1903.727539	51.279785
2843.091968	17433.929000	1902.745117	37.889584
2843.091968	17433.929000	1901.762695	41.558006
2843.091968	17433.929000	1900.780273	-8.280231
2843.091968	17433.929000	1899.797852	85.434563
2843.091968	17433.929000	1898.815430	94.012550
2843.091968	17433.929000	1897.832031	-40.856060
2843.091968	17433.929000	1896.849609	-37.084164
2843.091968	17433.929000	1895.866211	-79.478447
2843.091968	17433.929000	1894.882813	135.759750
2843.091968	17433.929000	1893.898438	25.349920
2843.091968	17433.929000	1892.915039	31.602606
2843.091968	17433.929000	1891.930664	35.439201
2843.091968	17433.929000	1890.947266	-72.415306
2843.091968	17433.929000	1889.962891	-90.382759
2843.091968	17433.929000	1888.977539	42.173058
2843.091968	17433.929000	1887.993164	2.375421
2843.091968	17433.929000	1887.007813	-56.807320
2843.091968	17433.929000	1886.023438	112.097168
2843.091968	17433.929000	1885.038086	-27.106331
2843.091968	17433.929000	1884.051758	30.192930
2843.091968	17433.929000	1883.066406	-50.728634
2843.091968	17433.929000	1882.081055	38.089157
2843.091968	17433.929000	1881.094727	78.406311
2843.091968	17433.929000	1880.108398	118.716385
2843.091968	17433.929000	1879.122070	35.450333
2843.091968	17433.929000	1878.135742	87.880417
2843.091968	17433.929000	1877.148438	33.728062
2843.091968	17433.929000	1876.162109	-68.829132
2843.091968	17433.929000	1875.174805	29.608429
2843.091968	17433.929000	1874.187500	40.869652
2843.091968	17433.929000	1873.199219	144.097336
2843.091968	17433.929000	1872.211914	-4.363999
2843.091968	17433.929000	1871.223633	50.452148
2843.091968	17433.929000	1870.236328	-20.530622
2843.091968	17433.929000	1869.248047	-79.394157
2843.091968	17433.929000	1868.258789	-116.474670
2843.091968	17433.929000	1867.270508	78.534721
2843.091968	17433.929000	1866.282227	84.941338
2843.091968	17433.929000	1865.292969	-19.819094
2843.091968	17433.929000	1864.303711	95.322975
2843.091968	17433.929000	1863.314453	174.182190
2843.091968	17433.929000	1862.324219	108.094147
2843.091968	17433.929000	1861.334961	-56.979454
2843.091968	17433.929000	1860.344727	-69.897408
2843.091968	17433.929000	1859.354492	-20.057438
2843.091968	17433.929000	1858.364258	167.318954
2843.091968	17433.929000	1857.374023	52.998074
2843.091968	17433.929000	1856.383789	136.534286
2843.091968	17433.929000	1855.392578	92.190384
2843.091968	17433.929000	1854.401367	14.089667
2843.091968	17433.929000	1853.410156	68.618050
2843.091968	17433.929000	1852.418945	-23.938145
2843.091968	17433.929000	1851.426758	-39.346954
2843.091968	17433.929000	1850.435547	53.675774
2843.091968	17433.929000	1849.443359	64.730507
2843.091968	17433.929000	1848.451172	119.124695
2843.091968	17433.929000	1847.458984	101.228653
2843.091968	17433.929000	1846.466797	107.400963
2843.091968	17433.929000	1845.473633	50.957005
2843.091968	17433.929000	1844.480469	30.620811
2843.091968	17433.929000	1843.487305	210.019531
2843.091968	17433.929000	1842.494141	78.936577
2843.091968	17433.929000	1841.500977	106.656807
2843.091968	17433.929000	1840.506836	14.081457
2843.091968	17433.929000	1839.513672	65.805649
2843.091968	17433.929000	1838.519531	160.763458
2843.091968	17433.929000	1837.525391	-30.401499
2843.091968	17433.929000	1836.530273	-2.808571
2843.091968	17433.929000	1835.536133	-13.699826
2843.091968	17433.929000	1834.541016	21.032936
2843.091968	17433.929000	1833.545898	195.045181
2843.091968	17433.929000	1832.550781	85.572037
2843.091968	17433.929000	1831.555664	-57.506382
2843.091968	17433.929000	1830.560547	-42.113644
2843.091968	17433.929000	1829.564453	40.449100
2843.091968	17433.929000	1828.568359	118.149490
2843.091968	17433.929000	1827.572266	30.231951
2843.091968	17433.929000	1826.576172	31.073711
2843.091968	17433.929000	1825.580078	163.796646
2843.091968	17433.929000	1824.583008	159.747910
2843.091968	17433.929000	1823.585938	90.931458
2843.091968	17433.929000	1822.588867	-21.043011
2843.091968	17433.929000	1821.591797	130.619247
2843.091968	17433.929000	1820.594727	68.925903
2843.091968	17433.929000	1819.596680	55.131165
2843.091968	17433.929000	1818.599609	185.021500
2843.091968	17433.929000	1817.601563	92.102570
2843.091968	17433.929000	1816.603516	20.728264
2843.091968	17433.929000	1815.604492	76.217140
2843.091968	17433.929000	1814.606445	88.562538
2843.091968	17433.929000	1813.607422	115.218582
2843.091968	17433.929000	1812.608398	0.659450
2843.091968	17433.929000	1811.609375	230.567184
2843.091968	17433.929000	1810.610352	-68.216476
2843.091968	17433.929000	1809.610352	37.184429
2843.091968	17433.929000	1808.611328	25.353643
2843.091968	17433.929000	1807.611328	92.361046
2843.091968	17433.929000	1806.611328	187.976059
2843.091968	17433.929000	1805.610352	73.237595
2843.091968	17433.929000	1804.610352	-20.002140
2843.091968	17433.929000	1803.609375	187.696045
2843.091968	17433.929000	1802.608398	60.939655
2843.091968	17433.929000	1801.607422	129.966019
2843.091968	17433.929000	1800.606445	62.849365
2843.091968	17433.929000	1799.605469	10.028203
2843.091968	17433.929000	1798.603516	186.256058
2843.091968	17433.929000	1797.601563	54.597252
2843.091968	17433.929000	1796.599609	144.775009
2843.091968	17433.929000	1795.597656	10.686364
2843.091968	17433.929000	1794.595703	-4.180809
2843.091968	17433.929000	1793.592773	-2.409615
2843.091968	17433.929000	1792.589844	-22.143421
2843.091968	17433.929000	1791.587891	-89.583000
2843.091968	17433.929000	1790.583984	162.219147
2843.091968	17433.929000	1789.581055	11.283554
2843.091968	17433.929000	1788.577148	65.177498
2843.091968	17433.929000	1787.574219	171.387314
2843.091968	17433.929000	1786.570313	-24.867535
2843.091968	17433.929000	1785.566406	62.162575
2843.091968	17433.929000	1784.561523	108.642220
2843.091968	17433.929000	1783.557617	52.733006
2843.091968	17433.929000	1782.552734	61.019238
2843.091968	17433.929000	1781.547852	50.216621
2843.091968	17433.929000	1780.542969	60.764366
2843.091968	17433.929000	1779.538086	40.340435
2843.091968	17433.929000	1778.532227	50.767841
2843.091968	17433.929000	1777.527344	-50.572834
2843.091968	17433.929000	1776.521484	31.041281
2843.091968	17433.929000	1775.515625	12.778934
2843.091968	17433.929000	1774.508789	8.713925
2843.091968	17433.929000	1773.502930	40.219028
2843.091968	17433.929000	1772.496094	159.507431
2843.091968	17433.929000	1771.489258	36.535275
2843.091968	17433.929000	1770.482422	3.748190
2843.091968	17433.929000	1769.475586	27.869684
2843.091968	17433.929000	1768.467773	21.073385
2843.091968	17433.929000	1767.460938	52.179096
2843.091968	17433.929000	1766.453125	-134.998062
2843.091968	17433.929000	1765.445313	28.797762
2843.091968	17433.929000	1764.437500	95.263252
2843.091968	17433.929000	1763.428711	102.377480
2843.091968	17433.929000	1762.420898	-68.319397
2843.091968	17433.929000	1761.412109	14.527745
2843.091968	17433.929000	1760.403320	-108.830765
2843.091968	17433.929000	1759.393555	-49.820343
2843.091968	17433.929000	1758.384766	23.319881
2843.091968	17433.929000	1757.375000	-14.917679
2843.091968	17433.929000	1756.366211	131.452225
2843.091968	17433.929000	1755.356445	204.328522
2843.091968	17433.929000	1754.345703	-13.956392
2843.091968	17433.929000	1753.335938	-47.670811
2843.091968	17433.929000	1752.325195	46.299717
2843.091968	17433.929000	1751.315430	130.717438
2843.091968	17433.929000	1750.304688	66.066704
2843.091968	17433.929000	1749.292969	155.045670
2843.091968	17433.929000	1748.282227	-72.802765
2843.091968	17433.929000	1747.270508	-57.214779
2843.091968	17433.929000	1746.259766	95.353752
2843.091968	17433.929000	1745.248047	-40.408749
2843.091968	17433.929000	1744.235352	-60.451523
2843.091968	17433.929000	1743.223633	-12.060660
2843.091968	17433.929000	1742.211914	107.080971
2843.091968	17433.929000	1741.199219	56.152576
2843.091968	17433.929000	1740.186523	97.226639
2843.091968	17433.929000	1739.173828	-50.546745
2843.091968	17433.929000	1738.160156	-94.524635
2843.091968	17433.929000	1737.147461	83.182419
2843.091968	17433.929000	1736.133789	72.092506
2843.091968	17433.929000	1735.120117	-56.945202
2843.091968	17433.929000	1734.106445	-42.191208
2843.091968	17433.929000	1733.091797	10.203259
2843.091968	17433.929000	1732.078125	-50.587563
2843.091968	17433.929000	1731.063477	-5.397165
2843.091968	17433.929000	1730.048828	100.962814
2843.091968	17433.929000	1729.034180	80.045883
2843.091968	17433.929000	1728.019531	23.758591
2843.091968	17433.929000	1727.003906	99.267303
2843.091968	17433.929000	1725.988281	-37.151939
2843.091968	17433.929000	1724.972656	-91.209282
2843.091968	17433.929000	1723.957031	35.870026
2843.091968	17433.929000	1722.941406	179.311417
2843.091968	17433.929000	1721.924805	89.787903
2843.091968	17433.929000	1720.909180	110.771370
2843.091968	17433.929000	1719.892578	56.449715
2843.091968	17433.929000	1718.875977	58.509068
2843.091968	17433.929000	1717.858398	79.308296
2843.091968	17433.929000	1716.841797	-31.534769
2843.091968	17433.929000	1715.824219	-27.280333
2843.091968	17433.929000	1714.806641	75.569969
2843.091968	17433.929000	1713.789063	-122.267632
2843.091968	17433.929000	1712.770508	18.015240
2843.091968	17433.929000	1711.752930	-34.296539
2843.091968	17433.929000	1710.734375	-131.240982
2843.091968	17433.929000	1709.715820	-28.739828
2843.091968	17433.929000	1708.697266	38.478844
2843.091968	17433.929000	1707.678711	-6.973170
2843.091968	17433.929000	1706.659180	97.630730
2843.091968	17433.929000	1705.640625	0.497898
2843.091968	17433.929000	1704.621094	11.186502
2843.091968	17433.929000	1703.600586	-25.063841
2843.091968	17433.929000	1702.581055	-115.241287
2843.091968	17433.929000	1701.561523	21.838234
2843.091968	17433.929000	1700.541016	-42.648708
2843.091968	17433.929000	1699.520508	26.341013
2843.091968	17433.929000	1698.500000	22.666325
2843.091968	17433.929000	1697.478516	-79.391319
2843.091968	17433.929000	1696.458008	-41.003124
2843.091968	17433.929000	1695.436523	25.401075
2843.091968	17433.929000	1694.415039	23.879290
2843.091968	17433.929000	1693.393555	48.046829
2843.091968	17433.929000	1692.372070	41.755333
2843.091968	17433.929000	1691.349609	-6.677813
2843.091968	17433.929000	1690.327148	29.034599
2843.091968	17433.929000	1689.304688	141.832123
2843.091968	17433.929000	1688.282227	205.464355
2843.091968	17433.929000	1687.259766	63.401165
2843.091968	17433.929000	1686.236328	103.572060
2843.091968	17433.929000	1685.213867	199.755005
2843.091968	17433.929000	1684.190430	120.702011
2843.091968	17433.929000	1683.166016	85.996101
2843.091968	17433.929000	1682.142578	186.671326
2843.091968	17433.929000	1681.119141	-6.814016
2843.091968	17433.929000	1680.094727	135.761917
2843.091968	17433.929000	1679.070313	93.931435
2843.091968	17433.929000	1678.045898	245.692230
2843.091968	17433.929000	1677.020508	397.351532
2843.091968	17433.929000	1675.996094	285.436493
2843.091968	17433.929000	1674.970703	112.908981
2843.091968	17433.929000	1673.945313	47.634022
2843.091968	17433.929000	1672.919922	241.027786
2843.091968	17433.929000	1671.893555	77.822212
2843.091968	17433.929000	1670.868164	42.780052
2843.091968	17433.929000	1669.841797	128.823929
2843.091968	17433.929000	1668.815430	114.673943
2843.091968	17433.929000	1667.789063	-46.174072
2843.091968	17433.929000	1666.761719	128.194290
2843.091968	17433.929000	1665.735352	27.858004
2843.091968	17433.929000	1664.708008	206.743347
2843.091968	17433.929000	1663.680664	148.242950
2843.091968	17433.929000	1662.653320	-59.119522
2843.091968	17433.929000	1661.625000	70.758240
2843.091968	17433.929000	1660.597656	172.668808
2843.091968	17433.929000	1659.569336	188.498749
2843.091968	17433.929000	1658.541016	176.410309
2843.091968	17433.929000	1657.512695	150.361755
2843.091968	17433.929000	1656.483398	105.707275
2843.091968	17433.929000	1655.455078	200.424210
2843.091968	17433.929000	1654.425781	-13.793920
2843.091968	17433.929000	1653.396484	136.586349
2843.091968	17433.929000	1652.366211	45.452377
2843.091968	17433.929000	1651.336914	209.651260
2843.091968	17433.929000	1650.306641	218.285583
2843.091968	17433.929000	1649.276367	203.698471
2843.091968	17433.929000	1648.246094	219.256866
2843.091968	17433.929000	1647.215820	271.900482
2843.091968	17433.929000	1646.185547	433.489899
2843.091968	17433.929000	1645.154297	295.935364
2843.091968	17433.929000	1644.123047	367.026337
2843.091968	17433.929000	1643.091797	266.590759
2843.091968	17433.929000	1642.060547	219.472107
2843.091968	17433.929000	1641.028320	336.822784
2843.091968	17433.929000	1639.997070	326.744568
2843.091968	17433.929000	1638.964844	386.119568
2843.091968	17433.929000	1637.931641	299.600861
2843.091968	17433.929000	1636.899414	303.388916
2843.091968	17433.929000	1635.867188	270.140961
2843.091968	17433.929000	1634.833984	486.780396
2843.091968	17433.929000	1633.800781	370.208069
2843.091968	17433.929000	1632.767578	422.518005
2843.091968	17433.929000	1631.734375	470.178253
2843.091968	17433.929000	1630.700195	510.871948
2843.091968	17433.929000	1629.666016	327.327087
2843.091968	17433.929000	1628.631836	351.850647
2843.091968	17433.929000	1627.597656	364.810028
2843.091968	17433.929000	1626.563477	454.000427
2843.091968	17433.929000	1625.528320	406.873077
2843.091968	17433.929000	1624.493164	385.167206
2843.091968	17433.929000	1623.458008	532.017822
2843.091968	17433.929000	1622.422852	538.001465
2843.091968	17433.929000	1621.387695	569.373169
2843.091968	17433.929000	1620.351563	464.585175
2843.091968	17433.929000	1619.315430	645.918762
2843.091968	17433.929000	1618.279297	621.898499
2843.091968	17433.929000	1617.243164	604.812866
2843.091968	17433.929000	1616.207031	539.320679
2843.091968	17433.929000	1615.169922	344.758057
2843.091968	17433.929000	1614.132813	516.746033
2843.091968	17433.929000	1613.095703	631.067505
2843.091968	17433.929000	1612.058594	577.167603
2843.091968	17433.929000	1611.020508	560.147095
2843.091968	17433.929000	1609.983398	607.637695
2843.091968	17433.929000	1608.945313	728.796204
2843.091968	17433.929000	1607.907227	693.375488
2843.091968	17433.929000	1606.868164	814.488525
2843.091968	17433.929000	1605.830078	804.407104
2843.091968	17433.929000	1604.791016	757.523926
2843.091968	17433.929000	1603.751953	740.579102
2843.091968	17433.929000	1602.712891	882.349670
2843.091968	17433.929000	1601.673828	932.104919
2843.091968	17433.929000	1600.633789	869.200134
2843.091968	17433.929000	1599.594727	863.810608
2843.091968	17433.929000	1598.554688	865.328979
2843.091968	17433.929000	1597.513672	889.835510
2843.091968	17433.929000	1596.473633	953.413208
2843.091968	17433.929000	1595.433594	851.622864
2843.091968	17433.929000	1594.392578	839.442078
2843.091968	17433.929000	1593.351563	650.508972
2843.091968	17433.929000	1592.310547	796.801331
2843.091968	17433.929000	1591.268555	830.600891
2843.091968	17433.929000	1590.227539	944.728088
2843.091968	17433.929000	1589.185547	996.889282
2843.091968	17433.929000	1588.143555	1120.158081
2843.091968	17433.929000	1587.100586	988.858459
2843.091968	17433.929000	1586.058594	956.232239
2843.091968	17433.929000	1585.015625	737.967224
2843.091968	17433.929000	1583.972656	879.630371
2843.091968	17433.929000	1582.929688	968.567139
2843.091968	17433.929000	1581.886719	1114.772827
2843.091968	17433.929000	1580.843750	1059.392090
2843.091968	17433.929000	1579.799805	775.056152
2843.091968	17433.929000	1578.755859	877.800659
2843.091968	17433.929000	1577.711914	797.409485
2843.091968	17433.929000	1576.666992	852.107117
2843.091968	17433.929000	1575.623047	771.821533
2843.091968	17433.929000	1574.578125	789.968872
2843.091968	17433.929000	1573.533203	707.503113
2843.091968	17433.929000	1572.488281	577.082092
2843.091968	17433.929000	1571.443359	716.548279
2843.091968	17433.929000	1570.397461	625.106323
2843.091968	17433.929000	1569.351563	611.447327
2843.091968	17433.929000	1568.305664	625.253601
2843.091968	17433.929000	1567.259766	497.447052
2843.091968	17433.929000	1566.213867	502.214294
2843.091968	17433.929000	1565.166992	561.822754
2843.091968	17433.929000	1564.120117	710.498535
2843.091968	17433.929000	1563.073242	578.368530
2843.091968	17433.929000	1562.026367	555.888489
2843.091968	17433.929000	1560.978516	512.916260
2843.091968	17433.929000	1559.930664	609.176697
2843.091968	17433.929000	1558.883789	627.894958
2843.091968	17433.929000	1557.834961	530.327026
2843.091968	17433.929000	1556.787109	457.931854
2843.091968	17433.929000	1555.739258	545.190491
2843.091968	17433.929000	1554.690430	520.772095
2843.091968	17433.929000	1553.641602	491.853394
2843.091968	17433.929000	1552.592773	693.108215
2843.091968	17433.929000	1551.542969	554.917297
2843.091968	17433.929000	1550.494141	596.756104
2843.091968	17433.929000	1549.444336	672.777222
2843.091968	17433.929000	1548.394531	532.544861
2843.091968	17433.929000	1547.344727	451.597931
2843.091968	17433.929000	1546.293945	548.230103
2843.091968	17433.929000	1545.244141	713.138916
2843.091968	17433.929000	1544.193359	493.592224
2843.091968	17433.929000	1543.142578	469.776886
2843.091968	17433.929000	1542.090820	339.146820
2843.091968	17433.929000	1541.040039	438.243896
2843.091968	17433.929000	1539.988281	310.052612
2843.091968	17433.929000	1538.936523	393.311890
2843.091968	17433.929000	1537.884766	335.724823
2843.091968	17433.929000	1536.833008	316.834320
2843.091968	17433.929000	1535.780273	154.916779
2843.091968	17433.929000	1534.727539	202.028305
2843.091968	17433.929000	1533.674805	196.961761
2843.091968	17433.929000	1532.622070	182.875763
2843.091968	17433.929000	1531.569336	50.844925
2843.091968	17433.929000	1530.515625	177.579041
2843.091968	17433.929000	1529.461914	199.971268
2843.091968	17433.929000	1528.408203	317.672852
2843.091968	17433.929000	1527.354492	190.485962
2843.091968	17433.929000	1526.299805	231.174255
2843.091968	17433.929000	1525.246094	113.243240
2843.091968	17433.929000	1524.191406	88.330833
2843.091968	17433.929000	1523.136719	142.793671
2843.091968	17433.929000	1522.081055	170.107605
2843.091968	17433.929000	1521.026367	113.676025
2843.091968	17433.929000	1519.970703	136.580688
2843.091968	17433.929000	1518.915039	177.651596
2843.091968	17433.929000	1517.859375	198.397858
2843.091968	17433.929000	1516.802734	69.828270
2843.091968	17433.929000	1515.747070	185.747986
2843.091968	17433.929000	1514.690430	188.569855
2843.091968	17433.929000	1513.633789	103.246613
2843.091968	17433.929000	1512.577148	-29.466093
2843.091968	17433.929000	1511.519531	39.153233
2843.091968	17433.929000	1510.461914	30.957003
2843.091968	17433.929000	1509.405273	151.653320
2843.091968	17433.929000	1508.346680	186.497818
2843.091968	17433.929000	1507.289063	90.371590
2843.091968	17433.929000	1506.231445	177.300919
2843.091968	17433.929000	1505.172852	149.090668
2843.091968	17433.929000	1504.114258	69.031273
2843.091968	17433.929000	1503.055664	-17.700745
2843.091968	17433.929000	1501.996094	195.828033
2843.091968	17433.929000	1500.937500	88.934052
2843.091968	17433.929000	1499.877930	135.552872
2843.091968	17433.929000	1498.818359	137.111816
2843.091968	17433.929000	1497.757813	10.197370
2843.091968	17433.929000	1496.698242	7.410107
2843.091968	17433.929000	1495.637695	-22.360308
2843.091968	17433.929000	1494.577148	-18.242994
2843.091968	17433.929000	1493.516602	71.566887
2843.091968	17433.929000	1492.456055	-50.353848
2843.091968	17433.929000	1491.394531	53.078239
2843.091968	17433.929000	1490.333008	143.028656
2843.091968	17433.929000	1489.271484	86.667946
2843.091968	17433.929000	1488.209961	-23.624376
2843.091968	17433.929000	1487.148438	41.744087
2843.091968	17433.929000	1486.085938	-0.851414
2843.091968	17433.929000	1485.023438	39.880234
2843.091968	17433.929000	1483.960938	53.675945
2843.091968	17433.929000	1482.898438	152.993332
2843.091968	17433.929000	1481.834961	164.656113
2843.091968	17433.929000	1480.772461	151.660202
2843.091968	17433.929000	1479.708984	138.742401
2843.091968	17433.929000	1478.644531	211.294556
2843.091968	17433.929000	1477.581055	56.995277
2843.091968	17433.929000	1476.517578	284.644958
2843.091968	17433.929000	1475.453125	184.400665
2843.091968	17433.929000	1474.388672	214.554291
2843.091968	17433.929000	1473.323242	246.947586
2843.091968	17433.929000	1472.258789	315.359528
2843.091968	17433.929000	1471.193359	354.583618
2843.091968	17433.929000	1470.127930	340.143768
2843.091968	17433.929000	1469.062500	475.903778
2843.091968	17433.929000	1467.997070	591.437866
2843.091968	17433.929000	1466.930664	574.945618
2843.091968	17433.929000	1465.865234	540.503418
2843.091968	17433.929000	1464.798828	564.384583
2843.091968	17433.929000	1463.731445	671.050232
2843.091968	17433.929000	1462.665039	574.320007
2843.091968	17433.929000	1461.597656	936.031982
2843.091968	17433.929000	1460.530273	780.659180
2843.091968	17433.929000	1459.462891	594.756226
2843.091968	17433.929000	1458.395508	659.395874
2843.091968	17433.929000	1457.327148	741.479797
2843.091968	17433.929000	1456.259766	551.694092
2843.091968	17433.929000	1455.191406	803.773071
2843.091968	17433.929000	1454.123047	660.594116
2843.091968	17433.929000	1453.053711	691.192078
2843.091968	17433.929000	1451.985352	714.399841
2843.091968	17433.929000	1450.916016	606.859985
2843.091968	17433.929000	1449.846680	703.212341
2843.091968	17433.929000	1448.776367	695.978210
2843.091968	17433.929000	1447.707031	357.949493
2843.091968	17433.929000	1446.636719	422.019775
2843.091968	17433.929000	1445.566406	333.469116
2843.091968	17433.929000	1444.496094	520.041504
2843.091968	17433.929000	1443.425781	356.318329
2843.091968	17433.929000	1442.354492	429.159271
2843.091968	17433.929000	1441.283203	397.962311
2843.091968	17433.929000	1440.211914	494.532867
2843.091968	17433.929000	1439.140625	284.277527
2843.091968	17433.929000	1438.069336	163.598480
2843.091968	17433.929000	1436.997070	314.588593
2843.091968	17433.929000	1435.924805	121.016045
2843.091968	17433.929000	1434.852539	277.256622
2843.091968	17433.929000	1433.780273	186.064499
2843.091968	17433.929000	1432.707031	151.179794
2843.091968	17433.929000	1431.633789	-0.853730
2843.091968	17433.929000	1430.560547	1.687823
2843.091968	17433.929000	1429.487305	-14.950171
2843.091968	17433.929000	1428.413086	-31.793968
2843.091968	17433.929000	1427.339844	42.275677
2843.091968	17433.929000	1426.265625	-15.458988
2843.091968	17433.929000	1425.191406	203.980927
2843.091968	17433.929000	1424.116211	-24.488701
2843.091968	17433.929000	1423.041992	-10.254532
2843.091968	17433.929000	1421.966797	-146.153458
2843.091968	17433.929000	1420.891602	-196.721039
2843.091968	17433.929000	1419.816406	-99.222664
2843.091968	17433.929000	1418.740234	95.106926
2843.091968	17433.929000	1417.665039	-66.772896
2843.091968	17433.929000	1416.588867	32.831848
2843.091968	17433.929000	1415.512695	10.268089
2843.091968	17433.929000	1414.435547	131.578186
2843.091968	17433.929000	1413.359375	159.210251
2843.091968	17433.929000	1412.282227	177.237640
2843.091968	17433.929000	1411.205078	132.881516
2843.091968	17433.929000	1410.127930	81.435028
2843.091968	17433.929000	1409.049805	134.839249
2843.091968	17433.929000	1407.972656	250.771637
2843.091968	17433.929000	1406.894531	202.673294
2843.091968	17433.929000	1405.816406	332.815887
2843.091968	17433.929000	1404.737305	190.746155
2843.091968	17433.929000	1403.659180	345.148407
2843.091968	17433.929000	1402.580078	174.205887
2843.091968	17433.929000	1401.500977	108.364792
2843.091968	17433.929000	1400.421875	238.885513
2843.091968	17433.929000	1399.341797	259.463470
2843.091968	17433.929000	1398.262695	158.723831
2843.091968	17433.929000	1397.182617	303.367462
2843.091968	17433.929000	1396.102539	182.541397
2843.091968	17433.929000	1395.021484	230.864197
2843.091968	17433.929000	1393.941406	121.339867
2843.091968	17433.929000	1392.860352	73.096512
2843.091968	17433.929000	1391.779297	142.489441
2843.091968	17433.929000	1390.698242	156.196945
2843.091968	17433.929000	1389.616211	96.536530
2843.091968	17433.929000	1388.535156	115.949173
2843.091968	17433.929000	1387.453125	246.068375
2843.091968	17433.929000	1386.371094	239.596802
2843.091968	17433.929000	1385.288086	270.232025
2843.091968	17433.929000	1384.206055	113.368202
2843.091968	17433.929000	1383.123047	29.426338
2843.091968	17433.929000	1382.040039	155.067383
2843.091968	17433.929000	1380.957031	188.254745
2843.091968	17433.929000	1379.873047	130.442612
2843.091968	17433.929000	1378.789063	215.464600
2843.091968	17433.929000	1377.705078	288.440369
2843.091968	17433.929000	1376.621094	120.457840
2843.091968	17433.929000	1375.537109	206.207489
2843.091968	17433.929000	1374.452148	291.872711
2843.091968	17433.929000	1373.367188	264.792755
2843.091968	17433.929000	1372.282227	170.968063
2843.091968	17433.929000	1371.197266	192.856720
2843.091968	17433.929000	1370.112305	269.577362
2843.091968	17433.929000	1369.026367	311.619812
2843.091968	17433.929000	1367.940430	314.881073
2843.091968	17433.929000	1366.854492	262.168793
2843.091968	17433.929000	1365.767578	136.555435
2843.091968	17433.929000	1364.681641	238.233078
2843.091968	17433.929000	1363.594727	19.646917
2843.091968	17433.929000	1362.507813	241.934006
2843.091968	17433.929000	1361.419922	190.615662
2843.091968	17433.929000	1360.333008	185.068207
2843.091968	17433.929000	1359.245117	263.366577
2843.091968	17433.929000	1358.157227	313.163269
2843.091968	17433.929000	1357.069336	282.829803
2843.091968	17433.929000	1355.981445	287.214355
2843.091968	17433.929000	1354.892578	430.168060
2843.091968	17433.929000	1353.803711	412.630341
2843.091968	17433.929000	1352.714844	436.330658
2843.091968	17433.929000	1351.625000	455.546570
2843.091968	17433.929000	1350.536133	513.738098
2843.091968	17433.929000	1349.446289	495.352478
2843.091968	17433.929000	1348.356445	627.955322
2843.091968	17433.929000	1347.266602	506.671204
2843.091968	17433.929000	1346.175781	656.127380
2843.091968	17433.929000	1345.085938	595.683472
2843.091968	17433.929000	1343.995117	640.605774
2843.091968	17433.929000	1342.903320	710.454102
2843.091968	17433.929000	1341.812500	659.260986
2843.091968	17433.929000	1340.720703	697.002625
2843.091968	17433.929000	1339.629883	752.306213
2843.091968	17433.929000	1338.538086	815.270081
2843.091968	17433.929000	1337.445313	660.137024
2843.091968	17433.929000	1336.353516	724.907104
2843.091968	17433.929000	1335.260742	682.787659
2843.091968	17433.929000	1334.167969	635.824890
2843.091968	17433.929000	1333.075195	692.119385
2843.091968	17433.929000	1331.981445	559.056641
2843.091968	17433.929000	1330.888672	622.164734
2843.091968	17433.929000	1329.794922	632.357910
2843.091968	17433.929000	1328.701172	659.391724
2843.091968	17433.929000	1327.606445	643.351990
2843.091968	17433.929000	1326.512695	637.181519
2843.091968	17433.929000	1325.417969	586.455078
2843.091968	17433.929000	1324.323242	592.866455
2843.091968	17433.929000	1323.227539	669.047974
2843.091968	17433.929000	1322.132813	604.077026
2843.091968	17433.929000	1321.037109	650.090576
2843.091968	17433.929000	1319.941406	423.053802
2843.091968	17433.929000	1318.845703	563.734619
2843.091968	17433.929000	1317.750000	498.252716
2843.091968	17433.929000	1316.653320	593.282043
2843.091968	17433.929000	1315.556641	420.209625
2843.091968	17433.929000	1314.459961	492.164246
2843.091968	17433.929000	1313.363281	296.335327
2843.091968	17433.929000	1312.265625	413.440948
2843.091968	17433.929000	1311.167969	292.700928
2843.091968	17433.929000	1310.070313	291.437042
2843.091968	17433.929000	1308.972656	260.567200
2843.091968	17433.929000	1307.874023	446.966248
2843.091968	17433.929000	1306.776367	243.788620
2843.091968	17433.929000	1305.677734	416.648376
2843.091968	17433.929000	1304.579102	226.070007
2843.091968	17433.929000	1303.479492	315.329285
2843.091968	17433.929000	1302.380859	216.360779
2843.091968	17433.929000	1301.281250	297.083405
2843.091968	17433.929000	1300.181641	201.290543
2843.091968	17433.929000	1299.081055	303.364594
2843.091968	17433.929000	1297.981445	390.710602
2843.091968	17433.929000	1296.880859	355.969330
2843.091968	17433.929000	1295.780273	285.750519
2843.091968	17433.929000	1294.679688	302.046356
2843.091968	17433.929000	1293.578125	343.844208
2843.091968	17433.929000	1292.476563	355.292358
2843.091968	17433.929000	1291.375000	297.388794
2843.091968	17433.929000	1290.273438	310.496826
2843.091968	17433.929000	1289.171875	273.073364
2843.091968	17433.929000	1288.069336	296.061035
2843.091968	17433.929000	1286.966797	241.720825
2843.091968	17433.929000	1285.864258	286.392517
2843.091968	17433.929000	1284.761719	176.769974
2843.091968	17433.929000	1283.658203	267.252350
2843.091968	17433.929000	1282.554688	218.406219
2843.091968	17433.929000	1281.451172	318.366364
2843.091968	17433.929000	1280.347656	283.512634
2843.091968	17433.929000	1279.244141	322.547638
2843.091968	17433.929000	1278.139648	318.809570
2843.091968	17433.929000	1277.035156	225.120392
2843.091968	17433.929000	1275.930664	308.898987
2843.091968	17433.929000	1274.825195	357.997284
2843.091968	17433.929000	1273.720703	242.564468
2843.091968	17433.929000	1272.615234	196.171066
2843.091968	17433.929000	1271.508789	158.128586
2843.091968	17433.929000	1270.403320	186.488083
2843.091968	17433.929000	1269.297852	185.841217
2843.091968	17433.929000	1268.191406	112.304085
2843.091968	17433.929000	1267.084961	174.951492
2843.091968	17433.929000	1265.977539	200.252594
2843.091968	17433.929000	1264.871094	71.735451
2843.091968	17433.929000	1263.763672	196.997498
2843.091968	17433.929000	1262.656250	228.116974
2843.091968	17433.929000	1261.548828	270.322418
2843.091968	17433.929000	1260.440430	277.143555
2843.091968	17433.929000	1259.333008	244.524887
2843.091968	17433.929000	1258.224609	130.521927
2843.091968	17433.929000	1257.115234	304.324646
2843.091968	17433.929000	1256.006836	257.247223
2843.091968	17433.929000	1254.897461	129.933517
2843.091968	17433.929000	1253.788086	209.674698
2843.091968	17433.929000	1252.678711	226.154388
2843.091968	17433.929000	1251.569336	182.298386
2843.091968	17433.929000	1250.458984	229.226776
2843.091968	17433.929000	1249.349609	191.091629
2843.091968	17433.929000	1248.239258	208.625717
2843.091968	17433.929000	1247.127930	160.677689
2843.091968	17433.929000	1246.017578	205.951447
2843.091968	17433.929000	1244.906250	208.105499
2843.091968	17433.929000	1243.794922	174.097549
2843.091968	17433.929000	1242.683594	108.427650
2843.091968	17433.929000	1241.571289	164.530289
2843.091968	17433.929000	1240.459961	91.056213
2843.091968	17433.929000	1239.347656	147.738602
2843.091968	17433.929000	1238.234375	145.235214
2843.091968	17433.929000	1237.122070	116.939514
2843.091968	17433.929000	1236.008789	114.966972
2843.091968	17433.929000	1234.896484	115.524086
2843.091968	17433.929000	1233.782227	194.432648
2843.091968	17433.929000	1232.668945	93.323677
2843.091968	17433.929000	1231.555664	138.251755
2843.091968	17433.929000	1230.441406	88.214836
2843.091968	17433.929000	1229.327148	65.128731
2843.091968	17433.929000	1228.211914	76.149071
2843.091968	17433.929000	1227.097656	35.063053
2843.091968	17433.929000	1225.982422	21.733589
2843.091968	17433.929000	1224.867188	98.312889
2843.091968	17433.929000	1223.751953	85.553993
2843.091968	17433.929000	1222.635742	78.018272
2843.091968	17433.929000	1221.520508	27.280146
2843.091968	17433.929000	1220.404297	60.359661
2843.091968	17433.929000	1219.287109	52.752518
2843.091968	17433.929000	1218.170898	-4.156217
2843.091968	17433.929000	1217.053711	57.636833
2843.091968	17433.929000	1215.936523	46.082336
2843.091968	17433.929000	1214.819336	-33.136448
2843.091968	17433.929000	1213.702148	-22.483231
2843.091968	17433.929000	1212.583984	58.380600
2843.091968	17433.929000	1211.465820	-15.268045
2843.091968	17433.929000	1210.347656	-74.014931
2843.091968	17433.929000	1209.229492	31.010708
2843.091968	17433.929000	1208.110352	-20.832039
2843.091968	17433.929000	1206.992188	-46.127033
2843.091968	17433.929000	1205.873047	-64.584030
2843.091968	17433.929000	1204.752930	-12.010022
2843.091968	17433.929000	1203.633789	-24.358387
2843.091968	17433.929000	1202.513672	-62.661232
2843.091968	17433.929000	1201.393555	-58.883175
2843.091968	17433.929000	1200.273438	-109.291588
2843.091968	17433.929000	1199.152344	-59.904449
2843.091968	17433.929000	1198.032227	-30.608538
2843.091968	17433.929000	1196.911133	20.876390
2843.091968	17433.929000	1195.790039	-52.589962
2843.091968	17433.929000	1194.667969	-20.389385
2843.091968	17433.929000	1193.545898	53.248512
2843.091968	17433.929000	1192.424805	41.053188
2843.091968	17433.929000	1191.301758	38.731735
2843.091968	17433.929000	1190.179688	71.340240
2843.091968	17433.929000	1189.056641	72.586441
2843.091968	17433.929000	1187.933594	55.124165
2843.091968	17433.929000	1186.810547	64.151405
2843.091968	17433.929000	1185.687500	-20.321316
2843.091968	17433.929000	1184.563477	-71.437653
2843.091968	17433.929000	1183.440430	-34.856312
2843.091968	17433.929000	1182.316406	7.123902
2843.091968	17433.929000	1181.191406	39.870392
2843.091968	17433.929000	1180.067383	142.551239
2843.091968	17433.929000	1178.942383	-68.957161
2843.091968	17433.929000	1177.817383	-1.701478
2843.091968	17433.929000	1176.692383	15.707743
2843.091968	17433.929000	1175.566406	-16.387932
2843.091968	17433.929000	1174.440430	40.147537
2843.091968	17433.929000	1173.314453	-36.678215
2843.091968	17433.929000	1172.188477	122.180519
2843.091968	17433.929000	1171.062500	96.005806
2843.091968	17433.929000	1169.935547	32.462360
2843.091968	17433.929000	1168.808594	30.286446
2843.091968	17433.929000	1167.681641	-50.471313
2843.091968	17433.929000	1166.553711	30.439680
2843.091968	17433.929000	1165.426758	-48.540855
2843.091968	17433.929000	1164.298828	90.035690
2843.091968	17433.929000	1163.170898	104.053185
2843.091968	17433.929000	1162.041992	47.414974
2843.091968	17433.929000	1160.914063	16.437941
2843.091968	17433.929000	1159.785156	35.610073
2843.091968	17433.929000	1158.656250	92.133217
2843.091968	17433.929000	1157.526367	18.438477
2843.091968	17433.929000	1156.397461	-7.463214
2843.091968	17433.929000	1155.267578	-101.583549
2843.091968	17433.929000	1154.137695	-49.830929
2843.091968	17433.929000	1153.006836	-83.004295
2843.091968	17433.929000	1151.876953	-45.324932
2843.091968	17433.929000	1150.746094	-1.904818
2843.091968	17433.929000	1149.615234	-28.212772
2843.091968	17433.929000	1148.484375	-69.264023
2843.091968	17433.929000	1147.352539	-111.166214
2843.091968	17433.929000	1146.220703	-32.380760
2843.091968	17433.929000	1145.088867	68.695290
2843.091968	17433.929000	1143.957031	-40.442532
2843.091968	17433.929000	1142.825195	27.905903
2843.091968	17433.929000	1141.692383	31.686558
2843.091968	17433.929000	1140.559570	-37.444164
2843.091968	17433.929000	1139.426758	25.350109
2843.091968	17433.929000	1138.292969	-10.937850
2843.091968	17433.929000	1137.159180	-61.399593
2843.091968	17433.929000	1136.025391	-0.553236
2843.091968	17433.929000	1134.891602	-69.364632
2843.091968	17433.929000	1133.757813	-8.759602
2843.091968	17433.929000	1132.623047	62.526012
2843.091968	17433.929000	1131.488281	51.440838
2843.091968	17433.929000	1130.353516	79.975082
2843.091968	17433.929000	1129.217773	-14.064678
2843.091968	17433.929000	1128.083008	34.633629
2843.091968	17433.929000	1126.947266	-31.025354
2843.091968	17433.929000	1125.811523	104.646408
2843.091968	17433.929000	1124.674805	53.543289
2843.091968	17433.929000	1123.539063	79.583054
2843.091968	17433.929000	1122.402344	27.864977
2843.091968	17433.929000	1121.265625	69.369698
2843.091968	17433.929000	1120.127930	84.747353
2843.091968	17433.929000	1118.990234	73.163696
2843.091968	17433.929000	1117.853516	59.083408
2843.091968	17433.929000	1116.714844	105.761940
2843.091968	17433.929000	1115.577148	155.560593
2843.091968	17433.929000	1114.439453	140.788651
2843.091968	17433.929000	1113.300781	152.149353
2843.091968	17433.929000	1112.162109	109.406776
2843.091968	17433.929000	1111.022461	241.503860
2843.091968	17433.929000	1109.883789	145.086075
2843.091968	17433.929000	1108.744141	162.561188
2843.091968	17433.929000	1107.604492	114.900459
2843.091968	17433.929000	1106.463867	164.802078
2843.091968	17433.929000	1105.324219	251.880981
2843.091968	17433.929000	1104.183594	197.160019
2843.091968	17433.929000	1103.042969	363.075348
2843.091968	17433.929000	1101.902344	402.868713
2843.091968	17433.929000	1100.760742	305.873535
2843.091968	17433.929000	1099.619141	275.521667
2843.091968	17433.929000	1098.477539	381.120300
2843.091968	17433.929000	1097.335938	368.155334
2843.091968	17433.929000	1096.193359	364.082153
2843.091968	17433.929000	1095.051758	583.782776
2843.091968	17433.929000	1093.909180	455.624756
2843.091968	17433.929000	1092.765625	404.188293
2843.091968	17433.929000	1091.623047	407.593781
2843.091968	17433.929000	1090.479492	339.509521
2843.091968	17433.929000	1089.335938	445.128326
2843.091968	17433.929000	1088.192383	304.383942
2843.091968	17433.929000	1087.047852	318.726135
2843.091968	17433.929000	1085.903320	351.617889
2843.091968	17433.929000	1084.758789	288.824463
2843.091968	17433.929000	1083.614258	256.803467
2843.091968	17433.929000	1082.469727	231.821655
2843.091968	17433.929000	1081.324219	190.622635
2843.091968	17433.929000	1080.178711	305.527924
2843.091968	17433.929000	1079.033203	251.699753
2843.091968	17433.929000	1077.886719	272.827515
2843.091968	17433.929000	1076.740234	-14.459622
2843.091968	17433.929000	1075.593750	95.028923
2843.091968	17433.929000	1074.447266	162.852356
2843.091968	17433.929000	1073.300781	44.296955
2843.091968	17433.929000	1072.153320	152.870850
2843.091968	17433.929000	1071.005859	59.610592
2843.091968	17433.929000	1069.858398	101.260941
2843.091968	17433.929000	1068.709961	105.659081
2843.091968	17433.929000	1067.561523	92.975403
2843.091968	17433.929000	1066.413086	105.735458
2843.091968	17433.929000	1065.264648	62.830517
2843.091968	17433.929000	1064.116211	155.238754
2843.091968	17433.929000	1062.966797	130.584854
2843.091968	17433.929000	1061.817383	89.590103
2843.091968	17433.929000	1060.667969	168.366501
2843.091968	17433.929000	1059.517578	111.961494
2843.091968	17433.929000	1058.368164	171.533569
2843.091968	17433.929000	1057.217773	140.451874
2843.091968	17433.929000	1056.067383	176.406097
2843.091968	17433.929000	1054.916016	77.269325
2843.091968	17433.929000	1053.764648	104.553047
2843.091968	17433.929000	1052.613281	97.369263
2843.091968	17433.929000	1051.461914	193.321167
2843.091968	17433.929000	1050.310547	202.202393
2843.091968	17433.929000	1049.158203	291.472839
2843.091968	17433.929000	1048.005859	177.937103
2843.091968	17433.929000	1046.853516	312.778931
2843.091968	17433.929000	1045.700195	286.355652
2843.091968	17433.929000	1044.547852	351.527863
2843.091968	17433.929000	1043.394531	277.207275
2843.091968	17433.929000	1042.240234	161.640060
2843.091968	17433.929000	1041.086914	140.332535
2843.091968	17433.929000	1039.932617	81.262131
2843.091968	17433.929000	1038.778320	112.603249
2843.091968	17433.929000	1037.624023	157.463501
2843.091968	17433.929000	1036.469727	199.248810
2843.091968	17433.929000	1035.314453	125.229446
2843.091968	17433.929000	1034.159180	194.456299
2843.091968	17433.929000	1033.003906	221.183975
2843.091968	17433.929000	1031.847656	208.342789
2843.091968	17433.929000	1030.692383	154.753311
2843.091968	17433.929000	1029.536133	214.293091
2843.091968	17433.929000	1028.378906	138.182007
2843.091968	17433.929000	1027.222656	68.206520
2843.091968	17433.929000	1026.065430	54.357380
2843.091968	17433.929000	1024.908203	21.820900
2843.091968	17433.929000	1023.750977	54.636826
2843.091968	17433.929000	1022.593750	93.928894
2843.091968	17433.929000	1021.435547	33.864105
2843.091968	17433.929000	1020.277344	26.702091
2843.091968	17433.929000	1019.119141	37.919121
2843.091968	17433.929000	1017.959961	111.175316
2843.091968	17433.929000	1016.800781	-63.816513
2843.091968	17433.929000	1015.641602	-60.465847
2843.091968	17433.929000	1014.482422	1.424784
2843.091968	17433.929000	1013.323242	-68.932022
2843.091968	17433.929000	1012.163086	59.101814
2843.091968	17433.929000	1011.002930	82.821678
2843.091968	17433.929000	1009.842773	-54.931393
2843.091968	17433.929000	1008.681641	-33.848976
2843.091968	17433.929000	1007.520508	-98.612190
2843.091968	17433.929000	1006.359375	-46.848759
2843.091968	17433.929000	1005.198242	9.254012
2843.091968	17433.929000	1004.037109	57.980007
2843.091968	17433.929000	1002.875000	67.125870
2843.091968	17433.929000	1001.712891	33.702454
2843.091968	17433.929000	1000.550781	77.998032
2843.091968	17433.929000	999.387695	5.653449
2843.091968	17433.929000	998.224609	64.412498
2843.091968	17433.929000	997.061523	-9.319345
2843.091968	17433.929000	995.898438	84.979584
2843.091968	17433.929000	994.734375	-35.878536
2843.091968	17433.929000	993.571289	-57.928143
2843.091968	17433.929000	992.407227	-17.543135
2843.091968	17433.929000	991.242188	-74.312225
2843.091968	17433.929000	990.078125	-49.136494
2843.091968	17433.929000	988.913086	-79.217537
2843.091968	17433.929000	987.748047	-60.427677
2843.091968	17433.929000	986.583008	8.621944
2843.091968	17433.929000	985.416992	-30.949467
2843.091968	17433.929000	984.250977	-39.518589
2843.091968	17433.929000	983.084961	-60.346962
2843.091968	17433.929000	981.918945	9.127608
2843.091968	17433.929000	980.751953	55.522320
2843.091968	17433.929000	979.584961	91.841393
2843.091968	17433.929000	978.417969	28.836960
2843.091968	17433.929000	977.250977	7.830479
2843.091968	17433.929000	976.083008	42.306782
2843.091968	17433.929000	974.915039	45.739849
2843.091968	17433.929000	973.747070	-34.361843
2843.091968	17433.929000	972.579102	51.076572
2843.091968	17433.929000	971.410156	-8.180334
2843.091968	17433.929000	970.242188	-50.601650
2843.091968	17433.929000	969.072266	-22.040998
2843.091968	17433.929000	967.903320	70.801849
2843.091968	17433.929000	966.733398	-58.463615
2843.091968	17433.929000	965.563477	15.120539
2843.091968	17433.929000	964.393555	91.433861
2843.091968	17433.929000	963.223633	13.980413
2843.091968	17433.929000	962.052734	-17.603258
2843.091968	17433.929000	960.881836	65.666687
2843.091968	17433.929000	959.710938	-45.381474
2843.091968	17433.929000	958.540039	101.763138
2843.091968	17433.929000	957.368164	-10.465599
2843.091968	17433.929000	956.196289	108.527992
2843.091968	17433.929000	955.024414	39.285069
2843.091968	17433.929000	953.851563	65.056366
2843.091968	17433.929000	952.679688	41.366188
2843.091968	17433.929000	951.506836	3.933149
2843.091968	17433.929000	950.333984	29.679136
2843.091968	17433.929000	949.160156	60.059925
2843.091968	17433.929000	947.986328	42.034027
2843.091968	17433.929000	946.812500	43.182621
2843.091968	17433.929000	945.638672	41.735313
2843.091968	17433.929000	944.464844	65.520828
2843.091968	17433.929000	943.290039	157.477325
2843.091968	17433.929000	942.115234	52.777187
2843.091968	17433.929000	940.940430	51.498669
2843.091968	17433.929000	939.764648	48.405567
2843.091968	17433.929000	938.588867	-31.354605
2843.091968	17433.929000	937.413086	-34.437019
2843.091968	17433.929000	936.237305	-68.765411
2843.091968	17433.929000	935.060547	12.638338
2843.091968	17433.929000	933.883789	48.602921
2843.091968	17433.929000	932.707031	-57.861820
2843.091968	17433.929000	931.530273	-17.743097
2843.091968	17433.929000	930.352539	38.861973
2843.091968	17433.929000	929.175781	50.030167
2843.091968	17433.929000	927.998047	50.859650
2843.091968	17433.929000	926.819336	39.306053
2843.091968	17433.929000	925.641602	99.972527
2843.091968	17433.929000	924.462891	135.851257
2843.091968	17433.929000	923.284180	37.614201
2843.091968	17433.929000	922.104492	38.419086
2843.091968	17433.929000	920.924805	121.713768
2843.091968	17433.929000	919.746094	123.400703
2843.091968	17433.929000	919.551758	75.342743
2843.091968	17433.929000	918.386719	-53.776340
2843.091968	17433.929000	917.220703	54.184937
2843.091968	17433.929000	916.054688	-64.584831
2843.091968	17433.929000	914.887695	-4.063735
2843.091968	17433.929000	913.721680	-48.628998
2843.091968	17433.929000	912.554688	-25.218281
2843.091968	17433.929000	911.387695	-86.244057
2843.091968	17433.929000	910.220703	-180.189697
2843.091968	17433.929000	909.052734	28.456894
2843.091968	17433.929000	907.885742	16.826841
2843.091968	17433.929000	906.717773	-5.090339
2843.091968	17433.929000	905.548828	53.218533
2843.091968	17433.929000	904.380859	-30.405451
2843.091968	17433.929000	903.211914	-97.550934
2843.091968	17433.929000	902.042969	-24.886726
2843.091968	17433.929000	900.874023	43.631115
2843.091968	17433.929000	899.704102	1.153800
2843.091968	17433.929000	898.535156	-33.095711
2843.091968	17433.929000	897.365234	-32.417561
2843.091968	17433.929000	896.194336	-39.958740
2843.091968	17433.929000	895.024414	-63.929379
2843.091968	17433.929000	893.853516	10.637923
2843.091968	17433.929000	892.682617	-9.239588
2843.091968	17433.929000	891.511719	24.235424
2843.091968	17433.929000	890.340820	16.660097
2843.091968	17433.929000	889.168945	70.616219
2843.091968	17433.929000	887.997070	-41.561565
2843.091968	17433.929000	886.825195	26.723864
2843.091968	17433.929000	885.653320	62.177544
2843.091968	17433.929000	884.480469	-8.959098
2843.091968	17433.929000	883.307617	65.407372
2843.091968	17433.929000	882.134766	-20.053673
2843.091968	17433.929000	880.961914	-9.222162
2843.091968	17433.929000	879.788086	-39.355244
2843.091968	17433.929000	878.614258	-153.423447
2843.091968	17433.929000	877.440430	-40.243717
2843.091968	17433.929000	876.266602	111.765900
2843.091968	17433.929000	875.091797	34.546951
2843.091968	17433.929000	873.916992	-69.240700
2843.091968	17433.929000	872.742188	101.069366
2843.091968	17433.929000	871.567383	17.744654
2843.091968	17433.929000	870.391602	22.357531
2843.091968	17433.929000	869.215820	12.652828
2843.091968	17433.929000	868.040039	54.034264
2843.091968	17433.929000	866.864258	-23.111532
2843.091968	17433.929000	865.687500	69.314629
2843.091968	17433.929000	864.510742	86.129845
2843.091968	17433.929000	863.333984	104.972206
2843.091968	17433.929000	862.157227	44.180965
2843.091968	17433.929000	860.979492	69.132614
2843.091968	17433.929000	859.802734	-81.430077
2843.091968	17433.929000	858.625000	121.019409
2843.091968	17433.929000	857.446289	-27.466810
2843.091968	17433.929000	856.268555	-24.987728
2843.091968	17433.929000	855.089844	8.067593
2843.091968	17433.929000	853.911133	90.025085
2843.091968	17433.929000	852.731445	-52.252499
2843.091968	17433.929000	851.552734	1.138341
2843.091968	17433.929000	850.373047	40.238159
2843.091968	17433.929000	849.193359	-40.862934
2843.091968	17433.929000	848.013672	-44.554726
2843.091968	17433.929000	846.833008	-29.929600
2843.091968	17433.929000	845.652344	-45.854458
2843.091968	17433.929000	844.471680	-82.134621
2843.091968	17433.929000	843.291016	-157.071030
2843.091968	17433.929000	842.110352	-61.100342
2843.091968	17433.929000	840.928711	65.330986
2843.091968	17433.929000	839.747070	22.917112
2843.091968	17433.929000	838.564453	-52.019379
2843.091968	17433.929000	837.382813	27.547741
2843.091968	17433.929000	836.200195	9.523048
2843.091968	17433.929000	835.017578	36.195457
2843.091968	17433.929000	833.834961	-24.506495
2843.091968	17433.929000	832.651367	54.946259
2843.091968	17433.929000	831.467773	16.579464
2843.091968	17433.929000	830.284180	69.574585
2843.091968	17433.929000	829.100586	55.554005
2843.091968	17433.929000	827.916992	84.142548
2843.091968	17433.929000	826.732422	66.042542
2843.091968	17433.929000	825.547852	-55.516605
2843.091968	17433.929000	824.363281	-24.932053
2843.091968	17433.929000	823.177734	-83.589874
2843.091968	17433.929000	821.992188	-71.282623
2843.091968	17433.929000	820.806641	-77.236069
2843.091968	17433.929000	819.621094	-58.883514
2843.091968	17433.929000	818.434570	40.488029
2843.091968	17433.929000	817.249023	81.061844
2843.091968	17433.929000	816.062500	32.497982
2843.091968	17433.929000	814.875000	103.400696
2843.091968	17433.929000	813.688477	18.384977
2843.091968	17433.929000	812.500977	34.585892
2843.091968	17433.929000	811.313477	30.529835
2843.091968	17433.929000	810.125977	-14.001665
2843.091968	17433.929000	808.937500	22.376637
2843.091968	17433.929000	807.749023	107.257568
2843.091968	17433.929000	806.560547	56.625786
2843.091968	17433.929000	805.372070	3.976680
2843.091968	17433.929000	804.182617	-38.561398
2843.091968	17433.929000	802.994141	74.484184
2843.091968	17433.929000	801.803711	-67.071465
2843.091968	17433.929000	800.614258	-49.027767
2843.091968	17433.929000	799.424805	110.342728
2843.091968	17433.929000	798.234375	-6.958181
2843.091968	17433.929000	797.043945	128.080917
2843.091968	17433.929000	795.852539	156.089233
2843.091968	17433.929000	794.662109	153.802780
2843.091968	17433.929000	793.470703	177.722397
2843.091968	17433.929000	792.279297	94.723282
2843.091968	17433.929000	791.087891	124.656799
2843.091968	17433.929000	789.895508	11.425028
2843.091968	17433.929000	788.703125	-7.047929
2843.091968	17433.929000	787.510742	97.389069
2843.091968	17433.929000	786.318359	30.512667
2843.091968	17433.929000	785.125000	42.201439
2843.091968	17433.929000	783.931641	55.878571
2843.091968	17433.929000	782.738281	127.919823
2843.091968	17433.929000	781.544922	-49.707253
2843.091968	17433.929000	780.350586	137.003296
2843.091968	17433.929000	779.156250	21.784304
2843.091968	17433.929000	777.961914	176.170700
2843.091968	17433.929000	776.767578	159.504547
2843.091968	17433.929000	775.572266	251.414780
2843.091968	17433.929000	774.376953	85.916031
2843.091968	17433.929000	773.181641	57.151161
2843.091968	17433.929000	771.986328	106.753731
2843.091968	17433.929000	770.790039	-28.541435
2843.091968	17433.929000	769.593750	-25.191797
2843.091968	17433.929000	768.397461	68.512390
2843.091968	17433.929000	767.201172	105.929321
2843.091968	17433.929000	766.003906	16.827419
2843.091968	17433.929000	764.806641	104.370903
2843.091968	17433.929000	763.609375	135.663559
2843.091968	17433.929000	762.412109	66.600677
2843.091968	17433.929000	761.213867	234.242630
2843.091968	17433.929000	760.015625	185.193146
2843.091968	17433.929000	758.817383	53.929092
2843.091968	17433.929000	757.618164	97.102058
2843.091968	17433.929000	756.419922	62.064449
2843.091968	17433.929000	755.220703	107.168999
2843.091968	17433.929000	754.021484	246.390640
2843.091968	17433.929000	752.821289	195.240280
2843.091968	17433.929000	751.621094	242.211960
2843.091968	17433.929000	750.420898	114.947075
2843.091968	17433.929000	749.220703	135.839020
2843.091968	17433.929000	748.020508	130.677124
2843.091968	17433.929000	746.819336	269.556213
2843.091968	17433.929000	745.618164	244.307831
2843.091968	17433.929000	744.416992	249.043594
2843.091968	17433.929000	743.214844	193.758179
2843.091968	17433.929000	742.012695	208.441391
2843.091968	17433.929000	740.810547	211.096970
2843.091968	17433.929000	739.608398	225.713028
2843.091968	17433.929000	738.406250	284.250336
2843.091968	17433.929000	737.203125	330.747894
2843.091968	17433.929000	736.000000	489.038879
2843.091968	17433.929000	734.795898	501.469849
2843.091968	17433.929000	733.592773	591.724243
2843.091968	17433.929000	732.388672	659.954651
2843.091968	17433.929000	731.184570	530.571655
2843.091968	17433.929000	729.979492	532.887939
2843.091968	17433.929000	728.775391	493.284912
2843.091968	17433.929000	727.570313	431.730988
2843.091968	17433.929000	726.365234	326.307159
2843.091968	17433.929000	725.160156	252.791656
2843.091968	17433.929000	723.954102	258.995148
2843.091968	17433.929000	722.748047	231.290726
2843.091968	17433.929000	721.541992	193.606018
2843.091968	17433.929000	720.334961	161.880112
2843.091968	17433.929000	719.128906	102.258408
2843.091968	17433.929000	717.921875	94.392609
2843.091968	17433.929000	716.714844	76.546059
2843.091968	17433.929000	715.506836	86.535187
2843.091968	17433.929000	714.298828	84.550186
2843.091968	17433.929000	713.090820	82.533829
2843.091968	17433.929000	711.882813	114.296104
2843.091968	17433.929000	710.674805	124.140167
2843.091968	17433.929000	709.465820	-33.044907
2843.091968	17433.929000	708.256836	-59.016541
2843.091968	17433.929000	707.047852	6.400011
2843.091968	17433.929000	705.837891	159.172379
2843.091968	17433.929000	704.627930	33.761505
2843.091968	17433.929000	703.417969	7.665873
2843.091968	17433.929000	702.208008	84.794624
2843.091968	17433.929000	700.998047	-20.769741
2843.091968	17433.929000	699.787109	24.510614
2843.091968	17433.929000	698.576172	81.644630
2843.091968	17433.929000	697.364258	101.027527
2843.091968	17433.929000	696.153320	45.000153
2843.091968	17433.929000	694.941406	117.857346
2843.091968	17433.929000	693.729492	20.148695
2843.091968	17433.929000	692.516602	94.894836
2843.091968	17433.929000	691.304688	72.472008
2843.091968	17433.929000	690.091797	-13.378860
2843.091968	17433.929000	688.878906	19.628294
2843.091968	17433.929000	687.665039	-14.749648
2843.091968	17433.929000	686.451172	61.738270
2843.091968	17433.929000	685.237305	126.282524
2843.091968	17433.929000	684.023438	172.953476
2843.091968	17433.929000	682.809570	102.820549
2843.091968	17433.929000	681.594727	153.366089
2843.091968	17433.929000	680.379883	148.473068
2843.091968	17433.929000	679.165039	238.473099
2843.091968	17433.929000	677.949219	112.890022
2843.091968	17433.929000	676.733398	266.048279
2843.091968	17433.929000	675.517578	130.564667
2843.091968	17433.929000	674.301758	151.203476
2843.091968	17433.929000	673.084961	284.402527
2843.091968	17433.929000	671.869141	166.678574
2843.091968	17433.929000	670.651367	201.018143
2843.091968	17433.929000	669.434570	195.828064
2843.091968	17433.929000	668.216797	271.533081
2843.091968	17433.929000	667.000000	114.312325
2843.091968	17433.929000	665.781250	308.317535
2843.091968	17433.929000	664.563477	350.321625
2843.091968	17433.929000	663.344727	376.497192
2843.091968	17433.929000	662.125977	286.296051
2843.091968	17433.929000	660.907227	426.749115
2843.091968	17433.929000	659.688477	409.437714
2843.091968	17433.929000	658.468750	439.393127
2843.091968	17433.929000	657.249023	370.800201
2843.091968	17433.929000	656.029297	489.325226
2843.091968	17433.929000	654.808594	410.841766
2843.091968	17433.929000	653.587891	350.080627
2843.091968	17433.929000	652.367188	255.852158
2843.091968	17433.929000	651.146484	244.290375
2843.091968	17433.929000	649.924805	242.539810
2843.091968	17433.929000	648.704102	162.075851
2843.091968	17433.929000	647.482422	272.391388
2843.091968	17433.929000	646.259766	278.412415
2843.091968	17433.929000	645.037109	284.402679
2843.091968	17433.929000	643.815430	294.295502
2843.091968	17433.929000	642.591797	388.651093
2843.091968	17433.929000	641.369141	351.307831
2843.091968	17433.929000	640.145508	215.736862
2843.091968	17433.929000	638.921875	201.955536
2843.091968	17433.929000	637.698242	194.043777
2843.091968	17433.929000	636.474609	162.553223
2843.091968	17433.929000	635.250000	207.588684
2843.091968	17433.929000	634.025391	189.789658
2843.091968	17433.929000	632.800781	181.782013
2843.091968	17433.929000	631.575195	201.209122
2843.091968	17433.929000	630.349609	324.533813
2843.091968	17433.929000	629.124023	239.965958
2843.091968	17433.929000	627.898438	98.566483
2843.091968	17433.929000	626.671875	313.866455
2843.091968	17433.929000	625.445313	248.874664
2843.091968	17433.929000	624.218750	113.368904
2843.091968	17433.929000	622.992188	89.529778
2843.091968	17433.929000	621.764648	95.047455
2843.091968	17433.929000	620.537109	-9.085726
2843.091968	17433.929000	619.309570	125.583809
2843.091968	17433.929000	618.081055	213.210556
2843.091968	17433.929000	616.852539	67.971016
2843.091968	17433.929000	615.624023	45.998955
2843.091968	17433.929000	614.395508	43.573181
2843.091968	17433.929000	613.166992	86.097511
2843.091968	17433.929000	611.937500	36.711769
2843.091968	17433.929000	610.708008	110.449966
2843.091968	17433.929000	609.477539	180.229752
2843.091968	17433.929000	608.248047	89.781326
2843.091968	17433.929000	607.017578	9.117712
2843.091968	17433.929000	605.787109	80.778847
2843.091968	17433.929000	604.555664	35.258530
2843.091968	17433.929000	603.325195	48.299789
2843.091968	17433.929000	602.093750	-5.028275
2843.091968	17433.929000	600.861328	-38.839870
2843.091968	17433.929000	599.629883	-4.377751
2843.091968	17433.929000	598.397461	-53.801353
2843.091968	17433.929000	597.165039	56.662773
2843.091968	17433.929000	595.932617	-68.799225
2843.091968	17433.929000	594.699219	-30.512903
2843.091968	17433.929000	593.465820	-40.964520
2843.091968	17433.929000	592.232422	55.722507
2843.091968	17433.929000	590.999023	132.883255
2843.091968	17433.929000	589.764648	95.112610
2843.091968	17433.929000	588.530273	-24.415997
2843.091968	17433.929000	587.295898	-32.954861
2843.091968	17433.929000	586.061523	230.943909
2843.091968	17433.929000	584.826172	162.026566
2843.091968	17433.929000	583.590820	-41.083698
2843.091968	17433.929000	582.355469	14.541490
2843.091968	17433.929000	581.119141	7.917428
2843.091968	17433.929000	579.882813	-62.856594
2843.091968	17433.929000	578.646484	105.449577
2843.091968	17433.929000	577.410156	100.746750
2843.091968	17433.929000	576.172852	-43.831589
2843.091968	17433.929000	574.935547	75.800194
2843.091968	17433.929000	573.698242	41.974796
2843.091968	17433.929000	572.460938	-46.195774
2843.091968	17433.929000	571.222656	24.834576
2843.091968	17433.929000	569.984375	47.321411
2843.091968	17433.929000	568.746094	95.024689
2843.091968	17433.929000	567.506836	-51.270218
2843.091968	17433.929000	566.267578	0.317745
2843.091968	17433.929000	565.028320	-17.913864
2843.091968	17433.929000	563.789063	-26.438961
2843.091968	17433.929000	562.548828	143.351089
2843.091968	17433.929000	561.309570	-6.643665
2843.091968	17433.929000	560.068359	33.282681
2843.091968	17433.929000	558.828125	156.489563
2843.091968	17433.929000	557.586914	182.826904
2843.091968	17433.929000	556.345703	112.360313
2843.091968	17433.929000	555.104492	152.265747
2843.091968	17433.929000	553.863281	-98.118683
2843.091968	17433.929000	552.621094	40.511536
2843.091968	17433.929000	551.378906	-66.573959
2843.091968	17433.929000	550.136719	37.205109
2843.091968	17433.929000	548.893555	-25.336456
2843.091968	17433.929000	547.650391	-35.640965
2843.091968	17433.929000	546.407227	-92.311745
2843.091968	17433.929000	545.164063	-29.136698
2843.091968	17433.929000	543.919922	59.140442
2843.091968	17433.929000	542.675781	114.561668
2843.091968	17433.929000	541.431641	-40.511036
2843.091968	17433.929000	540.186523	1.428146
2843.091968	17433.929000	538.941406	22.135986
2843.091968	17433.929000	537.696289	-57.496723
2843.091968	17433.929000	536.451172	19.210346
2843.091968	17433.929000	535.205078	11.026238
2843.091968	17433.929000	533.959961	-76.201897
2843.091968	17433.929000	532.712891	-36.113968
2843.091968	17433.929000	531.466797	69.527367
2843.091968	17433.929000	530.219727	96.123398
2843.091968	17433.929000	528.972656	-121.990685
2843.091968	17433.929000	527.725586	-72.195633
2843.091968	17433.929000	526.478516	18.052595
2843.091968	17433.929000	525.230469	-49.622368
2843.091968	17433.929000	523.982422	9.828910
2843.091968	17433.929000	522.734375	59.658447
2843.091968	17433.929000	521.485352	61.381031
2843.091968	17433.929000	520.236328	-98.489647
2843.091968	17433.929000	518.987305	53.369186
2843.091968	17433.929000	517.737305	-2.518845
2843.091968	17433.929000	516.488281	-85.269257
2843.091968	17433.929000	515.238281	-19.929562
2843.091968	17433.929000	513.988281	5.051816
2843.091968	17433.929000	512.737305	78.092094
2843.091968	17433.929000	511.486328	26.256941
2843.091968	17433.929000	510.235352	32.100487
2843.091968	17433.929000	508.984375	66.780365
2843.091968	17433.929000	507.732422	-71.317398
2843.091968	17433.929000	506.480469	-19.288467
2843.091968	17433.929000	505.228516	86.488136
2843.091968	17433.929000	503.976563	40.676800
2843.091968	17433.929000	502.723633	0.673841
2843.091968	17433.929000	501.470703	87.303345
2843.091968	17433.929000	500.217773	129.830246
2843.091968	17433.929000	498.963867	72.686996
2843.091968	17433.929000	497.709961	-62.977261
2843.091968	17433.929000	496.456055	-33.751175
2843.091968	17433.929000	495.202148	18.489460
2843.091968	17433.929000	493.947266	72.658104
2843.091968	17433.929000	492.692383	119.181496
2843.091968	17433.929000	491.437500	66.164261
2843.091968	17433.929000	490.181641	70.631187
2843.091968	17433.929000	488.926758	-22.466066
2843.091968	17433.929000	487.670898	8.880469
2843.091968	17433.929000	486.414063	93.811523
2843.091968	17433.929000	485.158203	104.157875
2843.091968	17433.929000	483.901367	-2.102193
2843.091968	17433.929000	482.644531	17.892673
2843.091968	17433.929000	481.386719	76.141403
2843.091968	17433.929000	480.128906	109.560883
2843.091968	17433.929000	478.871094	70.406792
2843.091968	17433.929000	477.613281	117.258507
2843.091968	17433.929000	476.355469	18.995670
2843.091968	17433.929000	475.096680	-60.097172
2843.091968	17433.929000	473.837891	7.858947
2843.091968	17433.929000	472.578125	175.056778
2843.091968	17433.929000	471.319336	46.482792
2843.091968	17433.929000	470.059570	74.419769
2843.091968	17433.929000	468.799805	197.737122
2843.091968	17433.929000	467.539063	195.189545
2843.091968	17433.929000	466.278320	103.079445
2843.091968	17433.929000	465.017578	92.997513
2843.091968	17433.929000	463.756836	63.897717
2843.091968	17433.929000	462.495117	48.177750
2843.091968	17433.929000	461.233398	97.254951
2843.091968	17433.929000	459.971680	127.299438
2843.091968	17433.929000	458.709961	39.321133
2843.091968	17433.929000	457.447266	19.933472
2843.091968	17433.929000	456.184570	99.540794
2843.091968	17433.929000	454.921875	30.735401
2843.091968	17433.929000	453.658203	13.345473
2843.091968	17433.929000	452.394531	-7.815194
2843.091968	17433.929000	451.130859	144.084793
2843.091968	17433.929000	449.867188	-50.037804
2843.091968	17433.929000	448.602539	212.082596
2843.091968	17433.929000	447.337891	18.070972
2843.091968	17433.929000	446.073242	-33.356232
2843.091968	17433.929000	444.807617	-37.260757
2843.091968	17433.929000	443.542969	13.922850
2843.091968	17433.929000	442.276367	152.429138
2843.091968	17433.929000	441.010742	137.142990
2843.091968	17433.929000	439.744141	44.068138
2843.091968	17433.929000	438.478516	17.449869
2843.091968	17433.929000	437.210938	188.124634
2843.091968	17433.929000	435.944336	153.913956
2843.091968	17433.929000	434.676758	102.656799
2843.091968	17433.929000	433.409180	216.345993
2843.091968	17433.929000	432.141602	239.014145
2843.091968	17433.929000	430.873047	47.554893
2843.091968	17433.929000	429.604492	41.827061
2843.091968	17433.929000	428.335938	115.643776
2843.091968	17433.929000	427.067383	151.547104
2843.091968	17433.929000	425.797852	143.880081
2843.091968	17433.929000	424.528320	-94.716072
2843.091968	17433.929000	423.258789	-11.523251
2843.091968	17433.929000	421.988281	35.666042
2843.091968	17433.929000	420.717773	20.392712
2843.091968	17433.929000	419.447266	97.766205
2843.091968	17433.929000	418.175781	101.339409
2843.091968	17433.929000	416.905273	-8.538043
2843.091968	17433.929000	415.633789	-27.687317
2843.091968	17433.929000	414.362305	-20.412088
2843.091968	17433.929000	413.089844	35.934296
2843.091968	17433.929000	411.817383	44.995293
2843.091968	17433.929000	410.544922	-74.397156
2843.091968	17433.929000	409.272461	-40.872608
2843.091968	17433.929000	407.999023	-56.491974
2843.091968	17433.929000	406.725586	-72.163818
2843.091968	17433.929000	405.452148	64.925339
2843.091968	17433.929000	404.177734	-56.524616
2843.091968	17433.929000	402.903320	55.847580
2843.091968	17433.929000	401.628906	28.575808
2843.091968	17433.929000	400.354492	20.086418
2843.091968	17433.929000	399.079102	81.245117
2843.091968	17433.929000	397.803711	8.512086
2843.091968	17433.929000	396.528320	39.324074
2843.091968	17433.929000	395.251953	70.023293
2843.091968	17433.929000	393.976563	-66.974396
2843.091968	17433.929000	392.700195	-15.769679
2843.091968	17433.929000	391.422852	-15.519302
2843.091968	17433.929000	390.145508	31.654596
2843.091968	17433.929000	388.869141	-96.275642
2843.091968	17433.929000	387.590820	-13.623612
2843.091968	17433.929000	386.313477	25.607521
2843.091968	17433.929000	385.035156	53.397713
2843.091968	17433.929000	383.756836	116.741844
2843.091968	17433.929000	382.478516	-21.176155
2843.091968	17433.929000	381.199219	60.629436
2843.091968	17433.929000	379.919922	18.255461
2843.091968	17433.929000	378.640625	-63.711227
2843.091968	17433.929000	377.360352	-12.513761
2843.091968	17433.929000	376.080078	-4.700852
2843.091968	17433.929000	374.799805	-28.990770
2843.091968	17433.929000	373.519531	66.619270
2843.091968	17433.929000	372.238281	-6.863096
2843.091968	17433.929000	370.957031	62.015842
2843.091968	17433.929000	369.675781	125.016220
2843.091968	17433.929000	368.394531	69.648041
2843.091968	17433.929000	367.112305	-59.038918
2843.091968	17433.929000	365.830078	98.797760
2843.091968	17433.929000	364.546875	-41.587273
2843.091968	17433.929000	363.264648	40.733070
2843.091968	17433.929000	361.981445	-75.768326
2843.091968	17433.929000	360.698242	-67.054626
2843.091968	17433.929000	359.414063	79.881706
2843.091968	17433.929000	358.129883	117.907158
2843.091968	17433.929000	356.845703	-27.759811
2843.091968	17433.929000	355.561523	-14.672389
2843.091968	17433.929000	354.276367	35.480976
2843.091968	17433.929000	352.991211	31.048403
2843.091968	17433.929000	351.706055	-100.853424
2843.091968	17433.929000	350.420898	97.767960
2843.091968	17433.929000	349.134766	-55.378773
2843.091968	17433.929000	347.848633	-16.409086
2843.091968	17433.929000	346.561523	12.806102
2843.091968	17433.929000	345.275391	-81.633835
2843.091968	17433.929000	343.988281	-19.623980
2843.091968	17433.929000	342.700195	-19.672005
2843.091968	17433.929000	341.413086	121.685509
2843.091968	17433.929000	340.125000	21.836126
2843.091968	17433.929000	338.836914	29.764181
2843.091968	17433.929000	337.548828	70.786339
2843.091968	17433.929000	336.259766	128.077194
2843.091968	17433.929000	334.970703	39.439831
2843.091968	17433.929000	333.681641	49.111153
2843.091968	17433.929000	332.391602	63.832798
2843.091968	17433.929000	331.101563	146.940018
2843.091968	17433.929000	329.811523	162.408325
2843.091968	17433.929000	328.521484	45.093853
2843.091968	17433.929000	327.230469	89.209297
2843.091968	17433.929000	325.939453	69.426552
2843.091968	17433.929000	324.648438	119.759735
2843.091968	17433.929000	323.356445	-42.665005
2843.091968	17433.929000	322.064453	-2.906154
2843.091968	17433.929000	320.772461	56.638573
2843.091968	17433.929000	319.480469	13.227474
2843.091968	17433.929000	318.187500	-17.854668
2843.091968	17433.929000	316.894531	-42.190796
2843.091968	17433.929000	315.601563	49.824284
2843.091968	17433.929000	314.307617	103.892891
2843.091968	17433.929000	313.013672	-91.687752
2843.091968	17433.929000	311.719727	-94.838615
2843.091968	17433.929000	310.425781	-4.095685
2843.091968	17433.929000	309.130859	113.623283
2843.091968	17433.929000	307.835938	-81.279808
2843.091968	17433.929000	306.541016	86.687065
2843.091968	17433.929000	305.245117	-7.833108
2843.091968	17433.929000	303.949219	89.669006
2843.091968	17433.929000	302.653320	10.097671
2843.091968	17433.929000	301.356445	55.664772
2843.091968	17433.929000	300.060547	18.757607
2843.091968	17433.929000	298.763672	47.583649
