#X		#Y		#Wave		#Intensity
2753.436011	17402.345500	2000.043945	-56.950768
2753.436011	17402.345500	1999.080078	-82.053055
2753.436011	17402.345500	1998.116211	33.205772
2753.436011	17402.345500	1997.151367	39.244694
2753.436011	17402.345500	1996.186523	52.578728
2753.436011	17402.345500	1995.222656	-53.131641
2753.436011	17402.345500	1994.256836	-67.285194
2753.436011	17402.345500	1993.291992	101.691208
2753.436011	17402.345500	1992.327148	87.273857
2753.436011	17402.345500	1991.361328	139.586411
2753.436011	17402.345500	1990.395508	174.446289
2753.436011	17402.345500	1989.429688	38.449520
2753.436011	17402.345500	1988.463867	1.363374
2753.436011	17402.345500	1987.497070	6.245778
2753.436011	17402.345500	1986.531250	119.849663
2753.436011	17402.345500	1985.564453	57.765572
2753.436011	17402.345500	1984.597656	42.590313
2753.436011	17402.345500	1983.630859	47.113163
2753.436011	17402.345500	1982.664063	130.636490
2753.436011	17402.345500	1981.696289	162.166885
2753.436011	17402.345500	1980.728516	87.389496
2753.436011	17402.345500	1979.761719	-51.646053
2753.436011	17402.345500	1978.792969	-12.895375
2753.436011	17402.345500	1977.825195	168.978958
2753.436011	17402.345500	1976.857422	74.252968
2753.436011	17402.345500	1975.888672	-35.302502
2753.436011	17402.345500	1974.919922	52.537666
2753.436011	17402.345500	1973.951172	-12.668558
2753.436011	17402.345500	1972.982422	116.970215
2753.436011	17402.345500	1972.013672	64.014252
2753.436011	17402.345500	1971.043945	89.939316
2753.436011	17402.345500	1970.075195	-54.291328
2753.436011	17402.345500	1969.105469	-80.193726
2753.436011	17402.345500	1968.135742	103.351593
2753.436011	17402.345500	1967.165039	-43.372894
2753.436011	17402.345500	1966.195313	68.592171
2753.436011	17402.345500	1965.224609	-36.260040
2753.436011	17402.345500	1964.253906	-3.196904
2753.436011	17402.345500	1963.283203	7.670302
2753.436011	17402.345500	1962.312500	65.281509
2753.436011	17402.345500	1961.341797	58.859299
2753.436011	17402.345500	1960.370117	47.498020
2753.436011	17402.345500	1959.399414	-10.621406
2753.436011	17402.345500	1958.427734	-9.700415
2753.436011	17402.345500	1957.455078	55.148811
2753.436011	17402.345500	1956.483398	112.585136
2753.436011	17402.345500	1955.511719	69.192329
2753.436011	17402.345500	1954.539063	3.683452
2753.436011	17402.345500	1953.566406	-2.828963
2753.436011	17402.345500	1952.593750	12.767276
2753.436011	17402.345500	1951.621094	87.311356
2753.436011	17402.345500	1950.647461	-88.706558
2753.436011	17402.345500	1949.674805	-28.913517
2753.436011	17402.345500	1948.701172	52.951202
2753.436011	17402.345500	1947.727539	-76.327286
2753.436011	17402.345500	1946.753906	101.233505
2753.436011	17402.345500	1945.780273	82.419235
2753.436011	17402.345500	1944.805664	24.357960
2753.436011	17402.345500	1943.831055	221.429321
2753.436011	17402.345500	1942.856445	11.314859
2753.436011	17402.345500	1941.881836	137.213608
2753.436011	17402.345500	1940.907227	160.103867
2753.436011	17402.345500	1939.932617	40.825714
2753.436011	17402.345500	1938.957031	-46.543800
2753.436011	17402.345500	1937.981445	-114.271317
2753.436011	17402.345500	1937.005859	85.058807
2753.436011	17402.345500	1936.030273	-34.087540
2753.436011	17402.345500	1935.054688	-52.777710
2753.436011	17402.345500	1934.078125	102.384514
2753.436011	17402.345500	1933.101563	-16.671438
2753.436011	17402.345500	1932.125000	-125.882172
2753.436011	17402.345500	1931.148438	-63.749760
2753.436011	17402.345500	1930.171875	-23.648867
2753.436011	17402.345500	1929.194336	9.109579
2753.436011	17402.345500	1928.217773	83.444214
2753.436011	17402.345500	1927.240234	-23.183193
2753.436011	17402.345500	1926.262695	73.155495
2753.436011	17402.345500	1925.284180	71.698090
2753.436011	17402.345500	1924.306641	-34.830841
2753.436011	17402.345500	1923.328125	83.483086
2753.436011	17402.345500	1922.350586	23.432196
2753.436011	17402.345500	1921.372070	44.017292
2753.436011	17402.345500	1920.392578	49.954746
2753.436011	17402.345500	1919.414063	41.254009
2753.436011	17402.345500	1918.434570	-55.311176
2753.436011	17402.345500	1917.456055	45.865223
2753.436011	17402.345500	1916.476563	61.609192
2753.436011	17402.345500	1915.497070	18.805450
2753.436011	17402.345500	1914.516602	56.526134
2753.436011	17402.345500	1913.537109	-88.666397
2753.436011	17402.345500	1912.556641	-58.230801
2753.436011	17402.345500	1911.576172	67.284386
2753.436011	17402.345500	1910.595703	-33.919884
2753.436011	17402.345500	1909.615234	30.641497
2753.436011	17402.345500	1908.633789	-60.749920
2753.436011	17402.345500	1907.653320	128.055359
2753.436011	17402.345500	1906.671875	-70.467224
2753.436011	17402.345500	1905.690430	-30.257029
2753.436011	17402.345500	1904.708984	39.165104
2753.436011	17402.345500	1903.727539	11.199700
2753.436011	17402.345500	1902.745117	90.341637
2753.436011	17402.345500	1901.762695	45.361408
2753.436011	17402.345500	1900.780273	90.423653
2753.436011	17402.345500	1899.797852	57.638794
2753.436011	17402.345500	1898.815430	109.993698
2753.436011	17402.345500	1897.832031	-39.482609
2753.436011	17402.345500	1896.849609	153.888275
2753.436011	17402.345500	1895.866211	-63.585674
2753.436011	17402.345500	1894.882813	-18.512533
2753.436011	17402.345500	1893.898438	-58.491734
2753.436011	17402.345500	1892.915039	-64.441162
2753.436011	17402.345500	1891.930664	36.483784
2753.436011	17402.345500	1890.947266	-20.468817
2753.436011	17402.345500	1889.962891	39.142307
2753.436011	17402.345500	1888.977539	-27.494419
2753.436011	17402.345500	1887.993164	-26.147568
2753.436011	17402.345500	1887.007813	-75.757713
2753.436011	17402.345500	1886.023438	25.069635
2753.436011	17402.345500	1885.038086	106.454437
2753.436011	17402.345500	1884.051758	59.272568
2753.436011	17402.345500	1883.066406	87.274925
2753.436011	17402.345500	1882.081055	122.537781
2753.436011	17402.345500	1881.094727	-26.425602
2753.436011	17402.345500	1880.108398	-17.816753
2753.436011	17402.345500	1879.122070	2.899827
2753.436011	17402.345500	1878.135742	-0.620249
2753.436011	17402.345500	1877.148438	-18.675770
2753.436011	17402.345500	1876.162109	64.975868
2753.436011	17402.345500	1875.174805	-88.678772
2753.436011	17402.345500	1874.187500	72.402405
2753.436011	17402.345500	1873.199219	18.017748
2753.436011	17402.345500	1872.211914	16.880108
2753.436011	17402.345500	1871.223633	-102.811142
2753.436011	17402.345500	1870.236328	21.835587
2753.436011	17402.345500	1869.248047	-68.810936
2753.436011	17402.345500	1868.258789	-45.791458
2753.436011	17402.345500	1867.270508	-22.792465
2753.436011	17402.345500	1866.282227	58.194782
2753.436011	17402.345500	1865.292969	-3.439191
2753.436011	17402.345500	1864.303711	70.238899
2753.436011	17402.345500	1863.314453	-13.142726
2753.436011	17402.345500	1862.324219	-33.713112
2753.436011	17402.345500	1861.334961	73.691010
2753.436011	17402.345500	1860.344727	166.552429
2753.436011	17402.345500	1859.354492	179.704910
2753.436011	17402.345500	1858.364258	64.924614
2753.436011	17402.345500	1857.374023	56.338787
2753.436011	17402.345500	1856.383789	98.398911
2753.436011	17402.345500	1855.392578	111.479233
2753.436011	17402.345500	1854.401367	44.951187
2753.436011	17402.345500	1853.410156	7.360973
2753.436011	17402.345500	1852.418945	20.387613
2753.436011	17402.345500	1851.426758	108.102547
2753.436011	17402.345500	1850.435547	46.356480
2753.436011	17402.345500	1849.443359	-27.437525
2753.436011	17402.345500	1848.451172	57.757141
2753.436011	17402.345500	1847.458984	56.191292
2753.436011	17402.345500	1846.466797	-29.678204
2753.436011	17402.345500	1845.473633	24.092531
2753.436011	17402.345500	1844.480469	236.681320
2753.436011	17402.345500	1843.487305	18.381002
2753.436011	17402.345500	1842.494141	11.875008
2753.436011	17402.345500	1841.500977	130.438599
2753.436011	17402.345500	1840.506836	70.938866
2753.436011	17402.345500	1839.513672	37.884842
2753.436011	17402.345500	1838.519531	-64.914940
2753.436011	17402.345500	1837.525391	77.489059
2753.436011	17402.345500	1836.530273	20.320772
2753.436011	17402.345500	1835.536133	66.470352
2753.436011	17402.345500	1834.541016	18.869638
2753.436011	17402.345500	1833.545898	127.386780
2753.436011	17402.345500	1832.550781	94.133499
2753.436011	17402.345500	1831.555664	-15.980608
2753.436011	17402.345500	1830.560547	-32.460999
2753.436011	17402.345500	1829.564453	92.642151
2753.436011	17402.345500	1828.568359	133.667877
2753.436011	17402.345500	1827.572266	13.883717
2753.436011	17402.345500	1826.576172	54.832584
2753.436011	17402.345500	1825.580078	-0.210661
2753.436011	17402.345500	1824.583008	45.442421
2753.436011	17402.345500	1823.585938	7.123772
2753.436011	17402.345500	1822.588867	45.486202
2753.436011	17402.345500	1821.591797	50.240154
2753.436011	17402.345500	1820.594727	-98.405396
2753.436011	17402.345500	1819.596680	-93.711372
2753.436011	17402.345500	1818.599609	100.168297
2753.436011	17402.345500	1817.601563	-120.376678
2753.436011	17402.345500	1816.603516	123.628563
2753.436011	17402.345500	1815.604492	-51.442303
2753.436011	17402.345500	1814.606445	48.760601
2753.436011	17402.345500	1813.607422	19.655001
2753.436011	17402.345500	1812.608398	-19.055050
2753.436011	17402.345500	1811.609375	-9.953462
2753.436011	17402.345500	1810.610352	-53.518669
2753.436011	17402.345500	1809.610352	-51.683338
2753.436011	17402.345500	1808.611328	107.897606
2753.436011	17402.345500	1807.611328	80.923637
2753.436011	17402.345500	1806.611328	-1.055164
2753.436011	17402.345500	1805.610352	88.984924
2753.436011	17402.345500	1804.610352	-19.340115
2753.436011	17402.345500	1803.609375	20.412035
2753.436011	17402.345500	1802.608398	81.592934
2753.436011	17402.345500	1801.607422	137.924927
2753.436011	17402.345500	1800.606445	101.086876
2753.436011	17402.345500	1799.605469	-36.029900
2753.436011	17402.345500	1798.603516	46.387611
2753.436011	17402.345500	1797.601563	61.920250
2753.436011	17402.345500	1796.599609	-49.028446
2753.436011	17402.345500	1795.597656	18.880617
2753.436011	17402.345500	1794.595703	-13.434358
2753.436011	17402.345500	1793.592773	78.174889
2753.436011	17402.345500	1792.589844	21.917435
2753.436011	17402.345500	1791.587891	-5.771370
2753.436011	17402.345500	1790.583984	35.587654
2753.436011	17402.345500	1789.581055	-94.637428
2753.436011	17402.345500	1788.577148	-12.894793
2753.436011	17402.345500	1787.574219	80.672638
2753.436011	17402.345500	1786.570313	-40.128117
2753.436011	17402.345500	1785.566406	-30.015785
2753.436011	17402.345500	1784.561523	110.931450
2753.436011	17402.345500	1783.557617	44.758606
2753.436011	17402.345500	1782.552734	59.439816
2753.436011	17402.345500	1781.547852	126.388924
2753.436011	17402.345500	1780.542969	162.342133
2753.436011	17402.345500	1779.538086	-18.142540
2753.436011	17402.345500	1778.532227	20.087418
2753.436011	17402.345500	1777.527344	46.367264
2753.436011	17402.345500	1776.521484	105.846344
2753.436011	17402.345500	1775.515625	-55.709568
2753.436011	17402.345500	1774.508789	15.527666
2753.436011	17402.345500	1773.502930	-29.687784
2753.436011	17402.345500	1772.496094	-36.953533
2753.436011	17402.345500	1771.489258	43.567730
2753.436011	17402.345500	1770.482422	36.178242
2753.436011	17402.345500	1769.475586	-49.578548
2753.436011	17402.345500	1768.467773	-7.237062
2753.436011	17402.345500	1767.460938	11.314003
2753.436011	17402.345500	1766.453125	6.079488
2753.436011	17402.345500	1765.445313	-39.522839
2753.436011	17402.345500	1764.437500	87.912827
2753.436011	17402.345500	1763.428711	-66.845901
2753.436011	17402.345500	1762.420898	-93.616837
2753.436011	17402.345500	1761.412109	24.104872
2753.436011	17402.345500	1760.403320	4.317386
2753.436011	17402.345500	1759.393555	230.817429
2753.436011	17402.345500	1758.384766	-68.562912
2753.436011	17402.345500	1757.375000	58.306789
2753.436011	17402.345500	1756.366211	-56.388626
2753.436011	17402.345500	1755.356445	-149.799179
2753.436011	17402.345500	1754.345703	-27.891668
2753.436011	17402.345500	1753.335938	4.012718
2753.436011	17402.345500	1752.325195	0.361344
2753.436011	17402.345500	1751.315430	48.692635
2753.436011	17402.345500	1750.304688	18.913229
2753.436011	17402.345500	1749.292969	-18.007595
2753.436011	17402.345500	1748.282227	-43.145828
2753.436011	17402.345500	1747.270508	156.174911
2753.436011	17402.345500	1746.259766	36.391567
2753.436011	17402.345500	1745.248047	72.509918
2753.436011	17402.345500	1744.235352	-7.178456
2753.436011	17402.345500	1743.223633	-37.294392
2753.436011	17402.345500	1742.211914	50.596947
2753.436011	17402.345500	1741.199219	-29.203087
2753.436011	17402.345500	1740.186523	11.339057
2753.436011	17402.345500	1739.173828	6.979510
2753.436011	17402.345500	1738.160156	35.591282
2753.436011	17402.345500	1737.147461	42.916962
2753.436011	17402.345500	1736.133789	24.240335
2753.436011	17402.345500	1735.120117	14.949730
2753.436011	17402.345500	1734.106445	12.683647
2753.436011	17402.345500	1733.091797	-93.345253
2753.436011	17402.345500	1732.078125	90.470383
2753.436011	17402.345500	1731.063477	-53.331688
2753.436011	17402.345500	1730.048828	-6.325755
2753.436011	17402.345500	1729.034180	12.349871
2753.436011	17402.345500	1728.019531	-18.480228
2753.436011	17402.345500	1727.003906	33.044327
2753.436011	17402.345500	1725.988281	89.207375
2753.436011	17402.345500	1724.972656	15.865744
2753.436011	17402.345500	1723.957031	34.266907
2753.436011	17402.345500	1722.941406	-105.001328
2753.436011	17402.345500	1721.924805	-41.998699
2753.436011	17402.345500	1720.909180	-59.014217
2753.436011	17402.345500	1719.892578	1.509958
2753.436011	17402.345500	1718.875977	14.951288
2753.436011	17402.345500	1717.858398	47.136139
2753.436011	17402.345500	1716.841797	135.663055
2753.436011	17402.345500	1715.824219	141.879135
2753.436011	17402.345500	1714.806641	63.488701
2753.436011	17402.345500	1713.789063	41.445328
2753.436011	17402.345500	1712.770508	-60.470188
2753.436011	17402.345500	1711.752930	72.365555
2753.436011	17402.345500	1710.734375	169.894974
2753.436011	17402.345500	1709.715820	51.456917
2753.436011	17402.345500	1708.697266	202.828720
2753.436011	17402.345500	1707.678711	194.593414
2753.436011	17402.345500	1706.659180	92.503265
2753.436011	17402.345500	1705.640625	77.175346
2753.436011	17402.345500	1704.621094	183.712311
2753.436011	17402.345500	1703.600586	119.056953
2753.436011	17402.345500	1702.581055	204.374420
2753.436011	17402.345500	1701.561523	174.813446
2753.436011	17402.345500	1700.541016	238.920547
2753.436011	17402.345500	1699.520508	195.227859
2753.436011	17402.345500	1698.500000	228.789627
2753.436011	17402.345500	1697.478516	154.599121
2753.436011	17402.345500	1696.458008	150.630493
2753.436011	17402.345500	1695.436523	263.635254
2753.436011	17402.345500	1694.415039	175.334183
2753.436011	17402.345500	1693.393555	166.572113
2753.436011	17402.345500	1692.372070	31.476088
2753.436011	17402.345500	1691.349609	141.933243
2753.436011	17402.345500	1690.327148	247.639603
2753.436011	17402.345500	1689.304688	135.875534
2753.436011	17402.345500	1688.282227	264.849182
2753.436011	17402.345500	1687.259766	234.846313
2753.436011	17402.345500	1686.236328	125.384293
2753.436011	17402.345500	1685.213867	186.455551
2753.436011	17402.345500	1684.190430	196.088394
2753.436011	17402.345500	1683.166016	287.402985
2753.436011	17402.345500	1682.142578	138.212692
2753.436011	17402.345500	1681.119141	325.149170
2753.436011	17402.345500	1680.094727	215.616867
2753.436011	17402.345500	1679.070313	241.421036
2753.436011	17402.345500	1678.045898	285.850403
2753.436011	17402.345500	1677.020508	388.535004
2753.436011	17402.345500	1675.996094	430.537964
2753.436011	17402.345500	1674.970703	220.710983
2753.436011	17402.345500	1673.945313	269.667511
2753.436011	17402.345500	1672.919922	255.661133
2753.436011	17402.345500	1671.893555	267.259796
2753.436011	17402.345500	1670.868164	309.124512
2753.436011	17402.345500	1669.841797	418.487610
2753.436011	17402.345500	1668.815430	341.498871
2753.436011	17402.345500	1667.789063	213.300476
2753.436011	17402.345500	1666.761719	320.225006
2753.436011	17402.345500	1665.735352	368.916046
2753.436011	17402.345500	1664.708008	194.188324
2753.436011	17402.345500	1663.680664	366.140411
2753.436011	17402.345500	1662.653320	219.358856
2753.436011	17402.345500	1661.625000	437.709381
2753.436011	17402.345500	1660.597656	293.265900
2753.436011	17402.345500	1659.569336	311.575928
2753.436011	17402.345500	1658.541016	311.272736
2753.436011	17402.345500	1657.512695	341.164642
2753.436011	17402.345500	1656.483398	294.358459
2753.436011	17402.345500	1655.455078	324.218292
2753.436011	17402.345500	1654.425781	289.023041
2753.436011	17402.345500	1653.396484	335.097382
2753.436011	17402.345500	1652.366211	429.886078
2753.436011	17402.345500	1651.336914	366.811310
2753.436011	17402.345500	1650.306641	431.374115
2753.436011	17402.345500	1649.276367	507.504761
2753.436011	17402.345500	1648.246094	323.801056
2753.436011	17402.345500	1647.215820	307.143585
2753.436011	17402.345500	1646.185547	394.830444
2753.436011	17402.345500	1645.154297	463.924469
2753.436011	17402.345500	1644.123047	481.996063
2753.436011	17402.345500	1643.091797	534.817810
2753.436011	17402.345500	1642.060547	376.775787
2753.436011	17402.345500	1641.028320	457.383453
2753.436011	17402.345500	1639.997070	598.184204
2753.436011	17402.345500	1638.964844	639.351379
2753.436011	17402.345500	1637.931641	675.864258
2753.436011	17402.345500	1636.899414	510.994659
2753.436011	17402.345500	1635.867188	741.926086
2753.436011	17402.345500	1634.833984	739.069519
2753.436011	17402.345500	1633.800781	627.489502
2753.436011	17402.345500	1632.767578	599.221375
2753.436011	17402.345500	1631.734375	908.586182
2753.436011	17402.345500	1630.700195	699.940247
2753.436011	17402.345500	1629.666016	646.255310
2753.436011	17402.345500	1628.631836	839.885498
2753.436011	17402.345500	1627.597656	793.140198
2753.436011	17402.345500	1626.563477	968.200745
2753.436011	17402.345500	1625.528320	974.582153
2753.436011	17402.345500	1624.493164	784.679504
2753.436011	17402.345500	1623.458008	641.037903
2753.436011	17402.345500	1622.422852	880.658508
2753.436011	17402.345500	1621.387695	829.395020
2753.436011	17402.345500	1620.351563	794.308533
2753.436011	17402.345500	1619.315430	886.136658
2753.436011	17402.345500	1618.279297	908.744446
2753.436011	17402.345500	1617.243164	832.192566
2753.436011	17402.345500	1616.207031	937.837158
2753.436011	17402.345500	1615.169922	983.511353
2753.436011	17402.345500	1614.132813	1096.024048
2753.436011	17402.345500	1613.095703	837.506653
2753.436011	17402.345500	1612.058594	920.087952
2753.436011	17402.345500	1611.020508	850.618164
2753.436011	17402.345500	1609.983398	857.202332
2753.436011	17402.345500	1608.945313	780.903320
2753.436011	17402.345500	1607.907227	941.773438
2753.436011	17402.345500	1606.868164	826.392578
2753.436011	17402.345500	1605.830078	823.847107
2753.436011	17402.345500	1604.791016	996.176025
2753.436011	17402.345500	1603.751953	982.134216
2753.436011	17402.345500	1602.712891	1053.217529
2753.436011	17402.345500	1601.673828	1041.517334
2753.436011	17402.345500	1600.633789	1085.015503
2753.436011	17402.345500	1599.594727	1066.469116
2753.436011	17402.345500	1598.554688	1073.227783
2753.436011	17402.345500	1597.513672	1047.836304
2753.436011	17402.345500	1596.473633	1013.301514
2753.436011	17402.345500	1595.433594	1102.832153
2753.436011	17402.345500	1594.392578	1013.238586
2753.436011	17402.345500	1593.351563	1024.726929
2753.436011	17402.345500	1592.310547	1036.240723
2753.436011	17402.345500	1591.268555	974.335388
2753.436011	17402.345500	1590.227539	1079.991333
2753.436011	17402.345500	1589.185547	960.814270
2753.436011	17402.345500	1588.143555	977.038635
2753.436011	17402.345500	1587.100586	1146.924072
2753.436011	17402.345500	1586.058594	833.023438
2753.436011	17402.345500	1585.015625	1064.829956
2753.436011	17402.345500	1583.972656	829.052124
2753.436011	17402.345500	1582.929688	955.436951
2753.436011	17402.345500	1581.886719	843.554443
2753.436011	17402.345500	1580.843750	969.960266
2753.436011	17402.345500	1579.799805	1096.347412
2753.436011	17402.345500	1578.755859	895.315002
2753.436011	17402.345500	1577.711914	795.121643
2753.436011	17402.345500	1576.666992	930.732605
2753.436011	17402.345500	1575.623047	938.196777
2753.436011	17402.345500	1574.578125	902.223816
2753.436011	17402.345500	1573.533203	950.937195
2753.436011	17402.345500	1572.488281	992.812134
2753.436011	17402.345500	1571.443359	947.828613
2753.436011	17402.345500	1570.397461	1053.773560
2753.436011	17402.345500	1569.351563	867.172302
2753.436011	17402.345500	1568.305664	817.792725
2753.436011	17402.345500	1567.259766	818.738464
2753.436011	17402.345500	1566.213867	892.822998
2753.436011	17402.345500	1565.166992	722.557617
2753.436011	17402.345500	1564.120117	691.684998
2753.436011	17402.345500	1563.073242	656.305786
2753.436011	17402.345500	1562.026367	655.223145
2753.436011	17402.345500	1560.978516	603.979309
2753.436011	17402.345500	1559.930664	632.655701
2753.436011	17402.345500	1558.883789	693.310425
2753.436011	17402.345500	1557.834961	653.631592
2753.436011	17402.345500	1556.787109	566.140564
2753.436011	17402.345500	1555.739258	574.481201
2753.436011	17402.345500	1554.690430	530.440552
2753.436011	17402.345500	1553.641602	607.244324
2753.436011	17402.345500	1552.592773	456.233673
2753.436011	17402.345500	1551.542969	401.001038
2753.436011	17402.345500	1550.494141	432.391235
2753.436011	17402.345500	1549.444336	557.173706
2753.436011	17402.345500	1548.394531	506.664978
2753.436011	17402.345500	1547.344727	606.453430
2753.436011	17402.345500	1546.293945	321.662903
2753.436011	17402.345500	1545.244141	307.795898
2753.436011	17402.345500	1544.193359	373.600830
2753.436011	17402.345500	1543.142578	439.435516
2753.436011	17402.345500	1542.090820	200.594955
2753.436011	17402.345500	1541.040039	437.056244
2753.436011	17402.345500	1539.988281	191.604340
2753.436011	17402.345500	1538.936523	559.889832
2753.436011	17402.345500	1537.884766	405.508240
2753.436011	17402.345500	1536.833008	405.716309
2753.436011	17402.345500	1535.780273	285.604706
2753.436011	17402.345500	1534.727539	329.092316
2753.436011	17402.345500	1533.674805	263.647705
2753.436011	17402.345500	1532.622070	404.843964
2753.436011	17402.345500	1531.569336	310.026642
2753.436011	17402.345500	1530.515625	178.999039
2753.436011	17402.345500	1529.461914	204.610428
2753.436011	17402.345500	1528.408203	302.849365
2753.436011	17402.345500	1527.354492	244.646301
2753.436011	17402.345500	1526.299805	211.462067
2753.436011	17402.345500	1525.246094	253.158173
2753.436011	17402.345500	1524.191406	251.836151
2753.436011	17402.345500	1523.136719	334.412231
2753.436011	17402.345500	1522.081055	170.089600
2753.436011	17402.345500	1521.026367	148.588669
2753.436011	17402.345500	1519.970703	263.023621
2753.436011	17402.345500	1518.915039	323.140015
2753.436011	17402.345500	1517.859375	211.265244
2753.436011	17402.345500	1516.802734	142.494354
2753.436011	17402.345500	1515.747070	257.094971
2753.436011	17402.345500	1514.690430	226.928940
2753.436011	17402.345500	1513.633789	280.525665
2753.436011	17402.345500	1512.577148	320.598206
2753.436011	17402.345500	1511.519531	107.497795
2753.436011	17402.345500	1510.461914	199.706238
2753.436011	17402.345500	1509.405273	249.007370
2753.436011	17402.345500	1508.346680	27.203775
2753.436011	17402.345500	1507.289063	124.089882
2753.436011	17402.345500	1506.231445	245.849014
2753.436011	17402.345500	1505.172852	119.221413
2753.436011	17402.345500	1504.114258	6.257796
2753.436011	17402.345500	1503.055664	-50.161308
2753.436011	17402.345500	1501.996094	-22.990332
2753.436011	17402.345500	1500.937500	159.932495
2753.436011	17402.345500	1499.877930	-51.944832
2753.436011	17402.345500	1498.818359	58.867527
2753.436011	17402.345500	1497.757813	-26.489410
2753.436011	17402.345500	1496.698242	-5.774335
2753.436011	17402.345500	1495.637695	-21.068552
2753.436011	17402.345500	1494.577148	89.920235
2753.436011	17402.345500	1493.516602	13.911843
2753.436011	17402.345500	1492.456055	-16.940819
2753.436011	17402.345500	1491.394531	82.923058
2753.436011	17402.345500	1490.333008	56.708069
2753.436011	17402.345500	1489.271484	-77.497818
2753.436011	17402.345500	1488.209961	-51.758022
2753.436011	17402.345500	1487.148438	97.823006
2753.436011	17402.345500	1486.085938	-54.106720
2753.436011	17402.345500	1485.023438	181.040848
2753.436011	17402.345500	1483.960938	182.242783
2753.436011	17402.345500	1482.898438	-23.373446
2753.436011	17402.345500	1481.834961	157.877029
2753.436011	17402.345500	1480.772461	199.752045
2753.436011	17402.345500	1479.708984	147.297150
2753.436011	17402.345500	1478.644531	67.965149
2753.436011	17402.345500	1477.581055	327.938782
2753.436011	17402.345500	1476.517578	93.824387
2753.436011	17402.345500	1475.453125	133.751526
2753.436011	17402.345500	1474.388672	-30.531826
2753.436011	17402.345500	1473.323242	231.747559
2753.436011	17402.345500	1472.258789	168.716537
2753.436011	17402.345500	1471.193359	424.154541
2753.436011	17402.345500	1470.127930	300.676971
2753.436011	17402.345500	1469.062500	206.558167
2753.436011	17402.345500	1467.997070	107.972878
2753.436011	17402.345500	1466.930664	152.705429
2753.436011	17402.345500	1465.865234	278.288574
2753.436011	17402.345500	1464.798828	260.843384
2753.436011	17402.345500	1463.731445	249.677048
2753.436011	17402.345500	1462.665039	315.090027
2753.436011	17402.345500	1461.597656	353.358948
2753.436011	17402.345500	1460.530273	427.779236
2753.436011	17402.345500	1459.462891	481.691620
2753.436011	17402.345500	1458.395508	239.138916
2753.436011	17402.345500	1457.327148	393.946045
2753.436011	17402.345500	1456.259766	481.600098
2753.436011	17402.345500	1455.191406	374.853149
2753.436011	17402.345500	1454.123047	364.710052
2753.436011	17402.345500	1453.053711	526.724976
2753.436011	17402.345500	1451.985352	507.334259
2753.436011	17402.345500	1450.916016	579.729309
2753.436011	17402.345500	1449.846680	564.840088
2753.436011	17402.345500	1448.776367	579.287842
2753.436011	17402.345500	1447.707031	500.766174
2753.436011	17402.345500	1446.636719	639.740967
2753.436011	17402.345500	1445.566406	337.389893
2753.436011	17402.345500	1444.496094	420.106354
2753.436011	17402.345500	1443.425781	386.505890
2753.436011	17402.345500	1442.354492	396.415649
2753.436011	17402.345500	1441.283203	378.971588
2753.436011	17402.345500	1440.211914	119.293602
2753.436011	17402.345500	1439.140625	182.878082
2753.436011	17402.345500	1438.069336	191.083206
2753.436011	17402.345500	1436.997070	215.945404
2753.436011	17402.345500	1435.924805	107.379585
2753.436011	17402.345500	1434.852539	256.479279
2753.436011	17402.345500	1433.780273	323.663147
2753.436011	17402.345500	1432.707031	336.234528
2753.436011	17402.345500	1431.633789	232.572830
2753.436011	17402.345500	1430.560547	337.757416
2753.436011	17402.345500	1429.487305	51.558575
2753.436011	17402.345500	1428.413086	199.084442
2753.436011	17402.345500	1427.339844	339.821075
2753.436011	17402.345500	1426.265625	71.279556
2753.436011	17402.345500	1425.191406	189.548950
2753.436011	17402.345500	1424.116211	21.158546
2753.436011	17402.345500	1423.041992	115.072411
2753.436011	17402.345500	1421.966797	68.047211
2753.436011	17402.345500	1420.891602	63.905132
2753.436011	17402.345500	1419.816406	52.385139
2753.436011	17402.345500	1418.740234	224.796585
2753.436011	17402.345500	1417.665039	-27.957148
2753.436011	17402.345500	1416.588867	-65.859535
2753.436011	17402.345500	1415.512695	-34.579426
2753.436011	17402.345500	1414.435547	93.777199
2753.436011	17402.345500	1413.359375	159.139648
2753.436011	17402.345500	1412.282227	185.129837
2753.436011	17402.345500	1411.205078	186.114304
2753.436011	17402.345500	1410.127930	49.075653
2753.436011	17402.345500	1409.049805	172.891068
2753.436011	17402.345500	1407.972656	204.331055
2753.436011	17402.345500	1406.894531	164.356461
2753.436011	17402.345500	1405.816406	302.187042
2753.436011	17402.345500	1404.737305	207.424835
2753.436011	17402.345500	1403.659180	112.901405
2753.436011	17402.345500	1402.580078	278.415894
2753.436011	17402.345500	1401.500977	276.038452
2753.436011	17402.345500	1400.421875	156.228134
2753.436011	17402.345500	1399.341797	349.134125
2753.436011	17402.345500	1398.262695	294.700195
2753.436011	17402.345500	1397.182617	344.967255
2753.436011	17402.345500	1396.102539	298.642853
2753.436011	17402.345500	1395.021484	231.021271
2753.436011	17402.345500	1393.941406	356.001038
2753.436011	17402.345500	1392.860352	305.250366
2753.436011	17402.345500	1391.779297	312.537109
2753.436011	17402.345500	1390.698242	286.329590
2753.436011	17402.345500	1389.616211	457.904358
2753.436011	17402.345500	1388.535156	447.254578
2753.436011	17402.345500	1387.453125	441.301392
2753.436011	17402.345500	1386.371094	335.659546
2753.436011	17402.345500	1385.288086	338.474884
2753.436011	17402.345500	1384.206055	393.519012
2753.436011	17402.345500	1383.123047	508.237335
2753.436011	17402.345500	1382.040039	550.145813
2753.436011	17402.345500	1380.957031	362.247894
2753.436011	17402.345500	1379.873047	255.320984
2753.436011	17402.345500	1378.789063	431.612305
2753.436011	17402.345500	1377.705078	289.176605
2753.436011	17402.345500	1376.621094	424.737579
2753.436011	17402.345500	1375.537109	458.416321
2753.436011	17402.345500	1374.452148	453.030518
2753.436011	17402.345500	1373.367188	526.850098
2753.436011	17402.345500	1372.282227	448.505951
2753.436011	17402.345500	1371.197266	486.257385
2753.436011	17402.345500	1370.112305	378.362244
2753.436011	17402.345500	1369.026367	424.098846
2753.436011	17402.345500	1367.940430	311.327698
2753.436011	17402.345500	1366.854492	309.795441
2753.436011	17402.345500	1365.767578	247.546082
2753.436011	17402.345500	1364.681641	216.247528
2753.436011	17402.345500	1363.594727	351.116302
2753.436011	17402.345500	1362.507813	318.040009
2753.436011	17402.345500	1361.419922	259.777252
2753.436011	17402.345500	1360.333008	418.093719
2753.436011	17402.345500	1359.245117	243.944000
2753.436011	17402.345500	1358.157227	290.235626
2753.436011	17402.345500	1357.069336	281.551605
2753.436011	17402.345500	1355.981445	233.645386
2753.436011	17402.345500	1354.892578	306.518372
2753.436011	17402.345500	1353.803711	355.698059
2753.436011	17402.345500	1352.714844	386.819214
2753.436011	17402.345500	1351.625000	349.029816
2753.436011	17402.345500	1350.536133	356.128143
2753.436011	17402.345500	1349.446289	447.786743
2753.436011	17402.345500	1348.356445	575.825867
2753.436011	17402.345500	1347.266602	335.220062
2753.436011	17402.345500	1346.175781	424.787994
2753.436011	17402.345500	1345.085938	435.980835
2753.436011	17402.345500	1343.995117	519.103760
2753.436011	17402.345500	1342.903320	325.091034
2753.436011	17402.345500	1341.812500	463.594299
2753.436011	17402.345500	1340.720703	484.571259
2753.436011	17402.345500	1339.629883	566.905457
2753.436011	17402.345500	1338.538086	628.788574
2753.436011	17402.345500	1337.445313	463.227112
2753.436011	17402.345500	1336.353516	462.598511
2753.436011	17402.345500	1335.260742	542.444763
2753.436011	17402.345500	1334.167969	508.358673
2753.436011	17402.345500	1333.075195	530.941223
2753.436011	17402.345500	1331.981445	449.482208
2753.436011	17402.345500	1330.888672	526.640930
2753.436011	17402.345500	1329.794922	572.967041
2753.436011	17402.345500	1328.701172	622.311462
2753.436011	17402.345500	1327.606445	729.119751
2753.436011	17402.345500	1326.512695	613.134094
2753.436011	17402.345500	1325.417969	659.561035
2753.436011	17402.345500	1324.323242	521.797791
2753.436011	17402.345500	1323.227539	605.749512
2753.436011	17402.345500	1322.132813	658.573669
2753.436011	17402.345500	1321.037109	546.701660
2753.436011	17402.345500	1319.941406	666.232666
2753.436011	17402.345500	1318.845703	628.499817
2753.436011	17402.345500	1317.750000	606.151917
2753.436011	17402.345500	1316.653320	588.291016
2753.436011	17402.345500	1315.556641	682.678894
2753.436011	17402.345500	1314.459961	599.108032
2753.436011	17402.345500	1313.363281	546.910889
2753.436011	17402.345500	1312.265625	631.257996
2753.436011	17402.345500	1311.167969	518.993530
2753.436011	17402.345500	1310.070313	469.032959
2753.436011	17402.345500	1308.972656	688.312378
2753.436011	17402.345500	1307.874023	593.216675
2753.436011	17402.345500	1306.776367	654.254333
2753.436011	17402.345500	1305.677734	518.375366
2753.436011	17402.345500	1304.579102	569.318909
2753.436011	17402.345500	1303.479492	604.706238
2753.436011	17402.345500	1302.380859	676.130676
2753.436011	17402.345500	1301.281250	545.847046
2753.436011	17402.345500	1300.181641	665.403076
2753.436011	17402.345500	1299.081055	522.069946
2753.436011	17402.345500	1297.981445	596.123047
2753.436011	17402.345500	1296.880859	544.893005
2753.436011	17402.345500	1295.780273	589.597290
2753.436011	17402.345500	1294.679688	517.275940
2753.436011	17402.345500	1293.578125	674.573425
2753.436011	17402.345500	1292.476563	678.203247
2753.436011	17402.345500	1291.375000	641.953979
2753.436011	17402.345500	1290.273438	574.468750
2753.436011	17402.345500	1289.171875	624.449158
2753.436011	17402.345500	1288.069336	691.684204
2753.436011	17402.345500	1286.966797	579.770752
2753.436011	17402.345500	1285.864258	632.922607
2753.436011	17402.345500	1284.761719	484.059723
2753.436011	17402.345500	1283.658203	488.795380
2753.436011	17402.345500	1282.554688	360.763916
2753.436011	17402.345500	1281.451172	482.508820
2753.436011	17402.345500	1280.347656	384.143402
2753.436011	17402.345500	1279.244141	404.255554
2753.436011	17402.345500	1278.139648	330.805298
2753.436011	17402.345500	1277.035156	433.027496
2753.436011	17402.345500	1275.930664	329.463226
2753.436011	17402.345500	1274.825195	362.149139
2753.436011	17402.345500	1273.720703	338.924133
2753.436011	17402.345500	1272.615234	191.559753
2753.436011	17402.345500	1271.508789	413.432007
2753.436011	17402.345500	1270.403320	347.767487
2753.436011	17402.345500	1269.297852	317.428040
2753.436011	17402.345500	1268.191406	203.188675
2753.436011	17402.345500	1267.084961	263.786194
2753.436011	17402.345500	1265.977539	151.577652
2753.436011	17402.345500	1264.871094	279.474152
2753.436011	17402.345500	1263.763672	200.470932
2753.436011	17402.345500	1262.656250	188.560684
2753.436011	17402.345500	1261.548828	156.015945
2753.436011	17402.345500	1260.440430	234.538940
2753.436011	17402.345500	1259.333008	174.442673
2753.436011	17402.345500	1258.224609	190.017303
2753.436011	17402.345500	1257.115234	283.062714
2753.436011	17402.345500	1256.006836	323.725372
2753.436011	17402.345500	1254.897461	303.001526
2753.436011	17402.345500	1253.788086	261.581665
2753.436011	17402.345500	1252.678711	280.647461
2753.436011	17402.345500	1251.569336	262.374359
2753.436011	17402.345500	1250.458984	352.195007
2753.436011	17402.345500	1249.349609	436.849243
2753.436011	17402.345500	1248.239258	431.200928
2753.436011	17402.345500	1247.127930	410.544128
2753.436011	17402.345500	1246.017578	416.621094
2753.436011	17402.345500	1244.906250	376.147736
2753.436011	17402.345500	1243.794922	398.071411
2753.436011	17402.345500	1242.683594	384.580719
2753.436011	17402.345500	1241.571289	502.283173
2753.436011	17402.345500	1240.459961	386.195038
2753.436011	17402.345500	1239.347656	316.319763
2753.436011	17402.345500	1238.234375	336.516846
2753.436011	17402.345500	1237.122070	329.427094
2753.436011	17402.345500	1236.008789	313.358643
2753.436011	17402.345500	1234.896484	240.158905
2753.436011	17402.345500	1233.782227	154.799988
2753.436011	17402.345500	1232.668945	207.813934
2753.436011	17402.345500	1231.555664	107.630989
2753.436011	17402.345500	1230.441406	122.521713
2753.436011	17402.345500	1229.327148	46.151859
2753.436011	17402.345500	1228.211914	124.732872
2753.436011	17402.345500	1227.097656	122.161118
2753.436011	17402.345500	1225.982422	67.895981
2753.436011	17402.345500	1224.867188	28.948959
2753.436011	17402.345500	1223.751953	113.839256
2753.436011	17402.345500	1222.635742	61.428188
2753.436011	17402.345500	1221.520508	128.273865
2753.436011	17402.345500	1220.404297	117.257942
2753.436011	17402.345500	1219.287109	119.665222
2753.436011	17402.345500	1218.170898	121.227722
2753.436011	17402.345500	1217.053711	50.696167
2753.436011	17402.345500	1215.936523	210.721344
2753.436011	17402.345500	1214.819336	124.801964
2753.436011	17402.345500	1213.702148	128.076401
2753.436011	17402.345500	1212.583984	-12.143902
2753.436011	17402.345500	1211.465820	138.044327
2753.436011	17402.345500	1210.347656	111.401047
2753.436011	17402.345500	1209.229492	60.250683
2753.436011	17402.345500	1208.110352	89.386070
2753.436011	17402.345500	1206.992188	27.630844
2753.436011	17402.345500	1205.873047	-28.103865
2753.436011	17402.345500	1204.752930	-109.039078
2753.436011	17402.345500	1203.633789	-102.257797
2753.436011	17402.345500	1202.513672	-56.199562
2753.436011	17402.345500	1201.393555	-4.593243
2753.436011	17402.345500	1200.273438	-31.190077
2753.436011	17402.345500	1199.152344	29.197691
2753.436011	17402.345500	1198.032227	-10.102613
2753.436011	17402.345500	1196.911133	-54.639061
2753.436011	17402.345500	1195.790039	-6.748343
2753.436011	17402.345500	1194.667969	-8.944905
2753.436011	17402.345500	1193.545898	9.629426
2753.436011	17402.345500	1192.424805	-3.003528
2753.436011	17402.345500	1191.301758	22.143063
2753.436011	17402.345500	1190.179688	-53.594353
2753.436011	17402.345500	1189.056641	86.298920
2753.436011	17402.345500	1187.933594	20.977545
2753.436011	17402.345500	1186.810547	-24.466888
2753.436011	17402.345500	1185.687500	154.231522
2753.436011	17402.345500	1184.563477	95.601158
2753.436011	17402.345500	1183.440430	189.426895
2753.436011	17402.345500	1182.316406	193.659760
2753.436011	17402.345500	1181.191406	118.720375
2753.436011	17402.345500	1180.067383	217.068558
2753.436011	17402.345500	1178.942383	247.582962
2753.436011	17402.345500	1177.817383	201.783676
2753.436011	17402.345500	1176.692383	176.095322
2753.436011	17402.345500	1175.566406	184.658966
2753.436011	17402.345500	1174.440430	178.153961
2753.436011	17402.345500	1173.314453	200.304749
2753.436011	17402.345500	1172.188477	148.977356
2753.436011	17402.345500	1171.062500	116.609138
2753.436011	17402.345500	1169.935547	50.042229
2753.436011	17402.345500	1168.808594	112.984917
2753.436011	17402.345500	1167.681641	42.332550
2753.436011	17402.345500	1166.553711	65.705055
2753.436011	17402.345500	1165.426758	0.253734
2753.436011	17402.345500	1164.298828	13.552050
2753.436011	17402.345500	1163.170898	-16.240902
2753.436011	17402.345500	1162.041992	80.992279
2753.436011	17402.345500	1160.914063	1.245869
2753.436011	17402.345500	1159.785156	-108.197853
2753.436011	17402.345500	1158.656250	-71.138672
2753.436011	17402.345500	1157.526367	-64.261505
2753.436011	17402.345500	1156.397461	-127.060669
2753.436011	17402.345500	1155.267578	-152.780884
2753.436011	17402.345500	1154.137695	-102.562660
2753.436011	17402.345500	1153.006836	-54.429375
2753.436011	17402.345500	1151.876953	-98.171028
2753.436011	17402.345500	1150.746094	-23.519842
2753.436011	17402.345500	1149.615234	93.730476
2753.436011	17402.345500	1148.484375	-16.339115
2753.436011	17402.345500	1147.352539	23.450062
2753.436011	17402.345500	1146.220703	-15.530590
2753.436011	17402.345500	1145.088867	-17.752346
2753.436011	17402.345500	1143.957031	-30.945261
2753.436011	17402.345500	1142.825195	60.710903
2753.436011	17402.345500	1141.692383	13.483588
2753.436011	17402.345500	1140.559570	17.413765
2753.436011	17402.345500	1139.426758	47.384666
2753.436011	17402.345500	1138.292969	84.050888
2753.436011	17402.345500	1137.159180	34.686382
2753.436011	17402.345500	1136.025391	83.488853
2753.436011	17402.345500	1134.891602	71.283936
2753.436011	17402.345500	1133.757813	151.987106
2753.436011	17402.345500	1132.623047	185.320251
2753.436011	17402.345500	1131.488281	64.910461
2753.436011	17402.345500	1130.353516	254.198654
2753.436011	17402.345500	1129.217773	249.966660
2753.436011	17402.345500	1128.083008	154.869400
2753.436011	17402.345500	1126.947266	307.642975
2753.436011	17402.345500	1125.811523	290.399017
2753.436011	17402.345500	1124.674805	239.947144
2753.436011	17402.345500	1123.539063	195.157318
2753.436011	17402.345500	1122.402344	247.381165
2753.436011	17402.345500	1121.265625	167.982880
2753.436011	17402.345500	1120.127930	256.636719
2753.436011	17402.345500	1118.990234	275.627869
2753.436011	17402.345500	1117.853516	292.224915
2753.436011	17402.345500	1116.714844	329.323120
2753.436011	17402.345500	1115.577148	241.153732
2753.436011	17402.345500	1114.439453	208.735214
2753.436011	17402.345500	1113.300781	204.081528
2753.436011	17402.345500	1112.162109	100.024879
2753.436011	17402.345500	1111.022461	177.799911
2753.436011	17402.345500	1109.883789	86.594078
2753.436011	17402.345500	1108.744141	106.873734
2753.436011	17402.345500	1107.604492	96.117630
2753.436011	17402.345500	1106.463867	138.908478
2753.436011	17402.345500	1105.324219	63.642952
2753.436011	17402.345500	1104.183594	12.709055
2753.436011	17402.345500	1103.042969	-29.307880
2753.436011	17402.345500	1101.902344	41.591694
2753.436011	17402.345500	1100.760742	183.397598
2753.436011	17402.345500	1099.619141	121.239204
2753.436011	17402.345500	1098.477539	6.555010
2753.436011	17402.345500	1097.335938	174.918808
2753.436011	17402.345500	1096.193359	166.256851
2753.436011	17402.345500	1095.051758	171.772415
2753.436011	17402.345500	1093.909180	209.782318
2753.436011	17402.345500	1092.765625	289.613678
2753.436011	17402.345500	1091.623047	226.813675
2753.436011	17402.345500	1090.479492	231.899170
2753.436011	17402.345500	1089.335938	354.868927
2753.436011	17402.345500	1088.192383	260.061829
2753.436011	17402.345500	1087.047852	259.774109
2753.436011	17402.345500	1085.903320	151.587601
2753.436011	17402.345500	1084.758789	113.392487
2753.436011	17402.345500	1083.614258	159.894424
2753.436011	17402.345500	1082.469727	114.614006
2753.436011	17402.345500	1081.324219	132.776031
2753.436011	17402.345500	1080.178711	20.701704
2753.436011	17402.345500	1079.033203	94.303711
2753.436011	17402.345500	1077.886719	74.495766
2753.436011	17402.345500	1076.740234	136.114288
2753.436011	17402.345500	1075.593750	3.301938
2753.436011	17402.345500	1074.447266	53.776588
2753.436011	17402.345500	1073.300781	40.777100
2753.436011	17402.345500	1072.153320	52.536419
2753.436011	17402.345500	1071.005859	98.325653
2753.436011	17402.345500	1069.858398	87.063858
2753.436011	17402.345500	1068.709961	126.668472
2753.436011	17402.345500	1067.561523	31.478071
2753.436011	17402.345500	1066.413086	105.338463
2753.436011	17402.345500	1065.264648	135.173584
2753.436011	17402.345500	1064.116211	162.599747
2753.436011	17402.345500	1062.966797	30.446411
2753.436011	17402.345500	1061.817383	-41.336891
2753.436011	17402.345500	1060.667969	154.776321
2753.436011	17402.345500	1059.517578	-10.567664
2753.436011	17402.345500	1058.368164	-2.685518
2753.436011	17402.345500	1057.217773	129.949097
2753.436011	17402.345500	1056.067383	20.192554
2753.436011	17402.345500	1054.916016	63.797031
2753.436011	17402.345500	1053.764648	142.482727
2753.436011	17402.345500	1052.613281	108.375732
2753.436011	17402.345500	1051.461914	-2.857807
2753.436011	17402.345500	1050.310547	31.403818
2753.436011	17402.345500	1049.158203	45.463451
2753.436011	17402.345500	1048.005859	29.402246
2753.436011	17402.345500	1046.853516	186.183228
2753.436011	17402.345500	1045.700195	-8.827353
2753.436011	17402.345500	1044.547852	38.671070
2753.436011	17402.345500	1043.394531	17.495346
2753.436011	17402.345500	1042.240234	115.376503
2753.436011	17402.345500	1041.086914	164.887680
2753.436011	17402.345500	1039.932617	102.478920
2753.436011	17402.345500	1038.778320	175.259369
2753.436011	17402.345500	1037.624023	21.415705
2753.436011	17402.345500	1036.469727	165.840134
2753.436011	17402.345500	1035.314453	96.431961
2753.436011	17402.345500	1034.159180	210.980103
2753.436011	17402.345500	1033.003906	210.083847
2753.436011	17402.345500	1031.847656	263.020813
2753.436011	17402.345500	1030.692383	198.599396
2753.436011	17402.345500	1029.536133	192.113983
2753.436011	17402.345500	1028.378906	261.248291
2753.436011	17402.345500	1027.222656	50.241417
2753.436011	17402.345500	1026.065430	183.631836
2753.436011	17402.345500	1024.908203	46.189102
2753.436011	17402.345500	1023.750977	163.277115
2753.436011	17402.345500	1022.593750	28.970243
2753.436011	17402.345500	1021.435547	128.376053
2753.436011	17402.345500	1020.277344	73.667007
2753.436011	17402.345500	1019.119141	46.724606
2753.436011	17402.345500	1017.959961	-131.409561
2753.436011	17402.345500	1016.800781	88.622078
2753.436011	17402.345500	1015.641602	38.099949
2753.436011	17402.345500	1014.482422	90.272240
2753.436011	17402.345500	1013.323242	66.819763
2753.436011	17402.345500	1012.163086	-9.040199
2753.436011	17402.345500	1011.002930	-70.607201
2753.436011	17402.345500	1009.842773	-103.199455
2753.436011	17402.345500	1008.681641	-114.449341
2753.436011	17402.345500	1007.520508	4.425671
2753.436011	17402.345500	1006.359375	-48.134823
2753.436011	17402.345500	1005.198242	55.118832
2753.436011	17402.345500	1004.037109	59.601814
2753.436011	17402.345500	1002.875000	42.067413
2753.436011	17402.345500	1001.712891	17.260637
2753.436011	17402.345500	1000.550781	44.726551
2753.436011	17402.345500	999.387695	-37.074093
2753.436011	17402.345500	998.224609	67.631607
2753.436011	17402.345500	997.061523	64.553734
2753.436011	17402.345500	995.898438	-95.518494
2753.436011	17402.345500	994.734375	-132.658081
2753.436011	17402.345500	993.571289	-93.420303
2753.436011	17402.345500	992.407227	-87.531860
2753.436011	17402.345500	991.242188	21.364269
2753.436011	17402.345500	990.078125	-21.887682
2753.436011	17402.345500	988.913086	25.988897
2753.436011	17402.345500	987.748047	-83.254944
2753.436011	17402.345500	986.583008	22.772045
2753.436011	17402.345500	985.416992	-12.291835
2753.436011	17402.345500	984.250977	-27.337580
2753.436011	17402.345500	983.084961	43.817070
2753.436011	17402.345500	981.918945	-58.528435
2753.436011	17402.345500	980.751953	68.898911
2753.436011	17402.345500	979.584961	-40.948090
2753.436011	17402.345500	978.417969	-55.066856
2753.436011	17402.345500	977.250977	-92.944572
2753.436011	17402.345500	976.083008	108.783501
2753.436011	17402.345500	974.915039	226.132736
2753.436011	17402.345500	973.747070	-54.982693
2753.436011	17402.345500	972.579102	-55.806301
2753.436011	17402.345500	971.410156	-6.952907
2753.436011	17402.345500	970.242188	-10.521643
2753.436011	17402.345500	969.072266	44.482136
2753.436011	17402.345500	967.903320	16.286192
2753.436011	17402.345500	966.733398	59.071358
2753.436011	17402.345500	965.563477	10.799873
2753.436011	17402.345500	964.393555	-6.158517
2753.436011	17402.345500	963.223633	28.900888
2753.436011	17402.345500	962.052734	36.316784
2753.436011	17402.345500	960.881836	73.707214
2753.436011	17402.345500	959.710938	112.646019
2753.436011	17402.345500	958.540039	-2.347653
2753.436011	17402.345500	957.368164	194.727921
2753.436011	17402.345500	956.196289	43.776485
2753.436011	17402.345500	955.024414	138.512985
2753.436011	17402.345500	953.851563	97.340935
2753.436011	17402.345500	952.679688	170.497040
2753.436011	17402.345500	951.506836	42.551430
2753.436011	17402.345500	950.333984	95.430840
2753.436011	17402.345500	949.160156	106.407410
2753.436011	17402.345500	947.986328	31.034363
2753.436011	17402.345500	946.812500	110.007103
2753.436011	17402.345500	945.638672	20.720747
2753.436011	17402.345500	944.464844	19.757410
2753.436011	17402.345500	943.290039	34.579102
2753.436011	17402.345500	942.115234	-16.788733
2753.436011	17402.345500	940.940430	62.162781
2753.436011	17402.345500	939.764648	13.012802
2753.436011	17402.345500	938.588867	63.986511
2753.436011	17402.345500	937.413086	82.636230
2753.436011	17402.345500	936.237305	91.509399
2753.436011	17402.345500	935.060547	58.379471
2753.436011	17402.345500	933.883789	55.132786
2753.436011	17402.345500	932.707031	47.960827
2753.436011	17402.345500	931.530273	64.674698
2753.436011	17402.345500	930.352539	145.558533
2753.436011	17402.345500	929.175781	22.186842
2753.436011	17402.345500	927.998047	108.956413
2753.436011	17402.345500	926.819336	145.703217
2753.436011	17402.345500	925.641602	50.369492
2753.436011	17402.345500	924.462891	27.085850
2753.436011	17402.345500	923.284180	57.774376
2753.436011	17402.345500	922.104492	-41.513309
2753.436011	17402.345500	920.924805	95.113640
2753.436011	17402.345500	919.746094	96.634972
2753.436011	17402.345500	919.551758	12.070307
2753.436011	17402.345500	918.386719	36.686634
2753.436011	17402.345500	917.220703	97.244194
2753.436011	17402.345500	916.054688	15.945397
2753.436011	17402.345500	914.887695	-17.401381
2753.436011	17402.345500	913.721680	33.111134
2753.436011	17402.345500	912.554688	-54.147903
2753.436011	17402.345500	911.387695	4.313004
2753.436011	17402.345500	910.220703	38.792721
2753.436011	17402.345500	909.052734	-2.562536
2753.436011	17402.345500	907.885742	-55.881538
2753.436011	17402.345500	906.717773	-65.316238
2753.436011	17402.345500	905.548828	-4.975034
2753.436011	17402.345500	904.380859	-8.459789
2753.436011	17402.345500	903.211914	-89.680084
2753.436011	17402.345500	902.042969	-172.871658
2753.436011	17402.345500	900.874023	-84.713432
2753.436011	17402.345500	899.704102	-32.453583
2753.436011	17402.345500	898.535156	-37.977081
2753.436011	17402.345500	897.365234	2.283190
2753.436011	17402.345500	896.194336	18.629946
2753.436011	17402.345500	895.024414	-36.687946
2753.436011	17402.345500	893.853516	29.380453
2753.436011	17402.345500	892.682617	43.687614
2753.436011	17402.345500	891.511719	-1.690780
2753.436011	17402.345500	890.340820	24.525064
2753.436011	17402.345500	889.168945	16.921595
2753.436011	17402.345500	887.997070	74.904045
2753.436011	17402.345500	886.825195	-0.298096
2753.436011	17402.345500	885.653320	51.680405
2753.436011	17402.345500	884.480469	-23.508619
2753.436011	17402.345500	883.307617	6.584041
2753.436011	17402.345500	882.134766	-52.702755
2753.436011	17402.345500	880.961914	32.947876
2753.436011	17402.345500	879.788086	31.218975
2753.436011	17402.345500	878.614258	-4.257114
2753.436011	17402.345500	877.440430	69.392647
2753.436011	17402.345500	876.266602	41.834244
2753.436011	17402.345500	875.091797	-15.472463
2753.436011	17402.345500	873.916992	2.580487
2753.436011	17402.345500	872.742188	72.157623
2753.436011	17402.345500	871.567383	66.377579
2753.436011	17402.345500	870.391602	-10.750042
2753.436011	17402.345500	869.215820	92.432564
2753.436011	17402.345500	868.040039	-63.924976
2753.436011	17402.345500	866.864258	90.693184
2753.436011	17402.345500	865.687500	41.296356
2753.436011	17402.345500	864.510742	-25.908058
2753.436011	17402.345500	863.333984	47.424633
2753.436011	17402.345500	862.157227	89.055138
2753.436011	17402.345500	860.979492	-77.072952
2753.436011	17402.345500	859.802734	-84.907982
2753.436011	17402.345500	858.625000	43.700455
2753.436011	17402.345500	857.446289	12.095047
2753.436011	17402.345500	856.268555	-72.883667
2753.436011	17402.345500	855.089844	-59.021389
2753.436011	17402.345500	853.911133	-149.902390
2753.436011	17402.345500	852.731445	-78.764076
2753.436011	17402.345500	851.552734	-1.742628
2753.436011	17402.345500	850.373047	-98.540840
2753.436011	17402.345500	849.193359	-173.594742
2753.436011	17402.345500	848.013672	11.926654
2753.436011	17402.345500	846.833008	-45.382549
2753.436011	17402.345500	845.652344	23.597544
2753.436011	17402.345500	844.471680	23.492125
2753.436011	17402.345500	843.291016	39.151966
2753.436011	17402.345500	842.110352	-53.661995
2753.436011	17402.345500	840.928711	-101.106224
2753.436011	17402.345500	839.747070	99.812035
2753.436011	17402.345500	838.564453	-58.028057
2753.436011	17402.345500	837.382813	-6.968507
2753.436011	17402.345500	836.200195	-95.803436
2753.436011	17402.345500	835.017578	37.933578
2753.436011	17402.345500	833.834961	4.232471
2753.436011	17402.345500	832.651367	29.590992
2753.436011	17402.345500	831.467773	78.544685
2753.436011	17402.345500	830.284180	58.590080
2753.436011	17402.345500	829.100586	-12.523628
2753.436011	17402.345500	827.916992	-10.841910
2753.436011	17402.345500	826.732422	-1.308235
2753.436011	17402.345500	825.547852	-3.589638
2753.436011	17402.345500	824.363281	51.123631
2753.436011	17402.345500	823.177734	9.495977
2753.436011	17402.345500	821.992188	3.241257
2753.436011	17402.345500	820.806641	-42.317352
2753.436011	17402.345500	819.621094	-48.588120
2753.436011	17402.345500	818.434570	35.463913
2753.436011	17402.345500	817.249023	-29.750919
2753.436011	17402.345500	816.062500	-30.175089
2753.436011	17402.345500	814.875000	63.589493
2753.436011	17402.345500	813.688477	23.873400
2753.436011	17402.345500	812.500977	62.629101
2753.436011	17402.345500	811.313477	120.967049
2753.436011	17402.345500	810.125977	181.227005
2753.436011	17402.345500	808.937500	117.932632
2753.436011	17402.345500	807.749023	172.257370
2753.436011	17402.345500	806.560547	146.195328
2753.436011	17402.345500	805.372070	88.779610
2753.436011	17402.345500	804.182617	-76.368530
2753.436011	17402.345500	802.994141	-4.484214
2753.436011	17402.345500	801.803711	28.193100
2753.436011	17402.345500	800.614258	-123.183197
2753.436011	17402.345500	799.424805	-82.697693
2753.436011	17402.345500	798.234375	-44.201374
2753.436011	17402.345500	797.043945	-21.389057
2753.436011	17402.345500	795.852539	63.992489
2753.436011	17402.345500	794.662109	20.247389
2753.436011	17402.345500	793.470703	62.536697
2753.436011	17402.345500	792.279297	16.823128
2753.436011	17402.345500	791.087891	-17.161694
2753.436011	17402.345500	789.895508	-66.780807
2753.436011	17402.345500	788.703125	84.830147
2753.436011	17402.345500	787.510742	35.177216
2753.436011	17402.345500	786.318359	42.160244
2753.436011	17402.345500	785.125000	8.122932
2753.436011	17402.345500	783.931641	9.219003
2753.436011	17402.345500	782.738281	29.814123
2753.436011	17402.345500	781.544922	32.822796
2753.436011	17402.345500	780.350586	100.190231
2753.436011	17402.345500	779.156250	-23.627792
2753.436011	17402.345500	777.961914	113.889435
2753.436011	17402.345500	776.767578	132.406662
2753.436011	17402.345500	775.572266	-61.564301
2753.436011	17402.345500	774.376953	77.771988
2753.436011	17402.345500	773.181641	51.419884
2753.436011	17402.345500	771.986328	-23.637989
2753.436011	17402.345500	770.790039	98.022728
2753.436011	17402.345500	769.593750	126.151405
2753.436011	17402.345500	768.397461	-1.491014
2753.436011	17402.345500	767.201172	-49.297382
2753.436011	17402.345500	766.003906	-7.587289
2753.436011	17402.345500	764.806641	-30.115454
2753.436011	17402.345500	763.609375	54.330986
2753.436011	17402.345500	762.412109	-38.247265
2753.436011	17402.345500	761.213867	77.239342
2753.436011	17402.345500	760.015625	52.696297
2753.436011	17402.345500	758.817383	35.919971
2753.436011	17402.345500	757.618164	141.549683
2753.436011	17402.345500	756.419922	161.637299
2753.436011	17402.345500	755.220703	257.449249
2753.436011	17402.345500	754.021484	91.044434
2753.436011	17402.345500	752.821289	113.016716
2753.436011	17402.345500	751.621094	47.612518
2753.436011	17402.345500	750.420898	15.208794
2753.436011	17402.345500	749.220703	99.218628
2753.436011	17402.345500	748.020508	72.601501
2753.436011	17402.345500	746.819336	-105.303192
2753.436011	17402.345500	745.618164	122.116302
2753.436011	17402.345500	744.416992	85.762337
2753.436011	17402.345500	743.214844	90.109055
2753.436011	17402.345500	742.012695	113.814140
2753.436011	17402.345500	740.810547	218.864929
2753.436011	17402.345500	739.608398	333.539276
2753.436011	17402.345500	738.406250	326.137482
2753.436011	17402.345500	737.203125	312.911957
2753.436011	17402.345500	736.000000	425.503906
2753.436011	17402.345500	734.795898	574.802856
2753.436011	17402.345500	733.592773	582.764648
2753.436011	17402.345500	732.388672	596.508240
2753.436011	17402.345500	731.184570	710.808167
2753.436011	17402.345500	729.979492	490.489563
2753.436011	17402.345500	728.775391	457.787567
2753.436011	17402.345500	727.570313	309.099884
2753.436011	17402.345500	726.365234	222.299805
2753.436011	17402.345500	725.160156	178.026993
2753.436011	17402.345500	723.954102	211.025940
2753.436011	17402.345500	722.748047	211.160187
2753.436011	17402.345500	721.541992	126.312622
2753.436011	17402.345500	720.334961	178.553848
2753.436011	17402.345500	719.128906	165.130051
2753.436011	17402.345500	717.921875	55.204861
2753.436011	17402.345500	716.714844	66.859169
2753.436011	17402.345500	715.506836	63.058090
2753.436011	17402.345500	714.298828	119.027588
2753.436011	17402.345500	713.090820	7.205750
2753.436011	17402.345500	711.882813	20.718164
2753.436011	17402.345500	710.674805	-33.249516
2753.436011	17402.345500	709.465820	-27.476870
2753.436011	17402.345500	708.256836	-23.649946
2753.436011	17402.345500	707.047852	66.835373
2753.436011	17402.345500	705.837891	89.864037
2753.436011	17402.345500	704.627930	-27.683062
2753.436011	17402.345500	703.417969	6.872920
2753.436011	17402.345500	702.208008	39.473030
2753.436011	17402.345500	700.998047	-68.417511
2753.436011	17402.345500	699.787109	-83.941132
2753.436011	17402.345500	698.576172	64.007744
2753.436011	17402.345500	697.364258	11.894577
2753.436011	17402.345500	696.153320	-47.900803
2753.436011	17402.345500	694.941406	-0.050173
2753.436011	17402.345500	693.729492	18.939812
2753.436011	17402.345500	692.516602	89.780678
2753.436011	17402.345500	691.304688	-50.720158
2753.436011	17402.345500	690.091797	93.054039
2753.436011	17402.345500	688.878906	104.267563
2753.436011	17402.345500	687.665039	119.299896
2753.436011	17402.345500	686.451172	86.329521
2753.436011	17402.345500	685.237305	237.571487
2753.436011	17402.345500	684.023438	200.725204
2753.436011	17402.345500	682.809570	154.289886
2753.436011	17402.345500	681.594727	192.237259
2753.436011	17402.345500	680.379883	189.892380
2753.436011	17402.345500	679.165039	168.366806
2753.436011	17402.345500	677.949219	137.254272
2753.436011	17402.345500	676.733398	157.875031
2753.436011	17402.345500	675.517578	243.606750
2753.436011	17402.345500	674.301758	233.527267
2753.436011	17402.345500	673.084961	162.164444
2753.436011	17402.345500	671.869141	243.975510
2753.436011	17402.345500	670.651367	352.534698
2753.436011	17402.345500	669.434570	183.561707
2753.436011	17402.345500	668.216797	282.499176
2753.436011	17402.345500	667.000000	218.795120
2753.436011	17402.345500	665.781250	248.813248
2753.436011	17402.345500	664.563477	95.256332
2753.436011	17402.345500	663.344727	129.090347
2753.436011	17402.345500	662.125977	159.078064
2753.436011	17402.345500	660.907227	97.324738
2753.436011	17402.345500	659.688477	106.273033
2753.436011	17402.345500	658.468750	94.197327
2753.436011	17402.345500	657.249023	192.874573
2753.436011	17402.345500	656.029297	323.957428
2753.436011	17402.345500	654.808594	298.455109
2753.436011	17402.345500	653.587891	301.581146
2753.436011	17402.345500	652.367188	213.115128
2753.436011	17402.345500	651.146484	189.536377
2753.436011	17402.345500	649.924805	318.533813
2753.436011	17402.345500	648.704102	371.200745
2753.436011	17402.345500	647.482422	349.488434
2753.436011	17402.345500	646.259766	367.803894
2753.436011	17402.345500	645.037109	224.132248
2753.436011	17402.345500	643.815430	452.023987
2753.436011	17402.345500	642.591797	201.717545
2753.436011	17402.345500	641.369141	208.601151
2753.436011	17402.345500	640.145508	268.786652
2753.436011	17402.345500	638.921875	254.704468
2753.436011	17402.345500	637.698242	244.430161
2753.436011	17402.345500	636.474609	209.421585
2753.436011	17402.345500	635.250000	18.431633
2753.436011	17402.345500	634.025391	10.105579
2753.436011	17402.345500	632.800781	281.306580
2753.436011	17402.345500	631.575195	12.467704
2753.436011	17402.345500	630.349609	-14.866342
2753.436011	17402.345500	629.124023	195.350708
2753.436011	17402.345500	627.898438	183.187103
2753.436011	17402.345500	626.671875	68.452377
2753.436011	17402.345500	625.445313	60.116550
2753.436011	17402.345500	624.218750	57.481270
2753.436011	17402.345500	622.992188	172.542511
2753.436011	17402.345500	621.764648	111.049309
2753.436011	17402.345500	620.537109	172.921844
2753.436011	17402.345500	619.309570	35.573627
2753.436011	17402.345500	618.081055	76.574455
2753.436011	17402.345500	616.852539	3.782543
2753.436011	17402.345500	615.624023	-65.184044
2753.436011	17402.345500	614.395508	40.267857
2753.436011	17402.345500	613.166992	-5.928739
2753.436011	17402.345500	611.937500	-6.630251
2753.436011	17402.345500	610.708008	15.404815
2753.436011	17402.345500	609.477539	-100.819595
2753.436011	17402.345500	608.248047	65.140503
2753.436011	17402.345500	607.017578	43.620258
2753.436011	17402.345500	605.787109	6.973448
2753.436011	17402.345500	604.555664	142.544861
2753.436011	17402.345500	603.325195	51.042122
2753.436011	17402.345500	602.093750	59.832150
2753.436011	17402.345500	600.861328	57.278645
2753.436011	17402.345500	599.629883	11.250322
2753.436011	17402.345500	598.397461	144.824112
2753.436011	17402.345500	597.165039	189.526596
2753.436011	17402.345500	595.932617	185.093521
2753.436011	17402.345500	594.699219	188.227173
2753.436011	17402.345500	593.465820	231.031250
2753.436011	17402.345500	592.232422	105.773254
2753.436011	17402.345500	590.999023	154.262161
2753.436011	17402.345500	589.764648	49.857002
2753.436011	17402.345500	588.530273	107.794281
2753.436011	17402.345500	587.295898	20.447420
2753.436011	17402.345500	586.061523	57.642490
2753.436011	17402.345500	584.826172	-101.293655
2753.436011	17402.345500	583.590820	-52.750568
2753.436011	17402.345500	582.355469	-92.811363
2753.436011	17402.345500	581.119141	-0.917224
2753.436011	17402.345500	579.882813	-144.576889
2753.436011	17402.345500	578.646484	-139.337341
2753.436011	17402.345500	577.410156	52.374523
2753.436011	17402.345500	576.172852	59.482304
2753.436011	17402.345500	574.935547	-46.353848
2753.436011	17402.345500	573.698242	-22.255653
2753.436011	17402.345500	572.460938	54.540909
2753.436011	17402.345500	571.222656	74.877434
2753.436011	17402.345500	569.984375	177.988220
2753.436011	17402.345500	568.746094	147.548401
2753.436011	17402.345500	567.506836	111.498718
2753.436011	17402.345500	566.267578	43.525574
2753.436011	17402.345500	565.028320	201.130249
2753.436011	17402.345500	563.789063	229.034714
2753.436011	17402.345500	562.548828	82.235443
2753.436011	17402.345500	561.309570	136.487488
2753.436011	17402.345500	560.068359	136.278168
2753.436011	17402.345500	558.828125	23.445936
2753.436011	17402.345500	557.586914	38.318386
2753.436011	17402.345500	556.345703	92.613953
2753.436011	17402.345500	555.104492	13.697136
2753.436011	17402.345500	553.863281	148.676590
2753.436011	17402.345500	552.621094	152.341293
2753.436011	17402.345500	551.378906	161.651764
2753.436011	17402.345500	550.136719	137.237122
2753.436011	17402.345500	548.893555	69.748703
2753.436011	17402.345500	547.650391	90.379837
2753.436011	17402.345500	546.407227	99.784500
2753.436011	17402.345500	545.164063	60.510239
2753.436011	17402.345500	543.919922	94.306549
2753.436011	17402.345500	542.675781	10.163514
2753.436011	17402.345500	541.431641	-36.484154
2753.436011	17402.345500	540.186523	-53.146217
2753.436011	17402.345500	538.941406	48.094570
2753.436011	17402.345500	537.696289	68.880386
2753.436011	17402.345500	536.451172	57.888554
2753.436011	17402.345500	535.205078	140.414032
2753.436011	17402.345500	533.959961	30.382227
2753.436011	17402.345500	532.712891	-17.903137
2753.436011	17402.345500	531.466797	-68.011353
2753.436011	17402.345500	530.219727	147.207520
2753.436011	17402.345500	528.972656	9.347695
2753.436011	17402.345500	527.725586	123.667442
2753.436011	17402.345500	526.478516	36.328323
2753.436011	17402.345500	525.230469	87.178062
2753.436011	17402.345500	523.982422	-54.187328
2753.436011	17402.345500	522.734375	-14.487192
2753.436011	17402.345500	521.485352	-32.607212
2753.436011	17402.345500	520.236328	-121.564766
2753.436011	17402.345500	518.987305	-12.815094
2753.436011	17402.345500	517.737305	-8.483145
2753.436011	17402.345500	516.488281	23.827391
2753.436011	17402.345500	515.238281	0.245687
2753.436011	17402.345500	513.988281	-66.152084
2753.436011	17402.345500	512.737305	-24.468904
2753.436011	17402.345500	511.486328	-168.999298
2753.436011	17402.345500	510.235352	-9.975994
2753.436011	17402.345500	508.984375	-78.087334
2753.436011	17402.345500	507.732422	-36.349895
2753.436011	17402.345500	506.480469	9.111067
2753.436011	17402.345500	505.228516	47.132538
2753.436011	17402.345500	503.976563	-67.344025
2753.436011	17402.345500	502.723633	-163.157532
2753.436011	17402.345500	501.470703	-95.321068
2753.436011	17402.345500	500.217773	-21.919170
2753.436011	17402.345500	498.963867	149.952896
2753.436011	17402.345500	497.709961	-42.355820
2753.436011	17402.345500	496.456055	-97.118874
2753.436011	17402.345500	495.202148	-77.562981
2753.436011	17402.345500	493.947266	19.976763
2753.436011	17402.345500	492.692383	37.673950
2753.436011	17402.345500	491.437500	120.329597
2753.436011	17402.345500	490.181641	-2.983239
2753.436011	17402.345500	488.926758	-55.741108
2753.436011	17402.345500	487.670898	67.720863
2753.436011	17402.345500	486.414063	68.764633
2753.436011	17402.345500	485.158203	49.426678
2753.436011	17402.345500	483.901367	15.279531
2753.436011	17402.345500	482.644531	44.156582
2753.436011	17402.345500	481.386719	106.375320
2753.436011	17402.345500	480.128906	124.121094
2753.436011	17402.345500	478.871094	-0.723399
2753.436011	17402.345500	477.613281	-27.385841
2753.436011	17402.345500	476.355469	53.322540
2753.436011	17402.345500	475.096680	93.285469
2753.436011	17402.345500	473.837891	-70.288979
2753.436011	17402.345500	472.578125	-45.114830
2753.436011	17402.345500	471.319336	-73.586784
2753.436011	17402.345500	470.059570	-16.995949
2753.436011	17402.345500	468.799805	222.576523
2753.436011	17402.345500	467.539063	170.024323
2753.436011	17402.345500	466.278320	132.269638
2753.436011	17402.345500	465.017578	81.589729
2753.436011	17402.345500	463.756836	93.718826
2753.436011	17402.345500	462.495117	72.590950
2753.436011	17402.345500	461.233398	300.694519
2753.436011	17402.345500	459.971680	237.047318
2753.436011	17402.345500	458.709961	75.603630
2753.436011	17402.345500	457.447266	-2.765300
2753.436011	17402.345500	456.184570	25.864834
2753.436011	17402.345500	454.921875	15.730862
2753.436011	17402.345500	453.658203	1.887423
2753.436011	17402.345500	452.394531	0.926678
2753.436011	17402.345500	451.130859	116.045746
2753.436011	17402.345500	449.867188	131.582306
2753.436011	17402.345500	448.602539	124.970589
2753.436011	17402.345500	447.337891	147.794785
2753.436011	17402.345500	446.073242	84.023293
2753.436011	17402.345500	444.807617	-1.854299
2753.436011	17402.345500	443.542969	186.513947
2753.436011	17402.345500	442.276367	157.607742
2753.436011	17402.345500	441.010742	172.820740
2753.436011	17402.345500	439.744141	70.252266
2753.436011	17402.345500	438.478516	4.454493
2753.436011	17402.345500	437.210938	30.558764
2753.436011	17402.345500	435.944336	190.783157
2753.436011	17402.345500	434.676758	141.361694
2753.436011	17402.345500	433.409180	115.782555
2753.436011	17402.345500	432.141602	36.870884
2753.436011	17402.345500	430.873047	150.767929
2753.436011	17402.345500	429.604492	97.442307
2753.436011	17402.345500	428.335938	88.121277
2753.436011	17402.345500	427.067383	108.089653
2753.436011	17402.345500	425.797852	170.169312
2753.436011	17402.345500	424.528320	155.077347
2753.436011	17402.345500	423.258789	64.695541
2753.436011	17402.345500	421.988281	75.117294
2753.436011	17402.345500	420.717773	177.107544
2753.436011	17402.345500	419.447266	216.625946
2753.436011	17402.345500	418.175781	146.058426
2753.436011	17402.345500	416.905273	152.366714
2753.436011	17402.345500	415.633789	68.793465
2753.436011	17402.345500	414.362305	159.126587
2753.436011	17402.345500	413.089844	68.018890
2753.436011	17402.345500	411.817383	145.244110
2753.436011	17402.345500	410.544922	178.376602
2753.436011	17402.345500	409.272461	207.698120
2753.436011	17402.345500	407.999023	304.553589
2753.436011	17402.345500	406.725586	159.781799
2753.436011	17402.345500	405.452148	104.527008
2753.436011	17402.345500	404.177734	210.027603
2753.436011	17402.345500	402.903320	203.820160
2753.436011	17402.345500	401.628906	316.236694
2753.436011	17402.345500	400.354492	263.994385
2753.436011	17402.345500	399.079102	255.436737
2753.436011	17402.345500	397.803711	294.184875
2753.436011	17402.345500	396.528320	217.696915
2753.436011	17402.345500	395.251953	128.268265
2753.436011	17402.345500	393.976563	193.818253
2753.436011	17402.345500	392.700195	173.371338
2753.436011	17402.345500	391.422852	194.678772
2753.436011	17402.345500	390.145508	175.635391
2753.436011	17402.345500	388.869141	192.852936
2753.436011	17402.345500	387.590820	206.181290
2753.436011	17402.345500	386.313477	195.578430
2753.436011	17402.345500	385.035156	151.933426
2753.436011	17402.345500	383.756836	204.623886
2753.436011	17402.345500	382.478516	180.533127
2753.436011	17402.345500	381.199219	227.213257
2753.436011	17402.345500	379.919922	62.397583
2753.436011	17402.345500	378.640625	172.255234
2753.436011	17402.345500	377.360352	128.901840
2753.436011	17402.345500	376.080078	209.009918
2753.436011	17402.345500	374.799805	146.892807
2753.436011	17402.345500	373.519531	119.057045
2753.436011	17402.345500	372.238281	225.477280
2753.436011	17402.345500	370.957031	149.735138
2753.436011	17402.345500	369.675781	75.518501
2753.436011	17402.345500	368.394531	53.700165
2753.436011	17402.345500	367.112305	22.458857
2753.436011	17402.345500	365.830078	-16.383543
2753.436011	17402.345500	364.546875	73.362137
2753.436011	17402.345500	363.264648	42.880810
2753.436011	17402.345500	361.981445	57.410740
2753.436011	17402.345500	360.698242	-33.708035
2753.436011	17402.345500	359.414063	114.316994
2753.436011	17402.345500	358.129883	-64.649422
2753.436011	17402.345500	356.845703	55.302986
2753.436011	17402.345500	355.561523	-31.924416
2753.436011	17402.345500	354.276367	-37.974464
2753.436011	17402.345500	352.991211	-4.584750
2753.436011	17402.345500	351.706055	99.013374
2753.436011	17402.345500	350.420898	8.262739
2753.436011	17402.345500	349.134766	-111.906662
2753.436011	17402.345500	347.848633	2.912877
2753.436011	17402.345500	346.561523	64.680130
2753.436011	17402.345500	345.275391	-6.200037
2753.436011	17402.345500	343.988281	27.392818
2753.436011	17402.345500	342.700195	-22.788429
2753.436011	17402.345500	341.413086	-11.959115
2753.436011	17402.345500	340.125000	-34.241783
2753.436011	17402.345500	338.836914	-46.216373
2753.436011	17402.345500	337.548828	89.486305
2753.436011	17402.345500	336.259766	-15.833131
2753.436011	17402.345500	334.970703	-81.938408
2753.436011	17402.345500	333.681641	24.816570
2753.436011	17402.345500	332.391602	-111.122887
2753.436011	17402.345500	331.101563	-52.602177
2753.436011	17402.345500	329.811523	39.562435
2753.436011	17402.345500	328.521484	-2.523101
2753.436011	17402.345500	327.230469	72.030296
2753.436011	17402.345500	325.939453	-45.359798
2753.436011	17402.345500	324.648438	-109.267097
2753.436011	17402.345500	323.356445	78.611000
2753.436011	17402.345500	322.064453	-57.035423
2753.436011	17402.345500	320.772461	3.138870
2753.436011	17402.345500	319.480469	-112.260765
2753.436011	17402.345500	318.187500	-98.650826
2753.436011	17402.345500	316.894531	-62.390564
2753.436011	17402.345500	315.601563	30.710344
2753.436011	17402.345500	314.307617	-28.296137
2753.436011	17402.345500	313.013672	-3.471183
2753.436011	17402.345500	311.719727	25.923855
2753.436011	17402.345500	310.425781	25.682163
2753.436011	17402.345500	309.130859	-20.411575
2753.436011	17402.345500	307.835938	49.564632
2753.436011	17402.345500	306.541016	30.516741
2753.436011	17402.345500	305.245117	64.490631
2753.436011	17402.345500	303.949219	20.248070
2753.436011	17402.345500	302.653320	88.315582
2753.436011	17402.345500	301.356445	124.837547
2753.436011	17402.345500	300.060547	137.065857
2753.436011	17402.345500	298.763672	135.712524
