#X		#Y		#Wave		#Intensity
2831.041436	17458.902000	2000.043945	77.262962
2831.041436	17458.902000	1999.080078	-27.941162
2831.041436	17458.902000	1998.116211	56.512939
2831.041436	17458.902000	1997.151367	-10.420796
2831.041436	17458.902000	1996.186523	-45.307507
2831.041436	17458.902000	1995.222656	140.108612
2831.041436	17458.902000	1994.256836	35.503204
2831.041436	17458.902000	1993.291992	-39.520287
2831.041436	17458.902000	1992.327148	-0.791115
2831.041436	17458.902000	1991.361328	-19.167162
2831.041436	17458.902000	1990.395508	53.882042
2831.041436	17458.902000	1989.429688	15.403237
2831.041436	17458.902000	1988.463867	8.957696
2831.041436	17458.902000	1987.497070	-108.933609
2831.041436	17458.902000	1986.531250	-140.358383
2831.041436	17458.902000	1985.564453	105.037331
2831.041436	17458.902000	1984.597656	179.635834
2831.041436	17458.902000	1983.630859	68.706337
2831.041436	17458.902000	1982.664063	-104.079185
2831.041436	17458.902000	1981.696289	36.881386
2831.041436	17458.902000	1980.728516	-24.886990
2831.041436	17458.902000	1979.761719	12.058948
2831.041436	17458.902000	1978.792969	130.384567
2831.041436	17458.902000	1977.825195	63.396904
2831.041436	17458.902000	1976.857422	-94.993019
2831.041436	17458.902000	1975.888672	84.712715
2831.041436	17458.902000	1974.919922	-9.636177
2831.041436	17458.902000	1973.951172	-7.812935
2831.041436	17458.902000	1972.982422	67.933029
2831.041436	17458.902000	1972.013672	44.927887
2831.041436	17458.902000	1971.043945	7.065726
2831.041436	17458.902000	1970.075195	30.783092
2831.041436	17458.902000	1969.105469	185.064758
2831.041436	17458.902000	1968.135742	134.682251
2831.041436	17458.902000	1967.165039	131.074966
2831.041436	17458.902000	1966.195313	48.582458
2831.041436	17458.902000	1965.224609	-31.469515
2831.041436	17458.902000	1964.253906	-99.228935
2831.041436	17458.902000	1963.283203	57.041264
2831.041436	17458.902000	1962.312500	-45.264721
2831.041436	17458.902000	1961.341797	71.470879
2831.041436	17458.902000	1960.370117	-11.196730
2831.041436	17458.902000	1959.399414	-7.760868
2831.041436	17458.902000	1958.427734	71.892609
2831.041436	17458.902000	1957.455078	-13.294703
2831.041436	17458.902000	1956.483398	41.677021
2831.041436	17458.902000	1955.511719	17.928982
2831.041436	17458.902000	1954.539063	35.947910
2831.041436	17458.902000	1953.566406	-110.719208
2831.041436	17458.902000	1952.593750	76.807457
2831.041436	17458.902000	1951.621094	55.430603
2831.041436	17458.902000	1950.647461	-96.134857
2831.041436	17458.902000	1949.674805	-75.761772
2831.041436	17458.902000	1948.701172	116.453850
2831.041436	17458.902000	1947.727539	-0.720074
2831.041436	17458.902000	1946.753906	9.761927
2831.041436	17458.902000	1945.780273	74.213318
2831.041436	17458.902000	1944.805664	65.027771
2831.041436	17458.902000	1943.831055	-113.418564
2831.041436	17458.902000	1942.856445	80.975700
2831.041436	17458.902000	1941.881836	-4.243290
2831.041436	17458.902000	1940.907227	-18.338997
2831.041436	17458.902000	1939.932617	-115.772209
2831.041436	17458.902000	1938.957031	2.486606
2831.041436	17458.902000	1937.981445	12.889497
2831.041436	17458.902000	1937.005859	-96.751045
2831.041436	17458.902000	1936.030273	11.637677
2831.041436	17458.902000	1935.054688	-58.779400
2831.041436	17458.902000	1934.078125	-53.268875
2831.041436	17458.902000	1933.101563	25.679640
2831.041436	17458.902000	1932.125000	65.442368
2831.041436	17458.902000	1931.148438	-19.604511
2831.041436	17458.902000	1930.171875	61.751553
2831.041436	17458.902000	1929.194336	13.437115
2831.041436	17458.902000	1928.217773	28.734612
2831.041436	17458.902000	1927.240234	107.607315
2831.041436	17458.902000	1926.262695	51.995464
2831.041436	17458.902000	1925.284180	-76.918175
2831.041436	17458.902000	1924.306641	116.811211
2831.041436	17458.902000	1923.328125	36.816231
2831.041436	17458.902000	1922.350586	-126.199623
2831.041436	17458.902000	1921.372070	-25.359636
2831.041436	17458.902000	1920.392578	99.870140
2831.041436	17458.902000	1919.414063	-33.742012
2831.041436	17458.902000	1918.434570	74.372940
2831.041436	17458.902000	1917.456055	-12.794664
2831.041436	17458.902000	1916.476563	163.620071
2831.041436	17458.902000	1915.497070	37.450954
2831.041436	17458.902000	1914.516602	-8.166430
2831.041436	17458.902000	1913.537109	-48.879158
2831.041436	17458.902000	1912.556641	149.392960
2831.041436	17458.902000	1911.576172	84.304840
2831.041436	17458.902000	1910.595703	-9.999066
2831.041436	17458.902000	1909.615234	24.903004
2831.041436	17458.902000	1908.633789	8.632863
2831.041436	17458.902000	1907.653320	136.107590
2831.041436	17458.902000	1906.671875	-45.783585
2831.041436	17458.902000	1905.690430	37.837162
2831.041436	17458.902000	1904.708984	16.741571
2831.041436	17458.902000	1903.727539	12.701345
2831.041436	17458.902000	1902.745117	6.236141
2831.041436	17458.902000	1901.762695	-136.487762
2831.041436	17458.902000	1900.780273	29.829107
2831.041436	17458.902000	1899.797852	-76.345352
2831.041436	17458.902000	1898.815430	41.270710
2831.041436	17458.902000	1897.832031	0.797462
2831.041436	17458.902000	1896.849609	35.709171
2831.041436	17458.902000	1895.866211	82.765587
2831.041436	17458.902000	1894.882813	-18.432152
2831.041436	17458.902000	1893.898438	18.906475
2831.041436	17458.902000	1892.915039	53.805912
2831.041436	17458.902000	1891.930664	-1.171880
2831.041436	17458.902000	1890.947266	113.860283
2831.041436	17458.902000	1889.962891	-62.499035
2831.041436	17458.902000	1888.977539	-3.327543
2831.041436	17458.902000	1887.993164	80.093430
2831.041436	17458.902000	1887.007813	124.657822
2831.041436	17458.902000	1886.023438	-34.586143
2831.041436	17458.902000	1885.038086	-96.746017
2831.041436	17458.902000	1884.051758	90.909981
2831.041436	17458.902000	1883.066406	-17.323868
2831.041436	17458.902000	1882.081055	53.876492
2831.041436	17458.902000	1881.094727	-170.660522
2831.041436	17458.902000	1880.108398	-26.764679
2831.041436	17458.902000	1879.122070	-35.571445
2831.041436	17458.902000	1878.135742	-153.391571
2831.041436	17458.902000	1877.148438	24.311304
2831.041436	17458.902000	1876.162109	66.333397
2831.041436	17458.902000	1875.174805	62.330647
2831.041436	17458.902000	1874.187500	-26.401268
2831.041436	17458.902000	1873.199219	-73.967155
2831.041436	17458.902000	1872.211914	30.919453
2831.041436	17458.902000	1871.223633	26.887548
2831.041436	17458.902000	1870.236328	-37.624516
2831.041436	17458.902000	1869.248047	-27.155775
2831.041436	17458.902000	1868.258789	-74.734879
2831.041436	17458.902000	1867.270508	-20.775465
2831.041436	17458.902000	1866.282227	57.319221
2831.041436	17458.902000	1865.292969	9.706918
2831.041436	17458.902000	1864.303711	27.331297
2831.041436	17458.902000	1863.314453	-20.291357
2831.041436	17458.902000	1862.324219	-14.779735
2831.041436	17458.902000	1861.334961	92.131386
2831.041436	17458.902000	1860.344727	-13.476240
2831.041436	17458.902000	1859.354492	83.698051
2831.041436	17458.902000	1858.364258	81.865845
2831.041436	17458.902000	1857.374023	-81.654823
2831.041436	17458.902000	1856.383789	10.586399
2831.041436	17458.902000	1855.392578	-20.245167
2831.041436	17458.902000	1854.401367	9.200071
2831.041436	17458.902000	1853.410156	-36.136326
2831.041436	17458.902000	1852.418945	0.480657
2831.041436	17458.902000	1851.426758	63.568298
2831.041436	17458.902000	1850.435547	13.346395
2831.041436	17458.902000	1849.443359	93.216499
2831.041436	17458.902000	1848.451172	18.859898
2831.041436	17458.902000	1847.458984	4.710825
2831.041436	17458.902000	1846.466797	86.853920
2831.041436	17458.902000	1845.473633	43.742809
2831.041436	17458.902000	1844.480469	7.835753
2831.041436	17458.902000	1843.487305	8.007429
2831.041436	17458.902000	1842.494141	63.486034
2831.041436	17458.902000	1841.500977	-92.792709
2831.041436	17458.902000	1840.506836	8.310225
2831.041436	17458.902000	1839.513672	118.958694
2831.041436	17458.902000	1838.519531	116.522339
2831.041436	17458.902000	1837.525391	118.855659
2831.041436	17458.902000	1836.530273	-107.178322
2831.041436	17458.902000	1835.536133	169.055740
2831.041436	17458.902000	1834.541016	77.557114
2831.041436	17458.902000	1833.545898	48.504662
2831.041436	17458.902000	1832.550781	62.649586
2831.041436	17458.902000	1831.555664	28.722084
2831.041436	17458.902000	1830.560547	174.816620
2831.041436	17458.902000	1829.564453	42.378967
2831.041436	17458.902000	1828.568359	-56.457653
2831.041436	17458.902000	1827.572266	-59.329231
2831.041436	17458.902000	1826.576172	-83.837563
2831.041436	17458.902000	1825.580078	64.304230
2831.041436	17458.902000	1824.583008	-46.644810
2831.041436	17458.902000	1823.585938	27.009354
2831.041436	17458.902000	1822.588867	-52.829197
2831.041436	17458.902000	1821.591797	-3.269547
2831.041436	17458.902000	1820.594727	-35.251347
2831.041436	17458.902000	1819.596680	-96.024551
2831.041436	17458.902000	1818.599609	135.399414
2831.041436	17458.902000	1817.601563	81.694115
2831.041436	17458.902000	1816.603516	-43.877159
2831.041436	17458.902000	1815.604492	60.358799
2831.041436	17458.902000	1814.606445	207.584854
2831.041436	17458.902000	1813.607422	60.352608
2831.041436	17458.902000	1812.608398	61.459282
2831.041436	17458.902000	1811.609375	-11.648951
2831.041436	17458.902000	1810.610352	-44.129917
2831.041436	17458.902000	1809.610352	-88.616348
2831.041436	17458.902000	1808.611328	-25.558455
2831.041436	17458.902000	1807.611328	-74.933067
2831.041436	17458.902000	1806.611328	95.517860
2831.041436	17458.902000	1805.610352	86.633583
2831.041436	17458.902000	1804.610352	118.305687
2831.041436	17458.902000	1803.609375	102.129189
2831.041436	17458.902000	1802.608398	90.671974
2831.041436	17458.902000	1801.607422	-23.512260
2831.041436	17458.902000	1800.606445	177.386536
2831.041436	17458.902000	1799.605469	22.525589
2831.041436	17458.902000	1798.603516	-46.440781
2831.041436	17458.902000	1797.601563	-165.549316
2831.041436	17458.902000	1796.599609	-12.749178
2831.041436	17458.902000	1795.597656	-151.031555
2831.041436	17458.902000	1794.595703	-19.886614
2831.041436	17458.902000	1793.592773	-15.214995
2831.041436	17458.902000	1792.589844	146.700363
2831.041436	17458.902000	1791.587891	74.945923
2831.041436	17458.902000	1790.583984	77.003372
2831.041436	17458.902000	1789.581055	-6.765007
2831.041436	17458.902000	1788.577148	88.054863
2831.041436	17458.902000	1787.574219	-5.349638
2831.041436	17458.902000	1786.570313	94.053986
2831.041436	17458.902000	1785.566406	83.850517
2831.041436	17458.902000	1784.561523	40.255524
2831.041436	17458.902000	1783.557617	53.716740
2831.041436	17458.902000	1782.552734	98.023483
2831.041436	17458.902000	1781.547852	58.990353
2831.041436	17458.902000	1780.542969	-39.554314
2831.041436	17458.902000	1779.538086	-116.736267
2831.041436	17458.902000	1778.532227	-91.747017
2831.041436	17458.902000	1777.527344	-92.980698
2831.041436	17458.902000	1776.521484	22.146654
2831.041436	17458.902000	1775.515625	-26.779373
2831.041436	17458.902000	1774.508789	-54.388515
2831.041436	17458.902000	1773.502930	-179.430740
2831.041436	17458.902000	1772.496094	-86.050148
2831.041436	17458.902000	1771.489258	71.319176
2831.041436	17458.902000	1770.482422	-11.182302
2831.041436	17458.902000	1769.475586	8.317350
2831.041436	17458.902000	1768.467773	-109.889595
2831.041436	17458.902000	1767.460938	58.921944
2831.041436	17458.902000	1766.453125	-2.478847
2831.041436	17458.902000	1765.445313	73.605782
2831.041436	17458.902000	1764.437500	-96.990265
2831.041436	17458.902000	1763.428711	-23.446201
2831.041436	17458.902000	1762.420898	-16.361858
2831.041436	17458.902000	1761.412109	92.527885
2831.041436	17458.902000	1760.403320	-163.544144
2831.041436	17458.902000	1759.393555	42.287037
2831.041436	17458.902000	1758.384766	-12.534809
2831.041436	17458.902000	1757.375000	-12.960912
2831.041436	17458.902000	1756.366211	10.215015
2831.041436	17458.902000	1755.356445	120.872040
2831.041436	17458.902000	1754.345703	68.120834
2831.041436	17458.902000	1753.335938	15.318537
2831.041436	17458.902000	1752.325195	-80.126389
2831.041436	17458.902000	1751.315430	-54.988316
2831.041436	17458.902000	1750.304688	-29.944017
2831.041436	17458.902000	1749.292969	-0.265089
2831.041436	17458.902000	1748.282227	-20.305515
2831.041436	17458.902000	1747.270508	70.650116
2831.041436	17458.902000	1746.259766	109.519623
2831.041436	17458.902000	1745.248047	115.216873
2831.041436	17458.902000	1744.235352	40.523079
2831.041436	17458.902000	1743.223633	-74.356384
2831.041436	17458.902000	1742.211914	13.777616
2831.041436	17458.902000	1741.199219	33.337322
2831.041436	17458.902000	1740.186523	69.334587
2831.041436	17458.902000	1739.173828	67.486916
2831.041436	17458.902000	1738.160156	-2.860516
2831.041436	17458.902000	1737.147461	91.863335
2831.041436	17458.902000	1736.133789	26.102913
2831.041436	17458.902000	1735.120117	-68.001579
2831.041436	17458.902000	1734.106445	24.088711
2831.041436	17458.902000	1733.091797	137.273346
2831.041436	17458.902000	1732.078125	-63.066788
2831.041436	17458.902000	1731.063477	118.267487
2831.041436	17458.902000	1730.048828	68.609161
2831.041436	17458.902000	1729.034180	11.830629
2831.041436	17458.902000	1728.019531	58.606560
2831.041436	17458.902000	1727.003906	86.448967
2831.041436	17458.902000	1725.988281	-85.864998
2831.041436	17458.902000	1724.972656	-91.098640
2831.041436	17458.902000	1723.957031	-6.992284
2831.041436	17458.902000	1722.941406	-148.825317
2831.041436	17458.902000	1721.924805	55.059013
2831.041436	17458.902000	1720.909180	-28.085714
2831.041436	17458.902000	1719.892578	-38.394676
2831.041436	17458.902000	1718.875977	190.995743
2831.041436	17458.902000	1717.858398	-139.128021
2831.041436	17458.902000	1716.841797	73.605835
2831.041436	17458.902000	1715.824219	119.379524
2831.041436	17458.902000	1714.806641	21.786955
2831.041436	17458.902000	1713.789063	-26.520506
2831.041436	17458.902000	1712.770508	-107.758156
2831.041436	17458.902000	1711.752930	97.371773
2831.041436	17458.902000	1710.734375	-2.769369
2831.041436	17458.902000	1709.715820	-159.257751
2831.041436	17458.902000	1708.697266	-13.098673
2831.041436	17458.902000	1707.678711	25.036524
2831.041436	17458.902000	1706.659180	39.629513
2831.041436	17458.902000	1705.640625	115.126778
2831.041436	17458.902000	1704.621094	75.648293
2831.041436	17458.902000	1703.600586	-31.861685
2831.041436	17458.902000	1702.581055	97.304939
2831.041436	17458.902000	1701.561523	-40.742802
2831.041436	17458.902000	1700.541016	62.473553
2831.041436	17458.902000	1699.520508	36.773056
2831.041436	17458.902000	1698.500000	118.737877
2831.041436	17458.902000	1697.478516	195.918106
2831.041436	17458.902000	1696.458008	139.596786
2831.041436	17458.902000	1695.436523	55.144405
2831.041436	17458.902000	1694.415039	15.123021
2831.041436	17458.902000	1693.393555	59.277931
2831.041436	17458.902000	1692.372070	86.985786
2831.041436	17458.902000	1691.349609	95.908241
2831.041436	17458.902000	1690.327148	128.152023
2831.041436	17458.902000	1689.304688	281.883331
2831.041436	17458.902000	1688.282227	384.083862
2831.041436	17458.902000	1687.259766	289.908142
2831.041436	17458.902000	1686.236328	335.880371
2831.041436	17458.902000	1685.213867	328.068970
2831.041436	17458.902000	1684.190430	271.155975
2831.041436	17458.902000	1683.166016	274.910980
2831.041436	17458.902000	1682.142578	217.928604
2831.041436	17458.902000	1681.119141	277.619202
2831.041436	17458.902000	1680.094727	470.239777
2831.041436	17458.902000	1679.070313	455.090942
2831.041436	17458.902000	1678.045898	523.876648
2831.041436	17458.902000	1677.020508	711.520691
2831.041436	17458.902000	1675.996094	521.312439
2831.041436	17458.902000	1674.970703	533.945068
2831.041436	17458.902000	1673.945313	656.079285
2831.041436	17458.902000	1672.919922	533.429199
2831.041436	17458.902000	1671.893555	597.169556
2831.041436	17458.902000	1670.868164	579.321594
2831.041436	17458.902000	1669.841797	766.385681
2831.041436	17458.902000	1668.815430	541.171631
2831.041436	17458.902000	1667.789063	702.481079
2831.041436	17458.902000	1666.761719	602.973511
2831.041436	17458.902000	1665.735352	654.750000
2831.041436	17458.902000	1664.708008	606.404419
2831.041436	17458.902000	1663.680664	574.326416
2831.041436	17458.902000	1662.653320	551.528625
2831.041436	17458.902000	1661.625000	500.787384
2831.041436	17458.902000	1660.597656	526.769714
2831.041436	17458.902000	1659.569336	673.574524
2831.041436	17458.902000	1658.541016	485.617035
2831.041436	17458.902000	1657.512695	562.599792
2831.041436	17458.902000	1656.483398	562.844543
2831.041436	17458.902000	1655.455078	511.969696
2831.041436	17458.902000	1654.425781	581.835632
2831.041436	17458.902000	1653.396484	649.324585
2831.041436	17458.902000	1652.366211	721.391907
2831.041436	17458.902000	1651.336914	858.403870
2831.041436	17458.902000	1650.306641	763.273376
2831.041436	17458.902000	1649.276367	793.439392
2831.041436	17458.902000	1648.246094	686.712402
2831.041436	17458.902000	1647.215820	686.686523
2831.041436	17458.902000	1646.185547	726.057556
2831.041436	17458.902000	1645.154297	674.967834
2831.041436	17458.902000	1644.123047	816.258789
2831.041436	17458.902000	1643.091797	846.240906
2831.041436	17458.902000	1642.060547	813.636841
2831.041436	17458.902000	1641.028320	743.952576
2831.041436	17458.902000	1639.997070	753.036255
2831.041436	17458.902000	1638.964844	903.340454
2831.041436	17458.902000	1637.931641	1035.038940
2831.041436	17458.902000	1636.899414	1000.027771
2831.041436	17458.902000	1635.867188	946.503296
2831.041436	17458.902000	1634.833984	1223.849121
2831.041436	17458.902000	1633.800781	1172.581055
2831.041436	17458.902000	1632.767578	1209.214233
2831.041436	17458.902000	1631.734375	1352.196899
2831.041436	17458.902000	1630.700195	1409.560913
2831.041436	17458.902000	1629.666016	1372.121948
2831.041436	17458.902000	1628.631836	1378.602783
2831.041436	17458.902000	1627.597656	1331.931885
2831.041436	17458.902000	1626.563477	1507.053589
2831.041436	17458.902000	1625.528320	1739.837036
2831.041436	17458.902000	1624.493164	1480.645386
2831.041436	17458.902000	1623.458008	1681.016968
2831.041436	17458.902000	1622.422852	1558.132446
2831.041436	17458.902000	1621.387695	1765.335327
2831.041436	17458.902000	1620.351563	1434.798340
2831.041436	17458.902000	1619.315430	1540.425903
2831.041436	17458.902000	1618.279297	1802.866699
2831.041436	17458.902000	1617.243164	1818.450562
2831.041436	17458.902000	1616.207031	1776.391357
2831.041436	17458.902000	1615.169922	1662.879395
2831.041436	17458.902000	1614.132813	1772.987061
2831.041436	17458.902000	1613.095703	1811.624634
2831.041436	17458.902000	1612.058594	1889.423706
2831.041436	17458.902000	1611.020508	1981.012085
2831.041436	17458.902000	1609.983398	2125.557129
2831.041436	17458.902000	1608.945313	1933.871216
2831.041436	17458.902000	1607.907227	1887.306641
2831.041436	17458.902000	1606.868164	1831.556885
2831.041436	17458.902000	1605.830078	1764.349487
2831.041436	17458.902000	1604.791016	2113.614258
2831.041436	17458.902000	1603.751953	2032.597900
2831.041436	17458.902000	1602.712891	2105.722656
2831.041436	17458.902000	1601.673828	1994.884521
2831.041436	17458.902000	1600.633789	1854.210938
2831.041436	17458.902000	1599.594727	1600.996460
2831.041436	17458.902000	1598.554688	1906.327148
2831.041436	17458.902000	1597.513672	1919.749023
2831.041436	17458.902000	1596.473633	1887.257690
2831.041436	17458.902000	1595.433594	1914.519409
2831.041436	17458.902000	1594.392578	2031.339966
2831.041436	17458.902000	1593.351563	1927.740723
2831.041436	17458.902000	1592.310547	1975.705688
2831.041436	17458.902000	1591.268555	2108.583252
2831.041436	17458.902000	1590.227539	1828.438599
2831.041436	17458.902000	1589.185547	1894.824585
2831.041436	17458.902000	1588.143555	2043.786377
2831.041436	17458.902000	1587.100586	1984.033569
2831.041436	17458.902000	1586.058594	1979.373657
2831.041436	17458.902000	1585.015625	1915.139771
2831.041436	17458.902000	1583.972656	2116.816406
2831.041436	17458.902000	1582.929688	1988.494507
2831.041436	17458.902000	1581.886719	1931.277466
2831.041436	17458.902000	1580.843750	1981.772583
2831.041436	17458.902000	1579.799805	2046.016602
2831.041436	17458.902000	1578.755859	1835.526367
2831.041436	17458.902000	1577.711914	1856.360474
2831.041436	17458.902000	1576.666992	1877.217896
2831.041436	17458.902000	1575.623047	1918.713867
2831.041436	17458.902000	1574.578125	1681.117676
2831.041436	17458.902000	1573.533203	1786.757568
2831.041436	17458.902000	1572.488281	1668.286621
2831.041436	17458.902000	1571.443359	1700.813110
2831.041436	17458.902000	1570.397461	1587.060913
2831.041436	17458.902000	1569.351563	1672.241333
2831.041436	17458.902000	1568.305664	1535.785278
2831.041436	17458.902000	1567.259766	1495.385620
2831.041436	17458.902000	1566.213867	1464.189941
2831.041436	17458.902000	1565.166992	1499.275513
2831.041436	17458.902000	1564.120117	1545.815796
2831.041436	17458.902000	1563.073242	1533.036987
2831.041436	17458.902000	1562.026367	1506.622681
2831.041436	17458.902000	1560.978516	1546.439453
2831.041436	17458.902000	1559.930664	1506.443726
2831.041436	17458.902000	1558.883789	1480.216431
2831.041436	17458.902000	1557.834961	1442.633911
2831.041436	17458.902000	1556.787109	1316.208008
2831.041436	17458.902000	1555.739258	1468.013794
2831.041436	17458.902000	1554.690430	1606.134888
2831.041436	17458.902000	1553.641602	1450.295776
2831.041436	17458.902000	1552.592773	1485.961182
2831.041436	17458.902000	1551.542969	1400.935669
2831.041436	17458.902000	1550.494141	1398.004761
2831.041436	17458.902000	1549.444336	1515.810547
2831.041436	17458.902000	1548.394531	1408.254517
2831.041436	17458.902000	1547.344727	1471.514404
2831.041436	17458.902000	1546.293945	1329.996826
2831.041436	17458.902000	1545.244141	1277.343750
2831.041436	17458.902000	1544.193359	1217.944946
2831.041436	17458.902000	1543.142578	1126.797485
2831.041436	17458.902000	1542.090820	1047.115967
2831.041436	17458.902000	1541.040039	1024.379761
2831.041436	17458.902000	1539.988281	965.345337
2831.041436	17458.902000	1538.936523	951.857178
2831.041436	17458.902000	1537.884766	1029.328979
2831.041436	17458.902000	1536.833008	820.616943
2831.041436	17458.902000	1535.780273	964.086243
2831.041436	17458.902000	1534.727539	914.559631
2831.041436	17458.902000	1533.674805	1024.047607
2831.041436	17458.902000	1532.622070	724.995850
2831.041436	17458.902000	1531.569336	684.849548
2831.041436	17458.902000	1530.515625	601.677307
2831.041436	17458.902000	1529.461914	679.679382
2831.041436	17458.902000	1528.408203	669.274353
2831.041436	17458.902000	1527.354492	613.599487
2831.041436	17458.902000	1526.299805	537.614441
2831.041436	17458.902000	1525.246094	572.814941
2831.041436	17458.902000	1524.191406	578.613708
2831.041436	17458.902000	1523.136719	656.996643
2831.041436	17458.902000	1522.081055	592.705872
2831.041436	17458.902000	1521.026367	501.351776
2831.041436	17458.902000	1519.970703	713.546814
2831.041436	17458.902000	1518.915039	611.044250
2831.041436	17458.902000	1517.859375	540.355286
2831.041436	17458.902000	1516.802734	551.244812
2831.041436	17458.902000	1515.747070	467.190521
2831.041436	17458.902000	1514.690430	276.923920
2831.041436	17458.902000	1513.633789	493.938934
2831.041436	17458.902000	1512.577148	423.766266
2831.041436	17458.902000	1511.519531	290.396851
2831.041436	17458.902000	1510.461914	324.441467
2831.041436	17458.902000	1509.405273	286.247925
2831.041436	17458.902000	1508.346680	397.275635
2831.041436	17458.902000	1507.289063	293.741852
2831.041436	17458.902000	1506.231445	226.477432
2831.041436	17458.902000	1505.172852	62.221714
2831.041436	17458.902000	1504.114258	191.629913
2831.041436	17458.902000	1503.055664	194.669220
2831.041436	17458.902000	1501.996094	39.813644
2831.041436	17458.902000	1500.937500	49.836193
2831.041436	17458.902000	1499.877930	253.955032
2831.041436	17458.902000	1498.818359	205.468430
2831.041436	17458.902000	1497.757813	55.611435
2831.041436	17458.902000	1496.698242	86.283295
2831.041436	17458.902000	1495.637695	112.525101
2831.041436	17458.902000	1494.577148	21.657200
2831.041436	17458.902000	1493.516602	90.903557
2831.041436	17458.902000	1492.456055	31.807459
2831.041436	17458.902000	1491.394531	-103.753937
2831.041436	17458.902000	1490.333008	-176.111084
2831.041436	17458.902000	1489.271484	-45.708023
2831.041436	17458.902000	1488.209961	-185.384293
2831.041436	17458.902000	1487.148438	84.700203
2831.041436	17458.902000	1486.085938	1.499231
2831.041436	17458.902000	1485.023438	84.906441
2831.041436	17458.902000	1483.960938	145.887909
2831.041436	17458.902000	1482.898438	445.314972
2831.041436	17458.902000	1481.834961	288.305756
2831.041436	17458.902000	1480.772461	297.804504
2831.041436	17458.902000	1479.708984	323.123444
2831.041436	17458.902000	1478.644531	328.303192
2831.041436	17458.902000	1477.581055	576.205261
2831.041436	17458.902000	1476.517578	397.380585
2831.041436	17458.902000	1475.453125	441.049377
2831.041436	17458.902000	1474.388672	403.926514
2831.041436	17458.902000	1473.323242	405.147461
2831.041436	17458.902000	1472.258789	527.481018
2831.041436	17458.902000	1471.193359	649.957642
2831.041436	17458.902000	1470.127930	658.164978
2831.041436	17458.902000	1469.062500	585.684143
2831.041436	17458.902000	1467.997070	827.067017
2831.041436	17458.902000	1466.930664	812.906677
2831.041436	17458.902000	1465.865234	570.711731
2831.041436	17458.902000	1464.798828	715.889954
2831.041436	17458.902000	1463.731445	903.445618
2831.041436	17458.902000	1462.665039	684.296021
2831.041436	17458.902000	1461.597656	621.566162
2831.041436	17458.902000	1460.530273	670.814331
2831.041436	17458.902000	1459.462891	505.659729
2831.041436	17458.902000	1458.395508	619.440247
2831.041436	17458.902000	1457.327148	456.932251
2831.041436	17458.902000	1456.259766	658.348877
2831.041436	17458.902000	1455.191406	589.965515
2831.041436	17458.902000	1454.123047	405.167999
2831.041436	17458.902000	1453.053711	283.579712
2831.041436	17458.902000	1451.985352	413.582825
2831.041436	17458.902000	1450.916016	312.365631
2831.041436	17458.902000	1449.846680	378.213898
2831.041436	17458.902000	1448.776367	436.982880
2831.041436	17458.902000	1447.707031	524.420044
2831.041436	17458.902000	1446.636719	393.191101
2831.041436	17458.902000	1445.566406	562.255127
2831.041436	17458.902000	1444.496094	531.304504
2831.041436	17458.902000	1443.425781	393.718964
2831.041436	17458.902000	1442.354492	443.071106
2831.041436	17458.902000	1441.283203	577.911438
2831.041436	17458.902000	1440.211914	474.721313
2831.041436	17458.902000	1439.140625	361.141205
2831.041436	17458.902000	1438.069336	377.646637
2831.041436	17458.902000	1436.997070	438.228516
2831.041436	17458.902000	1435.924805	513.468079
2831.041436	17458.902000	1434.852539	353.690430
2831.041436	17458.902000	1433.780273	291.515503
2831.041436	17458.902000	1432.707031	223.525406
2831.041436	17458.902000	1431.633789	16.920139
2831.041436	17458.902000	1430.560547	219.340118
2831.041436	17458.902000	1429.487305	60.401386
2831.041436	17458.902000	1428.413086	379.040924
2831.041436	17458.902000	1427.339844	-170.323761
2831.041436	17458.902000	1426.265625	-90.369179
2831.041436	17458.902000	1425.191406	48.520973
2831.041436	17458.902000	1424.116211	43.565281
2831.041436	17458.902000	1423.041992	92.841606
2831.041436	17458.902000	1421.966797	-96.579758
2831.041436	17458.902000	1420.891602	-37.527256
2831.041436	17458.902000	1419.816406	-121.689613
2831.041436	17458.902000	1418.740234	5.586748
2831.041436	17458.902000	1417.665039	-38.912300
2831.041436	17458.902000	1416.588867	58.338531
2831.041436	17458.902000	1415.512695	-61.617634
2831.041436	17458.902000	1414.435547	-165.028244
2831.041436	17458.902000	1413.359375	-101.463654
2831.041436	17458.902000	1412.282227	191.506409
2831.041436	17458.902000	1411.205078	231.753784
2831.041436	17458.902000	1410.127930	75.922668
2831.041436	17458.902000	1409.049805	275.469177
2831.041436	17458.902000	1407.972656	329.329773
2831.041436	17458.902000	1406.894531	325.731537
2831.041436	17458.902000	1405.816406	443.770386
2831.041436	17458.902000	1404.737305	241.924301
2831.041436	17458.902000	1403.659180	187.751038
2831.041436	17458.902000	1402.580078	336.850433
2831.041436	17458.902000	1401.500977	119.097313
2831.041436	17458.902000	1400.421875	158.805771
2831.041436	17458.902000	1399.341797	200.150421
2831.041436	17458.902000	1398.262695	169.449829
2831.041436	17458.902000	1397.182617	-71.939430
2831.041436	17458.902000	1396.102539	300.960510
2831.041436	17458.902000	1395.021484	114.227913
2831.041436	17458.902000	1393.941406	260.171844
2831.041436	17458.902000	1392.860352	-26.307499
2831.041436	17458.902000	1391.779297	-78.548050
2831.041436	17458.902000	1390.698242	130.784698
2831.041436	17458.902000	1389.616211	119.700058
2831.041436	17458.902000	1388.535156	177.057983
2831.041436	17458.902000	1387.453125	43.514347
2831.041436	17458.902000	1386.371094	-37.454777
2831.041436	17458.902000	1385.288086	109.579193
2831.041436	17458.902000	1384.206055	181.849503
2831.041436	17458.902000	1383.123047	374.441406
2831.041436	17458.902000	1382.040039	353.877502
2831.041436	17458.902000	1380.957031	378.665070
2831.041436	17458.902000	1379.873047	242.100235
2831.041436	17458.902000	1378.789063	306.839111
2831.041436	17458.902000	1377.705078	421.803070
2831.041436	17458.902000	1376.621094	360.798187
2831.041436	17458.902000	1375.537109	495.853210
2831.041436	17458.902000	1374.452148	396.252960
2831.041436	17458.902000	1373.367188	352.069092
2831.041436	17458.902000	1372.282227	295.079376
2831.041436	17458.902000	1371.197266	300.168030
2831.041436	17458.902000	1370.112305	448.414520
2831.041436	17458.902000	1369.026367	587.658752
2831.041436	17458.902000	1367.940430	295.349854
2831.041436	17458.902000	1366.854492	460.633728
2831.041436	17458.902000	1365.767578	400.579956
2831.041436	17458.902000	1364.681641	627.181519
2831.041436	17458.902000	1363.594727	541.707031
2831.041436	17458.902000	1362.507813	465.409058
2831.041436	17458.902000	1361.419922	655.168884
2831.041436	17458.902000	1360.333008	726.367554
2831.041436	17458.902000	1359.245117	699.746033
2831.041436	17458.902000	1358.157227	529.791809
2831.041436	17458.902000	1357.069336	588.154602
2831.041436	17458.902000	1355.981445	578.667786
2831.041436	17458.902000	1354.892578	469.826416
2831.041436	17458.902000	1353.803711	444.242706
2831.041436	17458.902000	1352.714844	492.474579
2831.041436	17458.902000	1351.625000	615.410828
2831.041436	17458.902000	1350.536133	489.354004
2831.041436	17458.902000	1349.446289	669.032593
2831.041436	17458.902000	1348.356445	540.694153
2831.041436	17458.902000	1347.266602	424.804840
2831.041436	17458.902000	1346.175781	705.561340
2831.041436	17458.902000	1345.085938	600.864197
2831.041436	17458.902000	1343.995117	717.692505
2831.041436	17458.902000	1342.903320	640.349426
2831.041436	17458.902000	1341.812500	798.177551
2831.041436	17458.902000	1340.720703	793.411194
2831.041436	17458.902000	1339.629883	637.696289
2831.041436	17458.902000	1338.538086	724.481323
2831.041436	17458.902000	1337.445313	879.944519
2831.041436	17458.902000	1336.353516	652.379822
2831.041436	17458.902000	1335.260742	762.184326
2831.041436	17458.902000	1334.167969	825.161377
2831.041436	17458.902000	1333.075195	732.842529
2831.041436	17458.902000	1331.981445	908.672241
2831.041436	17458.902000	1330.888672	660.263245
2831.041436	17458.902000	1329.794922	851.199768
2831.041436	17458.902000	1328.701172	848.745728
2831.041436	17458.902000	1327.606445	890.231628
2831.041436	17458.902000	1326.512695	943.625244
2831.041436	17458.902000	1325.417969	1121.973022
2831.041436	17458.902000	1324.323242	1015.692078
2831.041436	17458.902000	1323.227539	1125.005615
2831.041436	17458.902000	1322.132813	1000.335083
2831.041436	17458.902000	1321.037109	848.039856
2831.041436	17458.902000	1319.941406	930.167725
2831.041436	17458.902000	1318.845703	1009.617249
2831.041436	17458.902000	1317.750000	814.053772
2831.041436	17458.902000	1316.653320	798.779907
2831.041436	17458.902000	1315.556641	709.945618
2831.041436	17458.902000	1314.459961	520.743591
2831.041436	17458.902000	1313.363281	648.690552
2831.041436	17458.902000	1312.265625	629.684143
2831.041436	17458.902000	1311.167969	513.640686
2831.041436	17458.902000	1310.070313	445.303680
2831.041436	17458.902000	1308.972656	532.886169
2831.041436	17458.902000	1307.874023	557.585571
2831.041436	17458.902000	1306.776367	539.520386
2831.041436	17458.902000	1305.677734	483.110657
2831.041436	17458.902000	1304.579102	543.262939
2831.041436	17458.902000	1303.479492	446.757874
2831.041436	17458.902000	1302.380859	470.125549
2831.041436	17458.902000	1301.281250	494.152710
2831.041436	17458.902000	1300.181641	442.821808
2831.041436	17458.902000	1299.081055	432.945862
2831.041436	17458.902000	1297.981445	362.688507
2831.041436	17458.902000	1296.880859	307.967102
2831.041436	17458.902000	1295.780273	337.489075
2831.041436	17458.902000	1294.679688	298.094910
2831.041436	17458.902000	1293.578125	228.196426
2831.041436	17458.902000	1292.476563	90.647415
2831.041436	17458.902000	1291.375000	247.961716
2831.041436	17458.902000	1290.273438	165.548691
2831.041436	17458.902000	1289.171875	155.401718
2831.041436	17458.902000	1288.069336	205.738892
2831.041436	17458.902000	1286.966797	124.398201
2831.041436	17458.902000	1285.864258	108.209419
2831.041436	17458.902000	1284.761719	266.815308
2831.041436	17458.902000	1283.658203	197.567917
2831.041436	17458.902000	1282.554688	98.391502
2831.041436	17458.902000	1281.451172	86.236938
2831.041436	17458.902000	1280.347656	-49.810123
2831.041436	17458.902000	1279.244141	190.870605
2831.041436	17458.902000	1278.139648	181.512161
2831.041436	17458.902000	1277.035156	83.074806
2831.041436	17458.902000	1275.930664	-4.426613
2831.041436	17458.902000	1274.825195	129.063248
2831.041436	17458.902000	1273.720703	46.635483
2831.041436	17458.902000	1272.615234	66.100784
2831.041436	17458.902000	1271.508789	123.545357
2831.041436	17458.902000	1270.403320	143.685654
2831.041436	17458.902000	1269.297852	204.968658
2831.041436	17458.902000	1268.191406	150.405396
2831.041436	17458.902000	1267.084961	134.161057
2831.041436	17458.902000	1265.977539	177.723267
2831.041436	17458.902000	1264.871094	194.133514
2831.041436	17458.902000	1263.763672	260.116852
2831.041436	17458.902000	1262.656250	148.416046
2831.041436	17458.902000	1261.548828	168.457565
2831.041436	17458.902000	1260.440430	261.820435
2831.041436	17458.902000	1259.333008	60.643635
2831.041436	17458.902000	1258.224609	35.687553
2831.041436	17458.902000	1257.115234	69.543251
2831.041436	17458.902000	1256.006836	53.745178
2831.041436	17458.902000	1254.897461	48.955132
2831.041436	17458.902000	1253.788086	43.109146
2831.041436	17458.902000	1252.678711	84.295822
2831.041436	17458.902000	1251.569336	93.283455
2831.041436	17458.902000	1250.458984	241.660416
2831.041436	17458.902000	1249.349609	192.778961
2831.041436	17458.902000	1248.239258	64.406929
2831.041436	17458.902000	1247.127930	127.080238
2831.041436	17458.902000	1246.017578	216.995316
2831.041436	17458.902000	1244.906250	250.869797
2831.041436	17458.902000	1243.794922	222.810532
2831.041436	17458.902000	1242.683594	150.538986
2831.041436	17458.902000	1241.571289	122.048378
2831.041436	17458.902000	1240.459961	150.848114
2831.041436	17458.902000	1239.347656	322.026947
2831.041436	17458.902000	1238.234375	110.619286
2831.041436	17458.902000	1237.122070	218.601379
2831.041436	17458.902000	1236.008789	112.966270
2831.041436	17458.902000	1234.896484	182.051514
2831.041436	17458.902000	1233.782227	142.806000
2831.041436	17458.902000	1232.668945	155.133438
2831.041436	17458.902000	1231.555664	62.189178
2831.041436	17458.902000	1230.441406	91.819954
2831.041436	17458.902000	1229.327148	166.841202
2831.041436	17458.902000	1228.211914	92.756874
2831.041436	17458.902000	1227.097656	15.424652
2831.041436	17458.902000	1225.982422	25.276003
2831.041436	17458.902000	1224.867188	31.088793
2831.041436	17458.902000	1223.751953	164.574738
2831.041436	17458.902000	1222.635742	89.155289
2831.041436	17458.902000	1221.520508	185.520218
2831.041436	17458.902000	1220.404297	153.868500
2831.041436	17458.902000	1219.287109	118.748802
2831.041436	17458.902000	1218.170898	160.022827
2831.041436	17458.902000	1217.053711	45.468628
2831.041436	17458.902000	1215.936523	40.914467
2831.041436	17458.902000	1214.819336	94.511551
2831.041436	17458.902000	1213.702148	182.984818
2831.041436	17458.902000	1212.583984	88.286400
2831.041436	17458.902000	1211.465820	105.271461
2831.041436	17458.902000	1210.347656	8.974541
2831.041436	17458.902000	1209.229492	111.644035
2831.041436	17458.902000	1208.110352	-6.862221
2831.041436	17458.902000	1206.992188	-35.461472
2831.041436	17458.902000	1205.873047	-81.298271
2831.041436	17458.902000	1204.752930	-141.865479
2831.041436	17458.902000	1203.633789	-88.940071
2831.041436	17458.902000	1202.513672	-91.454300
2831.041436	17458.902000	1201.393555	29.126394
2831.041436	17458.902000	1200.273438	66.711578
2831.041436	17458.902000	1199.152344	5.151170
2831.041436	17458.902000	1198.032227	19.295834
2831.041436	17458.902000	1196.911133	7.587166
2831.041436	17458.902000	1195.790039	61.660442
2831.041436	17458.902000	1194.667969	13.960718
2831.041436	17458.902000	1193.545898	34.690701
2831.041436	17458.902000	1192.424805	86.333466
2831.041436	17458.902000	1191.301758	66.390709
2831.041436	17458.902000	1190.179688	137.229767
2831.041436	17458.902000	1189.056641	76.218224
2831.041436	17458.902000	1187.933594	1.860198
2831.041436	17458.902000	1186.810547	-2.724719
2831.041436	17458.902000	1185.687500	-44.080990
2831.041436	17458.902000	1184.563477	18.686943
2831.041436	17458.902000	1183.440430	-68.483131
2831.041436	17458.902000	1182.316406	-35.585239
2831.041436	17458.902000	1181.191406	-34.378754
2831.041436	17458.902000	1180.067383	-32.871994
2831.041436	17458.902000	1178.942383	44.419380
2831.041436	17458.902000	1177.817383	72.416275
2831.041436	17458.902000	1176.692383	27.942921
2831.041436	17458.902000	1175.566406	6.281416
2831.041436	17458.902000	1174.440430	-29.682383
2831.041436	17458.902000	1173.314453	109.793747
2831.041436	17458.902000	1172.188477	-1.479136
2831.041436	17458.902000	1171.062500	58.472168
2831.041436	17458.902000	1169.935547	-46.194897
2831.041436	17458.902000	1168.808594	-42.747604
2831.041436	17458.902000	1167.681641	94.738907
2831.041436	17458.902000	1166.553711	-1.905137
2831.041436	17458.902000	1165.426758	45.956371
2831.041436	17458.902000	1164.298828	145.847565
2831.041436	17458.902000	1163.170898	79.491577
2831.041436	17458.902000	1162.041992	19.422140
2831.041436	17458.902000	1160.914063	129.250275
2831.041436	17458.902000	1159.785156	172.795746
2831.041436	17458.902000	1158.656250	276.182770
2831.041436	17458.902000	1157.526367	79.433670
2831.041436	17458.902000	1156.397461	18.410294
2831.041436	17458.902000	1155.267578	32.105000
2831.041436	17458.902000	1154.137695	-4.158154
2831.041436	17458.902000	1153.006836	-21.343731
2831.041436	17458.902000	1151.876953	-55.694580
2831.041436	17458.902000	1150.746094	-47.349472
2831.041436	17458.902000	1149.615234	-159.592072
2831.041436	17458.902000	1148.484375	-120.032593
2831.041436	17458.902000	1147.352539	79.815437
2831.041436	17458.902000	1146.220703	-15.432614
2831.041436	17458.902000	1145.088867	-114.442574
2831.041436	17458.902000	1143.957031	-103.792877
2831.041436	17458.902000	1142.825195	-29.897385
2831.041436	17458.902000	1141.692383	60.381546
2831.041436	17458.902000	1140.559570	-76.010391
2831.041436	17458.902000	1139.426758	-105.723389
2831.041436	17458.902000	1138.292969	-30.060808
2831.041436	17458.902000	1137.159180	-65.484055
2831.041436	17458.902000	1136.025391	-68.677956
2831.041436	17458.902000	1134.891602	80.145813
2831.041436	17458.902000	1133.757813	-54.109180
2831.041436	17458.902000	1132.623047	-83.305580
2831.041436	17458.902000	1131.488281	2.220462
2831.041436	17458.902000	1130.353516	-36.428745
2831.041436	17458.902000	1129.217773	-6.397685
2831.041436	17458.902000	1128.083008	-125.109016
2831.041436	17458.902000	1126.947266	-98.110802
2831.041436	17458.902000	1125.811523	17.389460
2831.041436	17458.902000	1124.674805	-33.453541
2831.041436	17458.902000	1123.539063	-138.994232
2831.041436	17458.902000	1122.402344	-12.246313
2831.041436	17458.902000	1121.265625	73.423241
2831.041436	17458.902000	1120.127930	-57.173813
2831.041436	17458.902000	1118.990234	-92.816444
2831.041436	17458.902000	1117.853516	-139.472900
2831.041436	17458.902000	1116.714844	-85.676079
2831.041436	17458.902000	1115.577148	-133.618973
2831.041436	17458.902000	1114.439453	-209.835068
2831.041436	17458.902000	1113.300781	-242.353683
2831.041436	17458.902000	1112.162109	-86.464218
2831.041436	17458.902000	1111.022461	-26.196535
2831.041436	17458.902000	1109.883789	-148.468857
2831.041436	17458.902000	1108.744141	-119.976051
2831.041436	17458.902000	1107.604492	-48.278828
2831.041436	17458.902000	1106.463867	-206.969208
2831.041436	17458.902000	1105.324219	-111.710136
2831.041436	17458.902000	1104.183594	41.779720
2831.041436	17458.902000	1103.042969	-2.788638
2831.041436	17458.902000	1101.902344	8.969975
2831.041436	17458.902000	1100.760742	-64.152878
2831.041436	17458.902000	1099.619141	-18.775629
2831.041436	17458.902000	1098.477539	32.793556
2831.041436	17458.902000	1097.335938	25.241159
2831.041436	17458.902000	1096.193359	25.521675
2831.041436	17458.902000	1095.051758	37.277714
2831.041436	17458.902000	1093.909180	81.953423
2831.041436	17458.902000	1092.765625	21.545717
2831.041436	17458.902000	1091.623047	44.598866
2831.041436	17458.902000	1090.479492	216.015747
2831.041436	17458.902000	1089.335938	125.330727
2831.041436	17458.902000	1088.192383	224.683456
2831.041436	17458.902000	1087.047852	288.532990
2831.041436	17458.902000	1085.903320	229.113586
2831.041436	17458.902000	1084.758789	302.678650
2831.041436	17458.902000	1083.614258	299.416168
2831.041436	17458.902000	1082.469727	121.242264
2831.041436	17458.902000	1081.324219	224.830093
2831.041436	17458.902000	1080.178711	178.540619
2831.041436	17458.902000	1079.033203	262.847534
2831.041436	17458.902000	1077.886719	204.976135
2831.041436	17458.902000	1076.740234	106.567375
2831.041436	17458.902000	1075.593750	-44.364555
2831.041436	17458.902000	1074.447266	-26.499271
2831.041436	17458.902000	1073.300781	-2.277612
2831.041436	17458.902000	1072.153320	94.202309
2831.041436	17458.902000	1071.005859	83.174911
2831.041436	17458.902000	1069.858398	8.554342
2831.041436	17458.902000	1068.709961	60.314640
2831.041436	17458.902000	1067.561523	44.542908
2831.041436	17458.902000	1066.413086	-43.132813
2831.041436	17458.902000	1065.264648	29.374989
2831.041436	17458.902000	1064.116211	-35.477516
2831.041436	17458.902000	1062.966797	-20.707706
2831.041436	17458.902000	1061.817383	83.047173
2831.041436	17458.902000	1060.667969	133.799942
2831.041436	17458.902000	1059.517578	140.780182
2831.041436	17458.902000	1058.368164	62.241020
2831.041436	17458.902000	1057.217773	229.846512
2831.041436	17458.902000	1056.067383	121.599808
2831.041436	17458.902000	1054.916016	165.855316
2831.041436	17458.902000	1053.764648	79.492714
2831.041436	17458.902000	1052.613281	154.946762
2831.041436	17458.902000	1051.461914	16.212257
2831.041436	17458.902000	1050.310547	0.887022
2831.041436	17458.902000	1049.158203	-50.822186
2831.041436	17458.902000	1048.005859	24.586163
2831.041436	17458.902000	1046.853516	-17.080618
2831.041436	17458.902000	1045.700195	66.654129
2831.041436	17458.902000	1044.547852	93.928940
2831.041436	17458.902000	1043.394531	118.621208
2831.041436	17458.902000	1042.240234	-23.402761
2831.041436	17458.902000	1041.086914	-19.848911
2831.041436	17458.902000	1039.932617	29.719986
2831.041436	17458.902000	1038.778320	124.480156
2831.041436	17458.902000	1037.624023	8.378100
2831.041436	17458.902000	1036.469727	106.298813
2831.041436	17458.902000	1035.314453	268.431030
2831.041436	17458.902000	1034.159180	205.806580
2831.041436	17458.902000	1033.003906	283.621552
2831.041436	17458.902000	1031.847656	294.002014
2831.041436	17458.902000	1030.692383	277.495300
2831.041436	17458.902000	1029.536133	298.189240
2831.041436	17458.902000	1028.378906	278.446808
2831.041436	17458.902000	1027.222656	225.810135
2831.041436	17458.902000	1026.065430	334.706268
2831.041436	17458.902000	1024.908203	205.123947
2831.041436	17458.902000	1023.750977	186.692352
2831.041436	17458.902000	1022.593750	50.958633
2831.041436	17458.902000	1021.435547	164.283432
2831.041436	17458.902000	1020.277344	174.052643
2831.041436	17458.902000	1019.119141	166.551727
2831.041436	17458.902000	1017.959961	36.617775
2831.041436	17458.902000	1016.800781	-14.569232
2831.041436	17458.902000	1015.641602	54.343048
2831.041436	17458.902000	1014.482422	59.960373
2831.041436	17458.902000	1013.323242	75.793777
2831.041436	17458.902000	1012.163086	48.301270
2831.041436	17458.902000	1011.002930	21.029751
2831.041436	17458.902000	1009.842773	43.568871
2831.041436	17458.902000	1008.681641	24.315022
2831.041436	17458.902000	1007.520508	80.249786
2831.041436	17458.902000	1006.359375	30.375423
2831.041436	17458.902000	1005.198242	210.339218
2831.041436	17458.902000	1004.037109	58.789909
2831.041436	17458.902000	1002.875000	209.514359
2831.041436	17458.902000	1001.712891	236.329285
2831.041436	17458.902000	1000.550781	252.270172
2831.041436	17458.902000	999.387695	263.937225
2831.041436	17458.902000	998.224609	166.592651
2831.041436	17458.902000	997.061523	324.385651
2831.041436	17458.902000	995.898438	246.199875
2831.041436	17458.902000	994.734375	172.309235
2831.041436	17458.902000	993.571289	317.743011
2831.041436	17458.902000	992.407227	193.089706
2831.041436	17458.902000	991.242188	300.029236
2831.041436	17458.902000	990.078125	366.167236
2831.041436	17458.902000	988.913086	368.801544
2831.041436	17458.902000	987.748047	333.928436
2831.041436	17458.902000	986.583008	309.128906
2831.041436	17458.902000	985.416992	290.983673
2831.041436	17458.902000	984.250977	310.959991
2831.041436	17458.902000	983.084961	280.991730
2831.041436	17458.902000	981.918945	209.980621
2831.041436	17458.902000	980.751953	151.065445
2831.041436	17458.902000	979.584961	193.174942
2831.041436	17458.902000	978.417969	264.544800
2831.041436	17458.902000	977.250977	224.733932
2831.041436	17458.902000	976.083008	343.214539
2831.041436	17458.902000	974.915039	194.863708
2831.041436	17458.902000	973.747070	201.341431
2831.041436	17458.902000	972.579102	357.248657
2831.041436	17458.902000	971.410156	121.698540
2831.041436	17458.902000	970.242188	124.888115
2831.041436	17458.902000	969.072266	35.343136
2831.041436	17458.902000	967.903320	132.529739
2831.041436	17458.902000	966.733398	51.987286
2831.041436	17458.902000	965.563477	98.083305
2831.041436	17458.902000	964.393555	76.459259
2831.041436	17458.902000	963.223633	219.018326
2831.041436	17458.902000	962.052734	98.139587
2831.041436	17458.902000	960.881836	85.522720
2831.041436	17458.902000	959.710938	178.383392
2831.041436	17458.902000	958.540039	302.637970
2831.041436	17458.902000	957.368164	226.228424
2831.041436	17458.902000	956.196289	254.102570
2831.041436	17458.902000	955.024414	136.195328
2831.041436	17458.902000	953.851563	156.437820
2831.041436	17458.902000	952.679688	95.622597
2831.041436	17458.902000	951.506836	55.162827
2831.041436	17458.902000	950.333984	227.000610
2831.041436	17458.902000	949.160156	211.212006
2831.041436	17458.902000	947.986328	279.248901
2831.041436	17458.902000	946.812500	195.504745
2831.041436	17458.902000	945.638672	134.544266
2831.041436	17458.902000	944.464844	156.325348
2831.041436	17458.902000	943.290039	112.565536
2831.041436	17458.902000	942.115234	182.858429
2831.041436	17458.902000	940.940430	215.094498
2831.041436	17458.902000	939.764648	113.994644
2831.041436	17458.902000	938.588867	146.150589
2831.041436	17458.902000	937.413086	220.656876
2831.041436	17458.902000	936.237305	157.703766
2831.041436	17458.902000	935.060547	204.534058
2831.041436	17458.902000	933.883789	219.605759
2831.041436	17458.902000	932.707031	146.048065
2831.041436	17458.902000	931.530273	148.466782
2831.041436	17458.902000	930.352539	203.683685
2831.041436	17458.902000	929.175781	165.923767
2831.041436	17458.902000	927.998047	140.870346
2831.041436	17458.902000	926.819336	-2.533460
2831.041436	17458.902000	925.641602	-27.640717
2831.041436	17458.902000	924.462891	54.943214
2831.041436	17458.902000	923.284180	-1.865021
2831.041436	17458.902000	922.104492	112.298721
2831.041436	17458.902000	920.924805	141.987839
2831.041436	17458.902000	919.746094	143.243088
2831.041436	17458.902000	919.551758	131.763351
2831.041436	17458.902000	918.386719	110.755211
2831.041436	17458.902000	917.220703	203.627838
2831.041436	17458.902000	916.054688	134.078705
2831.041436	17458.902000	914.887695	159.410812
2831.041436	17458.902000	913.721680	188.928619
2831.041436	17458.902000	912.554688	94.084480
2831.041436	17458.902000	911.387695	49.827423
2831.041436	17458.902000	910.220703	5.570766
2831.041436	17458.902000	909.052734	129.801987
2831.041436	17458.902000	907.885742	161.316895
2831.041436	17458.902000	906.717773	112.805496
2831.041436	17458.902000	905.548828	64.298752
2831.041436	17458.902000	904.380859	70.507568
2831.041436	17458.902000	903.211914	-70.575874
2831.041436	17458.902000	902.042969	13.456976
2831.041436	17458.902000	900.874023	40.657608
2831.041436	17458.902000	899.704102	158.245789
2831.041436	17458.902000	898.535156	-18.538637
2831.041436	17458.902000	897.365234	46.439404
2831.041436	17458.902000	896.194336	63.046307
2831.041436	17458.902000	895.024414	-23.313482
2831.041436	17458.902000	893.853516	96.196701
2831.041436	17458.902000	892.682617	53.939098
2831.041436	17458.902000	891.511719	91.471039
2831.041436	17458.902000	890.340820	68.096909
2831.041436	17458.902000	889.168945	9.040730
2831.041436	17458.902000	887.997070	94.781479
2831.041436	17458.902000	886.825195	90.263664
2831.041436	17458.902000	885.653320	43.784840
2831.041436	17458.902000	884.480469	125.233994
2831.041436	17458.902000	883.307617	68.259079
2831.041436	17458.902000	882.134766	30.161037
2831.041436	17458.902000	880.961914	115.717377
2831.041436	17458.902000	879.788086	4.263816
2831.041436	17458.902000	878.614258	137.950775
2831.041436	17458.902000	877.440430	68.404358
2831.041436	17458.902000	876.266602	93.108131
2831.041436	17458.902000	875.091797	50.794235
2831.041436	17458.902000	873.916992	-8.259457
2831.041436	17458.902000	872.742188	-27.537674
2831.041436	17458.902000	871.567383	-130.512939
2831.041436	17458.902000	870.391602	59.413040
2831.041436	17458.902000	869.215820	-41.468159
2831.041436	17458.902000	868.040039	52.150703
2831.041436	17458.902000	866.864258	-46.618443
2831.041436	17458.902000	865.687500	-86.831154
2831.041436	17458.902000	864.510742	-70.614311
2831.041436	17458.902000	863.333984	-77.397003
2831.041436	17458.902000	862.157227	-80.009712
2831.041436	17458.902000	860.979492	-11.621810
2831.041436	17458.902000	859.802734	-122.847427
2831.041436	17458.902000	858.625000	31.094217
2831.041436	17458.902000	857.446289	53.468300
2831.041436	17458.902000	856.268555	-134.942780
2831.041436	17458.902000	855.089844	-37.454983
2831.041436	17458.902000	853.911133	-81.860199
2831.041436	17458.902000	852.731445	-113.743904
2831.041436	17458.902000	851.552734	-151.880295
2831.041436	17458.902000	850.373047	-123.301254
2831.041436	17458.902000	849.193359	36.562202
2831.041436	17458.902000	848.013672	-72.458832
2831.041436	17458.902000	846.833008	-58.526081
2831.041436	17458.902000	845.652344	-27.945553
2831.041436	17458.902000	844.471680	-49.449650
2831.041436	17458.902000	843.291016	66.462624
2831.041436	17458.902000	842.110352	-125.766830
2831.041436	17458.902000	840.928711	-84.829567
2831.041436	17458.902000	839.747070	-39.757172
2831.041436	17458.902000	838.564453	-69.605988
2831.041436	17458.902000	837.382813	54.463211
2831.041436	17458.902000	836.200195	24.587734
2831.041436	17458.902000	835.017578	88.274094
2831.041436	17458.902000	833.834961	37.597958
2831.041436	17458.902000	832.651367	203.068848
2831.041436	17458.902000	831.467773	210.549225
2831.041436	17458.902000	830.284180	355.123077
2831.041436	17458.902000	829.100586	262.855774
2831.041436	17458.902000	827.916992	75.096863
2831.041436	17458.902000	826.732422	205.047241
2831.041436	17458.902000	825.547852	175.107956
2831.041436	17458.902000	824.363281	-4.245938
2831.041436	17458.902000	823.177734	44.692242
2831.041436	17458.902000	821.992188	143.385590
2831.041436	17458.902000	820.806641	42.928265
2831.041436	17458.902000	819.621094	21.296272
2831.041436	17458.902000	818.434570	-68.749550
2831.041436	17458.902000	817.249023	38.134102
2831.041436	17458.902000	816.062500	-6.310325
2831.041436	17458.902000	814.875000	-83.895943
2831.041436	17458.902000	813.688477	-16.463488
2831.041436	17458.902000	812.500977	-145.810623
2831.041436	17458.902000	811.313477	54.097561
2831.041436	17458.902000	810.125977	34.482140
2831.041436	17458.902000	808.937500	-86.550461
2831.041436	17458.902000	807.749023	-25.451147
2831.041436	17458.902000	806.560547	-53.347980
2831.041436	17458.902000	805.372070	-85.381714
2831.041436	17458.902000	804.182617	12.867027
2831.041436	17458.902000	802.994141	59.375015
2831.041436	17458.902000	801.803711	-42.979794
2831.041436	17458.902000	800.614258	-70.904251
2831.041436	17458.902000	799.424805	-47.173832
2831.041436	17458.902000	798.234375	-128.822372
2831.041436	17458.902000	797.043945	-24.564894
2831.041436	17458.902000	795.852539	-23.611532
2831.041436	17458.902000	794.662109	-14.414101
2831.041436	17458.902000	793.470703	-7.297497
2831.041436	17458.902000	792.279297	96.795242
2831.041436	17458.902000	791.087891	-63.264950
2831.041436	17458.902000	789.895508	86.151070
2831.041436	17458.902000	788.703125	-7.872357
2831.041436	17458.902000	787.510742	-110.119110
2831.041436	17458.902000	786.318359	-169.045425
2831.041436	17458.902000	785.125000	-65.133530
2831.041436	17458.902000	783.931641	-111.710197
2831.041436	17458.902000	782.738281	-73.811760
2831.041436	17458.902000	781.544922	-13.286551
2831.041436	17458.902000	780.350586	28.663406
2831.041436	17458.902000	779.156250	107.642044
2831.041436	17458.902000	777.961914	-31.635029
2831.041436	17458.902000	776.767578	-6.220263
2831.041436	17458.902000	775.572266	91.186699
2831.041436	17458.902000	774.376953	155.620010
2831.041436	17458.902000	773.181641	22.553080
2831.041436	17458.902000	771.986328	-26.162752
2831.041436	17458.902000	770.790039	141.002792
2831.041436	17458.902000	769.593750	-88.642166
2831.041436	17458.902000	768.397461	49.659462
2831.041436	17458.902000	767.201172	128.299057
2831.041436	17458.902000	766.003906	151.421570
2831.041436	17458.902000	764.806641	20.477247
2831.041436	17458.902000	763.609375	-48.828571
2831.041436	17458.902000	762.412109	-33.951691
2831.041436	17458.902000	761.213867	36.318211
2831.041436	17458.902000	760.015625	-43.266811
2831.041436	17458.902000	758.817383	-55.132294
2831.041436	17458.902000	757.618164	-30.089933
2831.041436	17458.902000	756.419922	33.888687
2831.041436	17458.902000	755.220703	-10.853798
2831.041436	17458.902000	754.021484	32.551933
2831.041436	17458.902000	752.821289	-38.858727
2831.041436	17458.902000	751.621094	41.376347
2831.041436	17458.902000	750.420898	-44.390076
2831.041436	17458.902000	749.220703	25.527304
2831.041436	17458.902000	748.020508	-2.903992
2831.041436	17458.902000	746.819336	171.349869
2831.041436	17458.902000	745.618164	226.781860
2831.041436	17458.902000	744.416992	91.834114
2831.041436	17458.902000	743.214844	65.366081
2831.041436	17458.902000	742.012695	6.153018
2831.041436	17458.902000	740.810547	351.912445
2831.041436	17458.902000	739.608398	419.399445
2831.041436	17458.902000	738.406250	511.367249
2831.041436	17458.902000	737.203125	654.371948
2831.041436	17458.902000	736.000000	940.343689
2831.041436	17458.902000	734.795898	1171.004517
2831.041436	17458.902000	733.592773	1301.449219
2831.041436	17458.902000	732.388672	1284.765991
2831.041436	17458.902000	731.184570	1439.581909
2831.041436	17458.902000	729.979492	1247.257324
2831.041436	17458.902000	728.775391	1008.042603
2831.041436	17458.902000	727.570313	844.403137
2831.041436	17458.902000	726.365234	648.162109
2831.041436	17458.902000	725.160156	454.015259
2831.041436	17458.902000	723.954102	221.173706
2831.041436	17458.902000	722.748047	269.770447
2831.041436	17458.902000	721.541992	381.511810
2831.041436	17458.902000	720.334961	205.811539
2831.041436	17458.902000	719.128906	215.581116
2831.041436	17458.902000	717.921875	219.204468
2831.041436	17458.902000	716.714844	17.083260
2831.041436	17458.902000	715.506836	-36.330238
2831.041436	17458.902000	714.298828	81.265594
2831.041436	17458.902000	713.090820	109.220634
2831.041436	17458.902000	711.882813	108.643059
2831.041436	17458.902000	710.674805	73.446228
2831.041436	17458.902000	709.465820	68.745392
2831.041436	17458.902000	708.256836	114.860359
2831.041436	17458.902000	707.047852	67.390060
2831.041436	17458.902000	705.837891	58.532673
2831.041436	17458.902000	704.627930	72.005089
2831.041436	17458.902000	703.417969	93.568336
2831.041436	17458.902000	702.208008	-6.809038
2831.041436	17458.902000	700.998047	-64.520767
2831.041436	17458.902000	699.787109	131.608276
2831.041436	17458.902000	698.576172	83.976768
2831.041436	17458.902000	697.364258	7.912144
2831.041436	17458.902000	696.153320	2.880543
2831.041436	17458.902000	694.941406	44.485744
2831.041436	17458.902000	693.729492	49.523987
2831.041436	17458.902000	692.516602	99.146355
2831.041436	17458.902000	691.304688	138.576065
2831.041436	17458.902000	690.091797	131.323929
2831.041436	17458.902000	688.878906	219.307388
2831.041436	17458.902000	687.665039	226.156464
2831.041436	17458.902000	686.451172	83.035744
2831.041436	17458.902000	685.237305	257.973419
2831.041436	17458.902000	684.023438	143.190567
2831.041436	17458.902000	682.809570	253.177292
2831.041436	17458.902000	681.594727	47.272991
2831.041436	17458.902000	680.379883	298.840149
2831.041436	17458.902000	679.165039	186.026154
2831.041436	17458.902000	677.949219	354.436890
2831.041436	17458.902000	676.733398	292.152740
2831.041436	17458.902000	675.517578	195.480804
2831.041436	17458.902000	674.301758	412.200256
2831.041436	17458.902000	673.084961	412.498474
2831.041436	17458.902000	671.869141	527.959045
2831.041436	17458.902000	670.651367	445.314484
2831.041436	17458.902000	669.434570	251.562637
2831.041436	17458.902000	668.216797	300.220764
2831.041436	17458.902000	667.000000	296.322876
2831.041436	17458.902000	665.781250	286.328735
2831.041436	17458.902000	664.563477	248.046600
2831.041436	17458.902000	663.344727	367.147369
2831.041436	17458.902000	662.125977	256.156158
2831.041436	17458.902000	660.907227	187.535385
2831.041436	17458.902000	659.688477	209.660583
2831.041436	17458.902000	658.468750	310.374115
2831.041436	17458.902000	657.249023	306.182281
2831.041436	17458.902000	656.029297	283.816528
2831.041436	17458.902000	654.808594	394.413635
2831.041436	17458.902000	653.587891	412.255859
2831.041436	17458.902000	652.367188	321.287567
2831.041436	17458.902000	651.146484	433.712036
2831.041436	17458.902000	649.924805	332.636108
2831.041436	17458.902000	648.704102	239.621170
2831.041436	17458.902000	647.482422	271.380920
2831.041436	17458.902000	646.259766	299.064331
2831.041436	17458.902000	645.037109	290.490997
2831.041436	17458.902000	643.815430	279.876617
2831.041436	17458.902000	642.591797	377.808075
2831.041436	17458.902000	641.369141	338.960999
2831.041436	17458.902000	640.145508	229.744675
2831.041436	17458.902000	638.921875	225.033600
2831.041436	17458.902000	637.698242	364.943176
2831.041436	17458.902000	636.474609	436.464325
2831.041436	17458.902000	635.250000	363.325348
2831.041436	17458.902000	634.025391	404.627411
2831.041436	17458.902000	632.800781	403.722321
2831.041436	17458.902000	631.575195	354.614227
2831.041436	17458.902000	630.349609	357.662201
2831.041436	17458.902000	629.124023	336.602356
2831.041436	17458.902000	627.898438	185.148834
2831.041436	17458.902000	626.671875	356.569366
2831.041436	17458.902000	625.445313	447.690521
2831.041436	17458.902000	624.218750	466.582367
2831.041436	17458.902000	622.992188	413.290710
2831.041436	17458.902000	621.764648	368.000641
2831.041436	17458.902000	620.537109	426.860168
2831.041436	17458.902000	619.309570	453.620605
2831.041436	17458.902000	618.081055	326.159973
2831.041436	17458.902000	616.852539	380.890961
2831.041436	17458.902000	615.624023	289.464386
2831.041436	17458.902000	614.395508	296.095428
2831.041436	17458.902000	613.166992	168.655624
2831.041436	17458.902000	611.937500	103.242157
2831.041436	17458.902000	610.708008	179.808441
2831.041436	17458.902000	609.477539	228.320282
2831.041436	17458.902000	608.248047	156.853699
2831.041436	17458.902000	607.017578	183.311096
2831.041436	17458.902000	605.787109	23.913097
2831.041436	17458.902000	604.555664	22.364265
2831.041436	17458.902000	603.325195	40.764736
2831.041436	17458.902000	602.093750	75.102242
2831.041436	17458.902000	600.861328	37.528618
2831.041436	17458.902000	599.629883	-93.857811
2831.041436	17458.902000	598.397461	34.196724
2831.041436	17458.902000	597.165039	6.558582
2831.041436	17458.902000	595.932617	-58.988964
2831.041436	17458.902000	594.699219	7.083301
2831.041436	17458.902000	593.465820	21.266809
2831.041436	17458.902000	592.232422	21.469383
2831.041436	17458.902000	590.999023	141.227264
2831.041436	17458.902000	589.764648	19.816730
2831.041436	17458.902000	588.530273	-55.743832
2831.041436	17458.902000	587.295898	105.716133
2831.041436	17458.902000	586.061523	123.720222
2831.041436	17458.902000	584.826172	107.851334
2831.041436	17458.902000	583.590820	119.837921
2831.041436	17458.902000	582.355469	119.862785
2831.041436	17458.902000	581.119141	50.234409
2831.041436	17458.902000	579.882813	38.304848
2831.041436	17458.902000	578.646484	225.235443
2831.041436	17458.902000	577.410156	193.363342
2831.041436	17458.902000	576.172852	302.624451
2831.041436	17458.902000	574.935547	232.959305
2831.041436	17458.902000	573.698242	326.246063
2831.041436	17458.902000	572.460938	294.327789
2831.041436	17458.902000	571.222656	232.617416
2831.041436	17458.902000	569.984375	222.553131
2831.041436	17458.902000	568.746094	224.395920
2831.041436	17458.902000	567.506836	404.865448
2831.041436	17458.902000	566.267578	251.863251
2831.041436	17458.902000	565.028320	251.689926
2831.041436	17458.902000	563.789063	287.216888
2831.041436	17458.902000	562.548828	191.829819
2831.041436	17458.902000	561.309570	193.638702
2831.041436	17458.902000	560.068359	268.782837
2831.041436	17458.902000	558.828125	246.782761
2831.041436	17458.902000	557.586914	171.287003
2831.041436	17458.902000	556.345703	190.913956
2831.041436	17458.902000	555.104492	18.411043
2831.041436	17458.902000	553.863281	220.243973
2831.041436	17458.902000	552.621094	132.939087
2831.041436	17458.902000	551.378906	53.592361
2831.041436	17458.902000	550.136719	-91.021904
2831.041436	17458.902000	548.893555	156.173935
2831.041436	17458.902000	547.650391	68.971176
2831.041436	17458.902000	546.407227	-95.317314
2831.041436	17458.902000	545.164063	-6.439685
2831.041436	17458.902000	543.919922	-83.649780
2831.041436	17458.902000	542.675781	70.422272
2831.041436	17458.902000	541.431641	28.815928
2831.041436	17458.902000	540.186523	18.843773
2831.041436	17458.902000	538.941406	10.862963
2831.041436	17458.902000	537.696289	-26.722790
2831.041436	17458.902000	536.451172	-30.715834
2831.041436	17458.902000	535.205078	221.906433
2831.041436	17458.902000	533.959961	32.388065
2831.041436	17458.902000	532.712891	158.642807
2831.041436	17458.902000	531.466797	326.288940
2831.041436	17458.902000	530.219727	205.940155
2831.041436	17458.902000	528.972656	93.548729
2831.041436	17458.902000	527.725586	170.472931
2831.041436	17458.902000	526.478516	148.839600
2831.041436	17458.902000	525.230469	129.203644
2831.041436	17458.902000	523.982422	-34.215675
2831.041436	17458.902000	522.734375	-8.456591
2831.041436	17458.902000	521.485352	-157.948029
2831.041436	17458.902000	520.236328	-43.532818
2831.041436	17458.902000	518.987305	-47.242882
2831.041436	17458.902000	517.737305	-121.774185
2831.041436	17458.902000	516.488281	-70.321259
2831.041436	17458.902000	515.238281	-107.385239
2831.041436	17458.902000	513.988281	-148.337448
2831.041436	17458.902000	512.737305	-85.034447
2831.041436	17458.902000	511.486328	-57.113262
2831.041436	17458.902000	510.235352	12.100654
2831.041436	17458.902000	508.984375	-115.182037
2831.041436	17458.902000	507.732422	32.658714
2831.041436	17458.902000	506.480469	-13.980594
2831.041436	17458.902000	505.228516	-84.131050
2831.041436	17458.902000	503.976563	-56.051292
2831.041436	17458.902000	502.723633	-4.397122
2831.041436	17458.902000	501.470703	96.331779
2831.041436	17458.902000	500.217773	61.674072
2831.041436	17458.902000	498.963867	81.990585
2831.041436	17458.902000	497.709961	51.344959
2831.041436	17458.902000	496.456055	-61.601662
2831.041436	17458.902000	495.202148	54.899723
2831.041436	17458.902000	493.947266	-57.923813
2831.041436	17458.902000	492.692383	93.873466
2831.041436	17458.902000	491.437500	-46.257374
2831.041436	17458.902000	490.181641	-119.695694
2831.041436	17458.902000	488.926758	155.506790
2831.041436	17458.902000	487.670898	125.210091
2831.041436	17458.902000	486.414063	49.945831
2831.041436	17458.902000	485.158203	143.057495
2831.041436	17458.902000	483.901367	95.296791
2831.041436	17458.902000	482.644531	65.204155
2831.041436	17458.902000	481.386719	148.594543
2831.041436	17458.902000	480.128906	259.366119
2831.041436	17458.902000	478.871094	202.013580
2831.041436	17458.902000	477.613281	103.685333
2831.041436	17458.902000	476.355469	120.728966
2831.041436	17458.902000	475.096680	210.088806
2831.041436	17458.902000	473.837891	-1.337366
2831.041436	17458.902000	472.578125	9.981659
2831.041436	17458.902000	471.319336	156.051224
2831.041436	17458.902000	470.059570	147.896271
2831.041436	17458.902000	468.799805	178.815598
2831.041436	17458.902000	467.539063	55.625992
2831.041436	17458.902000	466.278320	72.976669
2831.041436	17458.902000	465.017578	14.301189
2831.041436	17458.902000	463.756836	43.431976
2831.041436	17458.902000	462.495117	10.206206
2831.041436	17458.902000	461.233398	185.572525
2831.041436	17458.902000	459.971680	203.068741
2831.041436	17458.902000	458.709961	-7.336248
2831.041436	17458.902000	457.447266	23.898184
2831.041436	17458.902000	456.184570	-1.316806
2831.041436	17458.902000	454.921875	22.184237
2831.041436	17458.902000	453.658203	109.938889
2831.041436	17458.902000	452.394531	90.655846
2831.041436	17458.902000	451.130859	106.432457
2831.041436	17458.902000	449.867188	24.972448
2831.041436	17458.902000	448.602539	58.313667
2831.041436	17458.902000	447.337891	254.991531
2831.041436	17458.902000	446.073242	189.179718
2831.041436	17458.902000	444.807617	329.428070
2831.041436	17458.902000	443.542969	263.672760
2831.041436	17458.902000	442.276367	56.148151
2831.041436	17458.902000	441.010742	266.312317
2831.041436	17458.902000	439.744141	181.243378
2831.041436	17458.902000	438.478516	232.123596
2831.041436	17458.902000	437.210938	203.409744
2831.041436	17458.902000	435.944336	386.238525
2831.041436	17458.902000	434.676758	442.883606
2831.041436	17458.902000	433.409180	229.887405
2831.041436	17458.902000	432.141602	271.031921
2831.041436	17458.902000	430.873047	356.748749
2831.041436	17458.902000	429.604492	306.731415
2831.041436	17458.902000	428.335938	324.558838
2831.041436	17458.902000	427.067383	346.242554
2831.041436	17458.902000	425.797852	193.553482
2831.041436	17458.902000	424.528320	321.744202
2831.041436	17458.902000	423.258789	329.803864
2831.041436	17458.902000	421.988281	217.805664
2831.041436	17458.902000	420.717773	152.278702
2831.041436	17458.902000	419.447266	301.542725
2831.041436	17458.902000	418.175781	247.561646
2831.041436	17458.902000	416.905273	315.422516
2831.041436	17458.902000	415.633789	294.249786
2831.041436	17458.902000	414.362305	346.505463
2831.041436	17458.902000	413.089844	110.664909
2831.041436	17458.902000	411.817383	253.651337
2831.041436	17458.902000	410.544922	212.955338
2831.041436	17458.902000	409.272461	255.271439
2831.041436	17458.902000	407.999023	212.513077
2831.041436	17458.902000	406.725586	113.695305
2831.041436	17458.902000	405.452148	34.138084
2831.041436	17458.902000	404.177734	155.246338
2831.041436	17458.902000	402.903320	96.746178
2831.041436	17458.902000	401.628906	96.042000
2831.041436	17458.902000	400.354492	126.086861
2831.041436	17458.902000	399.079102	-4.058671
2831.041436	17458.902000	397.803711	126.001953
2831.041436	17458.902000	396.528320	-19.766108
2831.041436	17458.902000	395.251953	11.681670
2831.041436	17458.902000	393.976563	-91.898483
2831.041436	17458.902000	392.700195	-10.668191
2831.041436	17458.902000	391.422852	-93.339249
2831.041436	17458.902000	390.145508	-50.991356
2831.041436	17458.902000	388.869141	-62.739544
2831.041436	17458.902000	387.590820	-124.718834
2831.041436	17458.902000	386.313477	-11.762605
2831.041436	17458.902000	385.035156	-29.883562
2831.041436	17458.902000	383.756836	-86.680428
2831.041436	17458.902000	382.478516	-59.068420
2831.041436	17458.902000	381.199219	-64.391380
2831.041436	17458.902000	379.919922	54.979225
2831.041436	17458.902000	378.640625	-31.579594
2831.041436	17458.902000	377.360352	73.754417
2831.041436	17458.902000	376.080078	50.067581
2831.041436	17458.902000	374.799805	31.863039
2831.041436	17458.902000	373.519531	55.606087
2831.041436	17458.902000	372.238281	-9.280960
2831.041436	17458.902000	370.957031	82.908058
2831.041436	17458.902000	369.675781	-86.231567
2831.041436	17458.902000	368.394531	32.104633
2831.041436	17458.902000	367.112305	-93.557274
2831.041436	17458.902000	365.830078	104.518929
2831.041436	17458.902000	364.546875	-2.706856
2831.041436	17458.902000	363.264648	121.636490
2831.041436	17458.902000	361.981445	220.587601
2831.041436	17458.902000	360.698242	213.692123
2831.041436	17458.902000	359.414063	300.198395
2831.041436	17458.902000	358.129883	142.997742
2831.041436	17458.902000	356.845703	119.407829
2831.041436	17458.902000	355.561523	223.583405
2831.041436	17458.902000	354.276367	93.713295
2831.041436	17458.902000	352.991211	-19.408371
2831.041436	17458.902000	351.706055	163.477051
2831.041436	17458.902000	350.420898	-10.006413
2831.041436	17458.902000	349.134766	112.366913
2831.041436	17458.902000	347.848633	52.478664
2831.041436	17458.902000	346.561523	-44.328526
2831.041436	17458.902000	345.275391	99.048172
2831.041436	17458.902000	343.988281	12.440868
2831.041436	17458.902000	342.700195	89.440903
2831.041436	17458.902000	341.413086	45.419415
2831.041436	17458.902000	340.125000	159.145645
2831.041436	17458.902000	338.836914	140.377609
2831.041436	17458.902000	337.548828	25.439857
2831.041436	17458.902000	336.259766	129.162476
2831.041436	17458.902000	334.970703	121.397072
2831.041436	17458.902000	333.681641	175.739761
2831.041436	17458.902000	332.391602	208.212708
2831.041436	17458.902000	331.101563	197.855362
2831.041436	17458.902000	329.811523	81.778572
2831.041436	17458.902000	328.521484	37.230858
2831.041436	17458.902000	327.230469	83.168640
2831.041436	17458.902000	325.939453	55.731682
2831.041436	17458.902000	324.648438	-14.591283
2831.041436	17458.902000	323.356445	-110.690430
2831.041436	17458.902000	322.064453	-118.352615
2831.041436	17458.902000	320.772461	-50.984264
2831.041436	17458.902000	319.480469	-89.402458
2831.041436	17458.902000	318.187500	139.216888
2831.041436	17458.902000	316.894531	60.385780
2831.041436	17458.902000	315.601563	-50.040249
2831.041436	17458.902000	314.307617	-28.629229
2831.041436	17458.902000	313.013672	8.603387
2831.041436	17458.902000	311.719727	23.613934
2831.041436	17458.902000	310.425781	-31.105688
2831.041436	17458.902000	309.130859	-201.159164
2831.041436	17458.902000	307.835938	-19.372549
2831.041436	17458.902000	306.541016	-15.654746
2831.041436	17458.902000	305.245117	-21.044737
2831.041436	17458.902000	303.949219	199.756622
2831.041436	17458.902000	302.653320	41.384396
2831.041436	17458.902000	301.356445	-4.746871
2831.041436	17458.902000	300.060547	42.370754
2831.041436	17458.902000	298.763672	159.802368
