#X		#Y		#Wave		#Intensity
9998.646277	4242.601667	1999.946289	-21.604551
9998.646277	4242.601667	1998.981445	-70.953751
9998.646277	4242.601667	1998.017578	64.748123
9998.646277	4242.601667	1997.052734	-40.082664
9998.646277	4242.601667	1996.088867	21.020370
9998.646277	4242.601667	1995.124023	22.547207
9998.646277	4242.601667	1994.159180	88.368187
9998.646277	4242.601667	1993.193359	92.161369
9998.646277	4242.601667	1992.228516	38.911236
9998.646277	4242.601667	1991.262695	7.867320
9998.646277	4242.601667	1990.296875	-85.129074
9998.646277	4242.601667	1989.331055	-14.867424
9998.646277	4242.601667	1988.365234	124.552452
9998.646277	4242.601667	1987.398438	63.481663
9998.646277	4242.601667	1986.432617	59.229572
9998.646277	4242.601667	1985.465820	59.844944
9998.646277	4242.601667	1984.499023	87.574692
9998.646277	4242.601667	1983.532227	90.500717
9998.646277	4242.601667	1982.565430	31.569622
9998.646277	4242.601667	1981.597656	120.834969
9998.646277	4242.601667	1980.629883	-14.802326
9998.646277	4242.601667	1979.662109	-64.013672
9998.646277	4242.601667	1978.694336	-44.131161
9998.646277	4242.601667	1977.726563	2.836811
9998.646277	4242.601667	1976.758789	12.696518
9998.646277	4242.601667	1975.790039	150.827835
9998.646277	4242.601667	1974.821289	167.937592
9998.646277	4242.601667	1973.852539	219.521393
9998.646277	4242.601667	1972.883789	26.831692
9998.646277	4242.601667	1971.915039	1.858933
9998.646277	4242.601667	1970.945313	3.964984
9998.646277	4242.601667	1969.975586	200.774048
9998.646277	4242.601667	1969.005859	111.541840
9998.646277	4242.601667	1968.036133	-14.671946
9998.646277	4242.601667	1967.066406	6.947437
9998.646277	4242.601667	1966.096680	109.806038
9998.646277	4242.601667	1965.125977	114.062866
9998.646277	4242.601667	1964.155273	219.238007
9998.646277	4242.601667	1963.184570	134.753784
9998.646277	4242.601667	1962.213867	-87.589828
9998.646277	4242.601667	1961.242188	-2.246392
9998.646277	4242.601667	1960.271484	11.667413
9998.646277	4242.601667	1959.299805	45.221287
9998.646277	4242.601667	1958.328125	78.727402
9998.646277	4242.601667	1957.356445	8.895514
9998.646277	4242.601667	1956.384766	-16.683542
9998.646277	4242.601667	1955.412109	169.137634
9998.646277	4242.601667	1954.439453	-102.319206
9998.646277	4242.601667	1953.467773	-2.622889
9998.646277	4242.601667	1952.495117	192.832047
9998.646277	4242.601667	1951.521484	54.092297
9998.646277	4242.601667	1950.548828	18.535696
9998.646277	4242.601667	1949.575195	-46.501328
9998.646277	4242.601667	1948.601563	-62.433830
9998.646277	4242.601667	1947.627930	169.546097
9998.646277	4242.601667	1946.654297	38.182384
9998.646277	4242.601667	1945.680664	81.068771
9998.646277	4242.601667	1944.706055	52.770844
9998.646277	4242.601667	1943.732422	152.016464
9998.646277	4242.601667	1942.757813	123.678223
9998.646277	4242.601667	1941.783203	-39.527103
9998.646277	4242.601667	1940.807617	57.175392
9998.646277	4242.601667	1939.833008	95.000443
9998.646277	4242.601667	1938.857422	127.894630
9998.646277	4242.601667	1937.881836	77.456329
9998.646277	4242.601667	1936.906250	142.160934
9998.646277	4242.601667	1935.930664	-30.750551
9998.646277	4242.601667	1934.955078	-76.271019
9998.646277	4242.601667	1933.978516	110.807549
9998.646277	4242.601667	1933.001953	11.401611
9998.646277	4242.601667	1932.025391	142.082657
9998.646277	4242.601667	1931.048828	13.325497
9998.646277	4242.601667	1930.072266	16.720625
9998.646277	4242.601667	1929.094727	208.453964
9998.646277	4242.601667	1928.118164	67.504944
9998.646277	4242.601667	1927.140625	85.536957
9998.646277	4242.601667	1926.163086	164.674164
9998.646277	4242.601667	1925.184570	40.902908
9998.646277	4242.601667	1924.207031	90.683327
9998.646277	4242.601667	1923.228516	45.149651
9998.646277	4242.601667	1922.250000	-22.356731
9998.646277	4242.601667	1921.271484	59.147114
9998.646277	4242.601667	1920.292969	8.751279
9998.646277	4242.601667	1919.314453	21.851503
9998.646277	4242.601667	1918.334961	12.974555
9998.646277	4242.601667	1917.355469	94.401947
9998.646277	4242.601667	1916.375977	-95.058510
9998.646277	4242.601667	1915.396484	101.023033
9998.646277	4242.601667	1914.416992	-20.069805
9998.646277	4242.601667	1913.436523	14.964321
9998.646277	4242.601667	1912.457031	54.863464
9998.646277	4242.601667	1911.476563	55.741875
9998.646277	4242.601667	1910.496094	98.057480
9998.646277	4242.601667	1909.515625	-49.724289
9998.646277	4242.601667	1908.534180	60.820412
9998.646277	4242.601667	1907.552734	-1.633730
9998.646277	4242.601667	1906.572266	47.976612
9998.646277	4242.601667	1905.590820	78.089371
9998.646277	4242.601667	1904.608398	-6.237062
9998.646277	4242.601667	1903.626953	-95.396393
9998.646277	4242.601667	1902.644531	-16.588406
9998.646277	4242.601667	1901.663086	-69.204880
9998.646277	4242.601667	1900.680664	-0.154836
9998.646277	4242.601667	1899.698242	-57.611610
9998.646277	4242.601667	1898.714844	35.738461
9998.646277	4242.601667	1897.732422	22.072840
9998.646277	4242.601667	1896.749023	86.210297
9998.646277	4242.601667	1895.765625	-0.368039
9998.646277	4242.601667	1894.782227	-21.294817
9998.646277	4242.601667	1893.798828	79.275810
9998.646277	4242.601667	1892.814453	17.055433
9998.646277	4242.601667	1891.831055	122.450386
9998.646277	4242.601667	1890.846680	-17.450050
9998.646277	4242.601667	1889.862305	-103.878700
9998.646277	4242.601667	1888.877930	-42.196548
9998.646277	4242.601667	1887.892578	-7.228643
9998.646277	4242.601667	1886.908203	-54.768227
9998.646277	4242.601667	1885.922852	52.982990
9998.646277	4242.601667	1884.937500	46.697624
9998.646277	4242.601667	1883.952148	-0.806894
9998.646277	4242.601667	1882.965820	72.946869
9998.646277	4242.601667	1881.980469	-6.046833
9998.646277	4242.601667	1880.994141	-9.867622
9998.646277	4242.601667	1880.007813	54.172909
9998.646277	4242.601667	1879.021484	-80.479668
9998.646277	4242.601667	1878.035156	-14.014305
9998.646277	4242.601667	1877.047852	8.836698
9998.646277	4242.601667	1876.061523	36.529865
9998.646277	4242.601667	1875.074219	30.323511
9998.646277	4242.601667	1874.086914	21.705273
9998.646277	4242.601667	1873.098633	20.356920
9998.646277	4242.601667	1872.111328	-31.797577
9998.646277	4242.601667	1871.123047	22.520386
9998.646277	4242.601667	1870.135742	-39.276985
9998.646277	4242.601667	1869.147461	-62.351986
9998.646277	4242.601667	1868.158203	-58.815746
9998.646277	4242.601667	1867.169922	0.326898
9998.646277	4242.601667	1866.180664	95.707611
9998.646277	4242.601667	1865.192383	77.482887
9998.646277	4242.601667	1864.203125	-76.029549
9998.646277	4242.601667	1863.213867	-50.722569
9998.646277	4242.601667	1862.223633	49.450340
9998.646277	4242.601667	1861.234375	40.929790
9998.646277	4242.601667	1860.244141	162.787430
9998.646277	4242.601667	1859.253906	-7.465110
9998.646277	4242.601667	1858.263672	85.406906
9998.646277	4242.601667	1857.273438	40.714405
9998.646277	4242.601667	1856.282227	-40.143303
9998.646277	4242.601667	1855.291992	47.874626
9998.646277	4242.601667	1854.300781	-13.651809
9998.646277	4242.601667	1853.309570	-12.461780
9998.646277	4242.601667	1852.317383	-40.195518
9998.646277	4242.601667	1851.326172	28.493422
9998.646277	4242.601667	1850.333984	-100.437004
9998.646277	4242.601667	1849.342773	-67.893051
9998.646277	4242.601667	1848.350586	51.360100
9998.646277	4242.601667	1847.357422	81.462433
9998.646277	4242.601667	1846.365234	46.543545
9998.646277	4242.601667	1845.372070	98.309952
9998.646277	4242.601667	1844.379883	36.931747
9998.646277	4242.601667	1843.386719	-19.607931
9998.646277	4242.601667	1842.393555	101.928703
9998.646277	4242.601667	1841.399414	-33.982109
9998.646277	4242.601667	1840.406250	80.301598
9998.646277	4242.601667	1839.412109	55.069389
9998.646277	4242.601667	1838.417969	22.636406
9998.646277	4242.601667	1837.423828	40.698761
9998.646277	4242.601667	1836.429688	29.915440
9998.646277	4242.601667	1835.434570	76.807846
9998.646277	4242.601667	1834.440430	159.722244
9998.646277	4242.601667	1833.445313	-16.812756
9998.646277	4242.601667	1832.450195	66.090462
9998.646277	4242.601667	1831.454102	60.121513
9998.646277	4242.601667	1830.458984	6.142525
9998.646277	4242.601667	1829.462891	-2.211469
9998.646277	4242.601667	1828.466797	-27.359974
9998.646277	4242.601667	1827.470703	86.661407
9998.646277	4242.601667	1826.474609	68.702316
9998.646277	4242.601667	1825.478516	98.718124
9998.646277	4242.601667	1824.481445	128.722412
9998.646277	4242.601667	1823.484375	93.981430
9998.646277	4242.601667	1822.487305	102.400276
9998.646277	4242.601667	1821.490234	113.211632
9998.646277	4242.601667	1820.493164	11.398201
9998.646277	4242.601667	1819.495117	98.882248
9998.646277	4242.601667	1818.498047	-31.635742
9998.646277	4242.601667	1817.500000	19.897713
9998.646277	4242.601667	1816.500977	-67.462433
9998.646277	4242.601667	1815.502930	55.870800
9998.646277	4242.601667	1814.504883	16.401447
9998.646277	4242.601667	1813.505859	63.091560
9998.646277	4242.601667	1812.506836	11.666895
9998.646277	4242.601667	1811.507813	-63.662075
9998.646277	4242.601667	1810.508789	109.763863
9998.646277	4242.601667	1809.508789	51.175785
9998.646277	4242.601667	1808.508789	81.062889
9998.646277	4242.601667	1807.508789	98.983543
9998.646277	4242.601667	1806.508789	21.300335
9998.646277	4242.601667	1805.508789	24.880238
9998.646277	4242.601667	1804.508789	71.455460
9998.646277	4242.601667	1803.507813	3.360818
9998.646277	4242.601667	1802.506836	-5.012373
9998.646277	4242.601667	1801.505859	10.488019
9998.646277	4242.601667	1800.504883	107.139130
9998.646277	4242.601667	1799.502930	-11.052615
9998.646277	4242.601667	1798.501953	9.195438
9998.646277	4242.601667	1797.500000	46.129509
9998.646277	4242.601667	1796.498047	-69.616135
9998.646277	4242.601667	1795.496094	-15.999952
9998.646277	4242.601667	1794.493164	-24.405674
9998.646277	4242.601667	1793.491211	167.437210
9998.646277	4242.601667	1792.488281	142.301224
9998.646277	4242.601667	1791.485352	55.208122
9998.646277	4242.601667	1790.482422	65.827148
9998.646277	4242.601667	1789.478516	62.140987
9998.646277	4242.601667	1788.475586	58.448788
9998.646277	4242.601667	1787.471680	45.223949
9998.646277	4242.601667	1786.467773	-34.666275
9998.646277	4242.601667	1785.463867	-83.590248
9998.646277	4242.601667	1784.459961	5.528996
9998.646277	4242.601667	1783.455078	101.743935
9998.646277	4242.601667	1782.450195	93.236801
9998.646277	4242.601667	1781.445313	3.854082
9998.646277	4242.601667	1780.440430	133.279190
9998.646277	4242.601667	1779.435547	34.392330
9998.646277	4242.601667	1778.429688	-52.581223
9998.646277	4242.601667	1777.424805	10.202809
9998.646277	4242.601667	1776.418945	18.297731
9998.646277	4242.601667	1775.413086	16.875353
9998.646277	4242.601667	1774.406250	-100.951118
9998.646277	4242.601667	1773.400391	-92.871765
9998.646277	4242.601667	1772.393555	-42.066486
9998.646277	4242.601667	1771.386719	77.555260
9998.646277	4242.601667	1770.379883	168.636871
9998.646277	4242.601667	1769.373047	31.852497
9998.646277	4242.601667	1768.365234	-71.674942
9998.646277	4242.601667	1767.358398	-70.796257
9998.646277	4242.601667	1766.350586	155.387848
9998.646277	4242.601667	1765.342773	149.084000
9998.646277	4242.601667	1764.334961	-4.223855
9998.646277	4242.601667	1763.326172	188.595245
9998.646277	4242.601667	1762.318359	96.932281
9998.646277	4242.601667	1761.309570	-20.773975
9998.646277	4242.601667	1760.300781	-12.888141
9998.646277	4242.601667	1759.291016	56.565403
9998.646277	4242.601667	1758.282227	45.462135
9998.646277	4242.601667	1757.272461	91.173836
9998.646277	4242.601667	1756.262695	37.429703
9998.646277	4242.601667	1755.252930	4.993270
9998.646277	4242.601667	1754.243164	159.498688
9998.646277	4242.601667	1753.233398	110.462448
9998.646277	4242.601667	1752.222656	9.389381
9998.646277	4242.601667	1751.211914	-37.263458
9998.646277	4242.601667	1750.201172	48.502106
9998.646277	4242.601667	1749.190430	-35.995438
9998.646277	4242.601667	1748.179688	127.709381
9998.646277	4242.601667	1747.167969	-34.787338
9998.646277	4242.601667	1746.156250	81.569427
9998.646277	4242.601667	1745.144531	13.606244
9998.646277	4242.601667	1744.132813	-16.556387
9998.646277	4242.601667	1743.121094	151.635635
9998.646277	4242.601667	1742.108398	29.349661
9998.646277	4242.601667	1741.095703	-76.381920
9998.646277	4242.601667	1740.083008	129.439590
9998.646277	4242.601667	1739.070313	33.136612
9998.646277	4242.601667	1738.057617	-18.320963
9998.646277	4242.601667	1737.043945	78.823013
9998.646277	4242.601667	1736.030273	-104.718796
9998.646277	4242.601667	1735.016602	-14.700613
9998.646277	4242.601667	1734.002930	-16.670115
9998.646277	4242.601667	1732.989258	-77.577324
9998.646277	4242.601667	1731.974609	-133.765747
9998.646277	4242.601667	1730.959961	-65.080276
9998.646277	4242.601667	1729.945313	189.651169
9998.646277	4242.601667	1728.930664	-87.984795
9998.646277	4242.601667	1727.916016	20.632618
9998.646277	4242.601667	1726.900391	51.501629
9998.646277	4242.601667	1725.885742	58.806316
9998.646277	4242.601667	1724.870117	56.676929
9998.646277	4242.601667	1723.853516	110.999130
9998.646277	4242.601667	1722.837891	42.960030
9998.646277	4242.601667	1721.822266	85.471878
9998.646277	4242.601667	1720.805664	33.889267
9998.646277	4242.601667	1719.789063	-71.764793
9998.646277	4242.601667	1718.772461	88.223297
9998.646277	4242.601667	1717.754883	-33.886890
9998.646277	4242.601667	1716.738281	53.157631
9998.646277	4242.601667	1715.720703	64.974655
9998.646277	4242.601667	1714.703125	53.282368
9998.646277	4242.601667	1713.685547	53.318539
9998.646277	4242.601667	1712.667969	15.771642
9998.646277	4242.601667	1711.649414	-47.601509
9998.646277	4242.601667	1710.630859	60.364113
9998.646277	4242.601667	1709.612305	154.191940
9998.646277	4242.601667	1708.593750	170.545074
9998.646277	4242.601667	1707.575195	-38.307930
9998.646277	4242.601667	1706.555664	132.823761
9998.646277	4242.601667	1705.536133	71.741501
9998.646277	4242.601667	1704.516602	113.815414
9998.646277	4242.601667	1703.497070	99.603638
9998.646277	4242.601667	1702.477539	174.429428
9998.646277	4242.601667	1701.457031	82.858063
9998.646277	4242.601667	1700.437500	21.759052
9998.646277	4242.601667	1699.416992	-34.651138
9998.646277	4242.601667	1698.395508	-46.567837
9998.646277	4242.601667	1697.375000	-35.083843
9998.646277	4242.601667	1696.354492	-30.643169
9998.646277	4242.601667	1695.333008	29.943419
9998.646277	4242.601667	1694.311523	120.907646
9998.646277	4242.601667	1693.290039	29.349651
9998.646277	4242.601667	1692.267578	-22.430519
9998.646277	4242.601667	1691.246094	-106.943932
9998.646277	4242.601667	1690.223633	-16.092041
9998.646277	4242.601667	1689.201172	77.044960
9998.646277	4242.601667	1688.178711	29.903160
9998.646277	4242.601667	1687.155273	41.177567
9998.646277	4242.601667	1686.132813	-34.006500
9998.646277	4242.601667	1685.109375	68.337563
9998.646277	4242.601667	1684.085938	-51.228752
9998.646277	4242.601667	1683.062500	149.111038
9998.646277	4242.601667	1682.039063	76.230537
9998.646277	4242.601667	1681.014648	150.400360
9998.646277	4242.601667	1679.990234	5.174272
9998.646277	4242.601667	1678.965820	83.962982
9998.646277	4242.601667	1677.941406	57.737785
9998.646277	4242.601667	1676.916992	26.842030
9998.646277	4242.601667	1675.891602	110.194710
9998.646277	4242.601667	1674.866211	95.585976
9998.646277	4242.601667	1673.840820	20.366529
9998.646277	4242.601667	1672.815430	24.392424
9998.646277	4242.601667	1671.790039	128.588577
9998.646277	4242.601667	1670.763672	113.923706
9998.646277	4242.601667	1669.737305	8.417570
9998.646277	4242.601667	1668.710938	-20.220255
9998.646277	4242.601667	1667.684570	207.231537
9998.646277	4242.601667	1666.658203	80.774048
9998.646277	4242.601667	1665.630859	80.018539
9998.646277	4242.601667	1664.603516	104.843216
9998.646277	4242.601667	1663.576172	-19.241045
9998.646277	4242.601667	1662.548828	126.509537
9998.646277	4242.601667	1661.520508	86.153442
9998.646277	4242.601667	1660.493164	36.500835
9998.646277	4242.601667	1659.464844	65.884872
9998.646277	4242.601667	1658.436523	169.614517
9998.646277	4242.601667	1657.408203	263.995544
9998.646277	4242.601667	1656.378906	272.366241
9998.646277	4242.601667	1655.350586	22.898668
9998.646277	4242.601667	1654.321289	191.523529
9998.646277	4242.601667	1653.291992	183.609940
9998.646277	4242.601667	1652.261719	208.183563
9998.646277	4242.601667	1651.232422	167.751114
9998.646277	4242.601667	1650.202148	194.612793
9998.646277	4242.601667	1649.171875	-80.153717
9998.646277	4242.601667	1648.141602	236.669022
9998.646277	4242.601667	1647.111328	379.420990
9998.646277	4242.601667	1646.080078	155.749451
9998.646277	4242.601667	1645.049805	189.480042
9998.646277	4242.601667	1644.018555	232.454407
9998.646277	4242.601667	1642.987305	187.341080
9998.646277	4242.601667	1641.955078	186.252579
9998.646277	4242.601667	1640.923828	180.522018
9998.646277	4242.601667	1639.891602	260.471863
9998.646277	4242.601667	1638.859375	226.918228
9998.646277	4242.601667	1637.827148	211.886627
9998.646277	4242.601667	1636.794922	210.738602
9998.646277	4242.601667	1635.761719	177.178406
9998.646277	4242.601667	1634.729492	238.487503
9998.646277	4242.601667	1633.696289	133.202179
9998.646277	4242.601667	1632.662109	282.359192
9998.646277	4242.601667	1631.628906	202.522797
9998.646277	4242.601667	1630.594727	168.944046
9998.646277	4242.601667	1629.561523	213.962616
9998.646277	4242.601667	1628.527344	228.908142
9998.646277	4242.601667	1627.493164	299.293121
9998.646277	4242.601667	1626.458008	307.265076
9998.646277	4242.601667	1625.423828	361.421570
9998.646277	4242.601667	1624.388672	156.908646
9998.646277	4242.601667	1623.353516	331.112274
9998.646277	4242.601667	1622.318359	357.504852
9998.646277	4242.601667	1621.282227	178.471252
9998.646277	4242.601667	1620.247070	297.166168
9998.646277	4242.601667	1619.210938	291.225342
9998.646277	4242.601667	1618.174805	308.344849
9998.646277	4242.601667	1617.137695	226.285080
9998.646277	4242.601667	1616.101563	388.653900
9998.646277	4242.601667	1615.064453	373.447815
9998.646277	4242.601667	1614.027344	448.127655
9998.646277	4242.601667	1612.990234	421.381104
9998.646277	4242.601667	1611.953125	277.141510
9998.646277	4242.601667	1610.916016	460.038940
9998.646277	4242.601667	1609.877930	619.826416
9998.646277	4242.601667	1608.839844	618.369507
9998.646277	4242.601667	1607.801758	444.250977
9998.646277	4242.601667	1606.763672	458.930023
9998.646277	4242.601667	1605.724609	478.197693
9998.646277	4242.601667	1604.685547	439.934265
9998.646277	4242.601667	1603.646484	410.883148
9998.646277	4242.601667	1602.607422	372.639282
9998.646277	4242.601667	1601.568359	355.101318
9998.646277	4242.601667	1600.528320	431.820099
9998.646277	4242.601667	1599.489258	407.374329
9998.646277	4242.601667	1598.449219	527.708679
9998.646277	4242.601667	1597.408203	558.384399
9998.646277	4242.601667	1596.368164	621.207825
9998.646277	4242.601667	1595.327148	447.441437
9998.646277	4242.601667	1594.287109	501.071716
9998.646277	4242.601667	1593.246094	393.970062
9998.646277	4242.601667	1592.204102	470.534149
9998.646277	4242.601667	1591.163086	547.068848
9998.646277	4242.601667	1590.121094	320.701447
9998.646277	4242.601667	1589.079102	534.870850
9998.646277	4242.601667	1588.037109	407.214905
9998.646277	4242.601667	1586.995117	453.884308
9998.646277	4242.601667	1585.953125	344.634186
9998.646277	4242.601667	1584.910156	379.833191
9998.646277	4242.601667	1583.867188	543.357239
9998.646277	4242.601667	1582.824219	411.236908
9998.646277	4242.601667	1581.781250	384.549011
9998.646277	4242.601667	1580.737305	305.190094
9998.646277	4242.601667	1579.693359	289.981934
9998.646277	4242.601667	1578.649414	485.417358
9998.646277	4242.601667	1577.605469	451.869720
9998.646277	4242.601667	1576.561523	390.872925
9998.646277	4242.601667	1575.516602	368.798584
9998.646277	4242.601667	1574.472656	367.327026
9998.646277	4242.601667	1573.427734	496.230560
9998.646277	4242.601667	1572.381836	318.648102
9998.646277	4242.601667	1571.336914	271.464050
9998.646277	4242.601667	1570.291016	436.891663
9998.646277	4242.601667	1569.246094	362.283081
9998.646277	4242.601667	1568.200195	356.256378
9998.646277	4242.601667	1567.153320	432.478302
9998.646277	4242.601667	1566.107422	408.174500
9998.646277	4242.601667	1565.060547	411.286316
9998.646277	4242.601667	1564.013672	275.123199
9998.646277	4242.601667	1562.966797	467.741089
9998.646277	4242.601667	1561.919922	313.370667
9998.646277	4242.601667	1560.872070	300.541809
9998.646277	4242.601667	1559.825195	429.175934
9998.646277	4242.601667	1558.777344	573.729553
9998.646277	4242.601667	1557.729492	465.090271
9998.646277	4242.601667	1556.680664	420.340240
9998.646277	4242.601667	1555.632813	505.557495
9998.646277	4242.601667	1554.583984	435.758240
9998.646277	4242.601667	1553.535156	468.538483
9998.646277	4242.601667	1552.486328	410.179688
9998.646277	4242.601667	1551.436523	431.573669
9998.646277	4242.601667	1550.387695	478.021545
9998.646277	4242.601667	1549.337891	419.715332
9998.646277	4242.601667	1548.288086	502.584534
9998.646277	4242.601667	1547.238281	453.416931
9998.646277	4242.601667	1546.187500	497.575104
9998.646277	4242.601667	1545.136719	346.059265
9998.646277	4242.601667	1544.086914	451.659180
9998.646277	4242.601667	1543.035156	357.085114
9998.646277	4242.601667	1541.984375	401.263977
9998.646277	4242.601667	1540.933594	343.132050
9998.646277	4242.601667	1539.881836	335.035767
9998.646277	4242.601667	1538.830078	426.942200
9998.646277	4242.601667	1537.778320	348.419342
9998.646277	4242.601667	1536.725586	288.108215
9998.646277	4242.601667	1535.673828	284.612823
9998.646277	4242.601667	1534.621094	396.933105
9998.646277	4242.601667	1533.568359	291.276184
9998.646277	4242.601667	1532.515625	324.130615
9998.646277	4242.601667	1531.461914	241.243820
9998.646277	4242.601667	1530.409180	265.042969
9998.646277	4242.601667	1529.355469	288.842529
9998.646277	4242.601667	1528.301758	296.768555
9998.646277	4242.601667	1527.247070	288.829254
9998.646277	4242.601667	1526.193359	310.380463
9998.646277	4242.601667	1525.138672	309.267456
9998.646277	4242.601667	1524.083984	113.273033
9998.646277	4242.601667	1523.029297	227.780151
9998.646277	4242.601667	1521.974609	213.132324
9998.646277	4242.601667	1520.918945	295.891510
9998.646277	4242.601667	1519.863281	174.834076
9998.646277	4242.601667	1518.807617	212.317139
9998.646277	4242.601667	1517.751953	222.637283
9998.646277	4242.601667	1516.696289	-4.655479
9998.646277	4242.601667	1515.639648	28.357359
9998.646277	4242.601667	1514.583008	54.585838
9998.646277	4242.601667	1513.526367	110.222046
9998.646277	4242.601667	1512.469727	213.338928
9998.646277	4242.601667	1511.412109	27.040611
9998.646277	4242.601667	1510.355469	134.685852
9998.646277	4242.601667	1509.297852	197.103302
9998.646277	4242.601667	1508.240234	119.423622
9998.646277	4242.601667	1507.181641	55.343254
9998.646277	4242.601667	1506.124023	27.445444
9998.646277	4242.601667	1505.065430	4.089252
9998.646277	4242.601667	1504.006836	46.233364
9998.646277	4242.601667	1502.948242	79.349159
9998.646277	4242.601667	1501.888672	96.669792
9998.646277	4242.601667	1500.830078	136.566895
9998.646277	4242.601667	1499.770508	29.829391
9998.646277	4242.601667	1498.710938	13.371430
9998.646277	4242.601667	1497.650391	93.902321
9998.646277	4242.601667	1496.590820	138.348709
9998.646277	4242.601667	1495.530273	22.751131
9998.646277	4242.601667	1494.469727	26.663303
9998.646277	4242.601667	1493.409180	10.313424
9998.646277	4242.601667	1492.348633	201.246094
9998.646277	4242.601667	1491.287109	33.998825
9998.646277	4242.601667	1490.225586	96.530075
9998.646277	4242.601667	1489.164063	-54.830425
9998.646277	4242.601667	1488.102539	36.996597
9998.646277	4242.601667	1487.041016	-91.746040
9998.646277	4242.601667	1485.978516	-85.413292
9998.646277	4242.601667	1484.916016	-38.559036
9998.646277	4242.601667	1483.853516	-2.968280
9998.646277	4242.601667	1482.791016	-37.073006
9998.646277	4242.601667	1481.727539	-102.611404
9998.646277	4242.601667	1480.664063	-87.181381
9998.646277	4242.601667	1479.600586	-40.291096
9998.646277	4242.601667	1478.537109	-24.830057
9998.646277	4242.601667	1477.473633	60.272182
9998.646277	4242.601667	1476.409180	-23.067204
9998.646277	4242.601667	1475.344727	23.846251
9998.646277	4242.601667	1474.280273	43.877422
9998.646277	4242.601667	1473.215820	-57.323170
9998.646277	4242.601667	1472.151367	-8.072783
9998.646277	4242.601667	1471.085938	0.793415
9998.646277	4242.601667	1470.020508	23.124067
9998.646277	4242.601667	1468.955078	-98.008438
9998.646277	4242.601667	1467.888672	65.598869
9998.646277	4242.601667	1466.823242	-6.241807
9998.646277	4242.601667	1465.756836	40.656143
9998.646277	4242.601667	1464.690430	-30.748405
9998.646277	4242.601667	1463.624023	78.958229
9998.646277	4242.601667	1462.556641	38.893196
9998.646277	4242.601667	1461.490234	105.847458
9998.646277	4242.601667	1460.422852	-10.486796
9998.646277	4242.601667	1459.355469	99.422928
9998.646277	4242.601667	1458.287109	57.227535
9998.646277	4242.601667	1457.219727	271.876007
9998.646277	4242.601667	1456.151367	175.822937
9998.646277	4242.601667	1455.083008	78.067001
9998.646277	4242.601667	1454.014648	-0.280376
9998.646277	4242.601667	1452.945313	96.217949
9998.646277	4242.601667	1451.876953	198.879868
9998.646277	4242.601667	1450.807617	61.291512
9998.646277	4242.601667	1449.738281	87.472450
9998.646277	4242.601667	1448.668945	104.280678
9998.646277	4242.601667	1447.598633	82.415649
9998.646277	4242.601667	1446.528320	113.406616
9998.646277	4242.601667	1445.458008	49.895260
9998.646277	4242.601667	1444.387695	10.417779
9998.646277	4242.601667	1443.317383	161.072876
9998.646277	4242.601667	1442.246094	86.147026
9998.646277	4242.601667	1441.174805	165.112717
9998.646277	4242.601667	1440.103516	60.545216
9998.646277	4242.601667	1439.032227	32.718983
9998.646277	4242.601667	1437.960938	95.673134
9998.646277	4242.601667	1436.888672	121.601982
9998.646277	4242.601667	1435.816406	-0.641257
9998.646277	4242.601667	1434.744141	105.698341
9998.646277	4242.601667	1433.670898	92.441612
9998.646277	4242.601667	1432.598633	64.773224
9998.646277	4242.601667	1431.525391	63.209328
9998.646277	4242.601667	1430.452148	-65.426781
9998.646277	4242.601667	1429.378906	71.229195
9998.646277	4242.601667	1428.304688	-1.901209
9998.646277	4242.601667	1427.231445	212.202347
9998.646277	4242.601667	1426.157227	-34.792385
9998.646277	4242.601667	1425.083008	-83.330299
9998.646277	4242.601667	1424.007813	2.665489
9998.646277	4242.601667	1422.933594	-29.142302
9998.646277	4242.601667	1421.858398	-28.274689
9998.646277	4242.601667	1420.783203	-57.711357
9998.646277	4242.601667	1419.708008	-9.476706
9998.646277	4242.601667	1418.631836	-13.294991
9998.646277	4242.601667	1417.555664	-12.502429
9998.646277	4242.601667	1416.479492	-31.042854
9998.646277	4242.601667	1415.403320	88.554932
9998.646277	4242.601667	1414.327148	-102.951263
9998.646277	4242.601667	1413.250000	-23.815355
9998.646277	4242.601667	1412.173828	-44.378582
9998.646277	4242.601667	1411.096680	47.459610
9998.646277	4242.601667	1410.018555	-52.077568
9998.646277	4242.601667	1408.941406	-55.395947
9998.646277	4242.601667	1407.863281	44.154972
9998.646277	4242.601667	1406.785156	31.941826
9998.646277	4242.601667	1405.707031	18.280031
9998.646277	4242.601667	1404.628906	8.398579
9998.646277	4242.601667	1403.549805	29.518343
9998.646277	4242.601667	1402.470703	44.445801
9998.646277	4242.601667	1401.391602	-61.426979
9998.646277	4242.601667	1400.312500	-61.815357
9998.646277	4242.601667	1399.233398	-82.513802
9998.646277	4242.601667	1398.153320	47.033169
9998.646277	4242.601667	1397.073242	-36.119099
9998.646277	4242.601667	1395.993164	-3.241144
9998.646277	4242.601667	1394.913086	-102.158684
9998.646277	4242.601667	1393.832031	-57.953377
9998.646277	4242.601667	1392.750977	91.530624
9998.646277	4242.601667	1391.669922	-132.752151
9998.646277	4242.601667	1390.588867	-137.836884
9998.646277	4242.601667	1389.506836	-83.835419
9998.646277	4242.601667	1388.425781	-79.081337
9998.646277	4242.601667	1387.343750	-32.986237
9998.646277	4242.601667	1386.261719	88.039650
9998.646277	4242.601667	1385.178711	42.158493
9998.646277	4242.601667	1384.096680	89.461807
9998.646277	4242.601667	1383.013672	10.288189
9998.646277	4242.601667	1381.930664	67.716545
9998.646277	4242.601667	1380.846680	93.895950
9998.646277	4242.601667	1379.763672	64.906982
9998.646277	4242.601667	1378.679688	-135.569794
9998.646277	4242.601667	1377.595703	61.537605
9998.646277	4242.601667	1376.511719	33.119713
9998.646277	4242.601667	1375.427734	105.416695
9998.646277	4242.601667	1374.342773	84.145630
9998.646277	4242.601667	1373.257813	59.085903
9998.646277	4242.601667	1372.172852	67.902962
9998.646277	4242.601667	1371.087891	35.209026
9998.646277	4242.601667	1370.001953	33.321846
9998.646277	4242.601667	1368.916992	107.086624
9998.646277	4242.601667	1367.831055	163.133133
9998.646277	4242.601667	1366.744141	81.968643
9998.646277	4242.601667	1365.658203	94.238052
9998.646277	4242.601667	1364.571289	50.581478
9998.646277	4242.601667	1363.484375	67.696060
9998.646277	4242.601667	1362.397461	51.565083
9998.646277	4242.601667	1361.310547	31.364233
9998.646277	4242.601667	1360.222656	21.176584
9998.646277	4242.601667	1359.135742	89.399643
9998.646277	4242.601667	1358.047852	54.219231
9998.646277	4242.601667	1356.958984	102.514694
9998.646277	4242.601667	1355.871094	-3.259966
9998.646277	4242.601667	1354.782227	1.244286
9998.646277	4242.601667	1353.693359	112.521713
9998.646277	4242.601667	1352.604492	81.017509
9998.646277	4242.601667	1351.515625	35.960556
9998.646277	4242.601667	1350.425781	72.682159
9998.646277	4242.601667	1349.335938	3.877175
9998.646277	4242.601667	1348.246094	72.836975
9998.646277	4242.601667	1347.156250	62.549721
9998.646277	4242.601667	1346.066406	165.501602
9998.646277	4242.601667	1344.975586	165.917084
9998.646277	4242.601667	1343.884766	110.186707
9998.646277	4242.601667	1342.793945	109.230263
9998.646277	4242.601667	1341.702148	72.254219
9998.646277	4242.601667	1340.611328	62.286644
9998.646277	4242.601667	1339.519531	44.216213
9998.646277	4242.601667	1338.427734	70.496826
9998.646277	4242.601667	1337.334961	162.856995
9998.646277	4242.601667	1336.243164	19.970623
9998.646277	4242.601667	1335.150391	94.884743
9998.646277	4242.601667	1334.057617	76.008240
9998.646277	4242.601667	1332.964844	33.987934
9998.646277	4242.601667	1331.871094	98.849304
9998.646277	4242.601667	1330.778320	101.444763
9998.646277	4242.601667	1329.684570	60.608643
9998.646277	4242.601667	1328.590820	42.277054
9998.646277	4242.601667	1327.496094	94.984344
9998.646277	4242.601667	1326.402344	115.790771
9998.646277	4242.601667	1325.307617	220.008347
9998.646277	4242.601667	1324.212891	69.249863
9998.646277	4242.601667	1323.117188	149.383240
9998.646277	4242.601667	1322.022461	109.773727
9998.646277	4242.601667	1320.926758	17.195915
9998.646277	4242.601667	1319.831055	69.783012
9998.646277	4242.601667	1318.735352	39.984074
9998.646277	4242.601667	1317.638672	11.519126
9998.646277	4242.601667	1316.542969	127.609711
9998.646277	4242.601667	1315.446289	2.733685
9998.646277	4242.601667	1314.349609	94.291267
9998.646277	4242.601667	1313.251953	-12.974985
9998.646277	4242.601667	1312.155273	34.182201
9998.646277	4242.601667	1311.057617	27.622650
9998.646277	4242.601667	1309.959961	-5.211987
9998.646277	4242.601667	1308.862305	10.558474
9998.646277	4242.601667	1307.763672	43.066811
9998.646277	4242.601667	1306.665039	136.445526
9998.646277	4242.601667	1305.566406	62.263302
9998.646277	4242.601667	1304.467773	187.329498
9998.646277	4242.601667	1303.369141	102.600967
9998.646277	4242.601667	1302.269531	-5.198624
9998.646277	4242.601667	1301.169922	114.090004
9998.646277	4242.601667	1300.070313	6.348988
9998.646277	4242.601667	1298.970703	-12.004880
9998.646277	4242.601667	1297.870117	28.222343
9998.646277	4242.601667	1296.769531	-32.162666
9998.646277	4242.601667	1295.668945	-107.601517
9998.646277	4242.601667	1294.568359	-75.896637
9998.646277	4242.601667	1293.466797	17.763622
9998.646277	4242.601667	1292.366211	-7.238300
9998.646277	4242.601667	1291.264648	45.741161
9998.646277	4242.601667	1290.162109	-41.267876
9998.646277	4242.601667	1289.060547	40.171120
9998.646277	4242.601667	1287.958008	-67.616066
9998.646277	4242.601667	1286.855469	26.351418
9998.646277	4242.601667	1285.752930	15.551882
9998.646277	4242.601667	1284.650391	-18.080795
9998.646277	4242.601667	1283.546875	-119.769012
9998.646277	4242.601667	1282.444336	79.782005
9998.646277	4242.601667	1281.339844	21.207758
9998.646277	4242.601667	1280.236328	46.578873
9998.646277	4242.601667	1279.132813	154.522079
9998.646277	4242.601667	1278.028320	40.849228
9998.646277	4242.601667	1276.923828	121.213402
9998.646277	4242.601667	1275.819336	100.059227
9998.646277	4242.601667	1274.713867	74.755692
9998.646277	4242.601667	1273.608398	34.008591
9998.646277	4242.601667	1272.503906	80.615479
9998.646277	4242.601667	1271.397461	-40.628662
9998.646277	4242.601667	1270.291992	35.053020
9998.646277	4242.601667	1269.185547	159.534561
9998.646277	4242.601667	1268.080078	18.824764
9998.646277	4242.601667	1266.972656	180.339844
9998.646277	4242.601667	1265.866211	111.838478
9998.646277	4242.601667	1264.759766	-23.153072
9998.646277	4242.601667	1263.652344	68.683029
9998.646277	4242.601667	1262.544922	38.154030
9998.646277	4242.601667	1261.436523	11.476213
9998.646277	4242.601667	1260.329102	-34.133724
9998.646277	4242.601667	1259.220703	1.680832
9998.646277	4242.601667	1258.112305	-87.122025
9998.646277	4242.601667	1257.003906	-118.805214
9998.646277	4242.601667	1255.895508	-115.270317
9998.646277	4242.601667	1254.786133	-65.898651
9998.646277	4242.601667	1253.676758	-215.813232
9998.646277	4242.601667	1252.567383	-71.928337
9998.646277	4242.601667	1251.458008	-71.744659
9998.646277	4242.601667	1250.347656	-33.444298
9998.646277	4242.601667	1249.237305	6.512818
9998.646277	4242.601667	1248.126953	11.683105
9998.646277	4242.601667	1247.016602	-126.343811
9998.646277	4242.601667	1245.905273	-120.089828
9998.646277	4242.601667	1244.793945	25.207247
9998.646277	4242.601667	1243.682617	13.037922
9998.646277	4242.601667	1242.571289	13.858034
9998.646277	4242.601667	1241.459961	55.403694
9998.646277	4242.601667	1240.347656	-6.380175
9998.646277	4242.601667	1239.235352	10.599651
9998.646277	4242.601667	1238.123047	79.356140
9998.646277	4242.601667	1237.009766	27.773685
9998.646277	4242.601667	1235.897461	11.617517
9998.646277	4242.601667	1234.784180	-13.354583
9998.646277	4242.601667	1233.670898	4.419823
9998.646277	4242.601667	1232.556641	3.198194
9998.646277	4242.601667	1231.443359	28.445923
9998.646277	4242.601667	1230.329102	-50.154858
9998.646277	4242.601667	1229.214844	27.865496
9998.646277	4242.601667	1228.099609	129.785950
9998.646277	4242.601667	1226.985352	29.615318
9998.646277	4242.601667	1225.870117	43.420536
9998.646277	4242.601667	1224.754883	83.533051
9998.646277	4242.601667	1223.639648	147.721695
9998.646277	4242.601667	1222.523438	72.227837
9998.646277	4242.601667	1221.408203	31.182837
9998.646277	4242.601667	1220.291992	161.757660
9998.646277	4242.601667	1219.174805	112.319283
9998.646277	4242.601667	1218.058594	83.277855
9998.646277	4242.601667	1216.941406	161.561676
9998.646277	4242.601667	1215.824219	162.656982
9998.646277	4242.601667	1214.707031	138.836975
9998.646277	4242.601667	1213.589844	-14.372663
9998.646277	4242.601667	1212.471680	18.106871
9998.646277	4242.601667	1211.353516	112.119698
9998.646277	4242.601667	1210.235352	10.002046
9998.646277	4242.601667	1209.117188	22.749308
9998.646277	4242.601667	1207.998047	-17.827780
9998.646277	4242.601667	1206.878906	57.970383
9998.646277	4242.601667	1205.759766	55.244179
9998.646277	4242.601667	1204.640625	50.880119
9998.646277	4242.601667	1203.520508	-5.130388
9998.646277	4242.601667	1202.401367	14.091553
9998.646277	4242.601667	1201.281250	-42.311874
9998.646277	4242.601667	1200.160156	-24.107479
9998.646277	4242.601667	1199.040039	22.426918
9998.646277	4242.601667	1197.918945	36.482315
9998.646277	4242.601667	1196.797852	13.734406
9998.646277	4242.601667	1195.676758	-29.694454
9998.646277	4242.601667	1194.555664	-45.361095
9998.646277	4242.601667	1193.433594	1.200973
9998.646277	4242.601667	1192.311523	25.217741
9998.646277	4242.601667	1191.189453	40.865772
9998.646277	4242.601667	1190.066406	-19.067640
9998.646277	4242.601667	1188.944336	-15.775321
9998.646277	4242.601667	1187.821289	-57.628311
9998.646277	4242.601667	1186.698242	-39.085167
9998.646277	4242.601667	1185.574219	-34.814178
9998.646277	4242.601667	1184.451172	-26.502279
9998.646277	4242.601667	1183.327148	-100.327660
9998.646277	4242.601667	1182.203125	-46.520832
9998.646277	4242.601667	1181.078125	-123.233498
9998.646277	4242.601667	1179.954102	-52.595905
9998.646277	4242.601667	1178.829102	-27.428860
9998.646277	4242.601667	1177.704102	-24.256310
9998.646277	4242.601667	1176.579102	-25.504698
9998.646277	4242.601667	1175.453125	-58.800350
9998.646277	4242.601667	1174.327148	6.850373
9998.646277	4242.601667	1173.201172	-23.653770
9998.646277	4242.601667	1172.075195	9.214878
9998.646277	4242.601667	1170.949219	-30.113184
9998.646277	4242.601667	1169.822266	3.115092
9998.646277	4242.601667	1168.695313	-68.204277
9998.646277	4242.601667	1167.568359	-181.899338
9998.646277	4242.601667	1166.440430	7.238284
9998.646277	4242.601667	1165.313477	-34.504299
9998.646277	4242.601667	1164.185547	0.437016
9998.646277	4242.601667	1163.057617	29.382599
9998.646277	4242.601667	1161.928711	-90.476547
9998.646277	4242.601667	1160.800781	47.917526
9998.646277	4242.601667	1159.671875	-12.804487
9998.646277	4242.601667	1158.541992	-38.030457
9998.646277	4242.601667	1157.413086	20.785887
9998.646277	4242.601667	1156.283203	-66.860054
9998.646277	4242.601667	1155.154297	36.379303
9998.646277	4242.601667	1154.023438	77.269058
9998.646277	4242.601667	1152.893555	82.381210
9998.646277	4242.601667	1151.763672	18.981443
9998.646277	4242.601667	1150.632813	-47.122101
9998.646277	4242.601667	1149.501953	95.423759
9998.646277	4242.601667	1148.370117	17.116110
9998.646277	4242.601667	1147.239258	7.835849
9998.646277	4242.601667	1146.107422	7.626595
9998.646277	4242.601667	1144.975586	17.387962
9998.646277	4242.601667	1143.843750	50.965523
9998.646277	4242.601667	1142.710938	-58.030884
9998.646277	4242.601667	1141.578125	36.453178
9998.646277	4242.601667	1140.445313	20.805275
9998.646277	4242.601667	1139.312500	-20.223255
9998.646277	4242.601667	1138.178711	-22.328262
9998.646277	4242.601667	1137.045898	68.488998
9998.646277	4242.601667	1135.912109	-40.400848
9998.646277	4242.601667	1134.777344	-60.404198
9998.646277	4242.601667	1133.643555	-12.811800
9998.646277	4242.601667	1132.508789	41.356785
9998.646277	4242.601667	1131.374023	71.003738
9998.646277	4242.601667	1130.239258	80.884811
9998.646277	4242.601667	1129.104492	145.473526
9998.646277	4242.601667	1127.968750	186.632065
9998.646277	4242.601667	1126.833008	117.587860
9998.646277	4242.601667	1125.697266	182.135727
9998.646277	4242.601667	1124.560547	172.311157
9998.646277	4242.601667	1123.424805	195.171265
9998.646277	4242.601667	1122.288086	188.472687
9998.646277	4242.601667	1121.151367	67.219269
9998.646277	4242.601667	1120.013672	80.813187
9998.646277	4242.601667	1118.876953	-11.270891
9998.646277	4242.601667	1117.739258	102.261200
9998.646277	4242.601667	1116.601563	68.299591
9998.646277	4242.601667	1115.462891	52.213699
9998.646277	4242.601667	1114.324219	118.838013
9998.646277	4242.601667	1113.186523	118.261955
9998.646277	4242.601667	1112.046875	43.489880
9998.646277	4242.601667	1110.908203	3.129091
9998.646277	4242.601667	1109.769531	-17.684412
9998.646277	4242.601667	1108.629883	36.868435
9998.646277	4242.601667	1107.490234	1.237930
9998.646277	4242.601667	1106.349609	55.582470
9998.646277	4242.601667	1105.209961	54.936592
9998.646277	4242.601667	1104.069336	15.937963
9998.646277	4242.601667	1102.928711	72.518379
9998.646277	4242.601667	1101.787109	53.445564
9998.646277	4242.601667	1100.646484	111.292259
9998.646277	4242.601667	1099.504883	55.280502
9998.646277	4242.601667	1098.363281	80.309921
9998.646277	4242.601667	1097.221680	34.732998
9998.646277	4242.601667	1096.079102	66.586945
9998.646277	4242.601667	1094.936523	33.345161
9998.646277	4242.601667	1093.793945	11.032742
9998.646277	4242.601667	1092.651367	84.964821
9998.646277	4242.601667	1091.507813	-21.648085
9998.646277	4242.601667	1090.364258	-43.804935
9998.646277	4242.601667	1089.220703	148.499100
9998.646277	4242.601667	1088.077148	130.886566
9998.646277	4242.601667	1086.933594	67.956749
9998.646277	4242.601667	1085.789063	89.599335
9998.646277	4242.601667	1084.644531	109.617928
9998.646277	4242.601667	1083.499023	59.653126
9998.646277	4242.601667	1082.354492	29.240496
9998.646277	4242.601667	1081.208984	70.066071
9998.646277	4242.601667	1080.063477	9.664718
9998.646277	4242.601667	1078.917969	95.007843
9998.646277	4242.601667	1077.771484	76.338791
9998.646277	4242.601667	1076.625977	53.855114
9998.646277	4242.601667	1075.479492	86.418030
9998.646277	4242.601667	1074.332031	22.472315
9998.646277	4242.601667	1073.185547	-11.994611
9998.646277	4242.601667	1072.038086	-45.964127
9998.646277	4242.601667	1070.890625	-7.754529
9998.646277	4242.601667	1069.743164	19.420063
9998.646277	4242.601667	1068.594727	64.146416
9998.646277	4242.601667	1067.447266	66.370338
9998.646277	4242.601667	1066.298828	43.163563
9998.646277	4242.601667	1065.149414	102.447433
9998.646277	4242.601667	1064.000977	80.162956
9998.646277	4242.601667	1062.851563	36.194302
9998.646277	4242.601667	1061.702148	-16.717398
9998.646277	4242.601667	1060.552734	26.990858
9998.646277	4242.601667	1059.402344	65.309799
9998.646277	4242.601667	1058.252930	65.246490
9998.646277	4242.601667	1057.102539	-72.055016
9998.646277	4242.601667	1055.951172	45.832489
9998.646277	4242.601667	1054.800781	7.958161
9998.646277	4242.601667	1053.649414	45.304104
9998.646277	4242.601667	1052.498047	49.442390
9998.646277	4242.601667	1051.346680	13.655265
9998.646277	4242.601667	1050.194336	145.568390
9998.646277	4242.601667	1049.042969	26.546453
9998.646277	4242.601667	1047.890625	254.844666
9998.646277	4242.601667	1046.738281	80.372063
9998.646277	4242.601667	1045.584961	-1.990117
9998.646277	4242.601667	1044.431641	-14.636008
9998.646277	4242.601667	1043.278320	55.815277
9998.646277	4242.601667	1042.125000	-44.131832
9998.646277	4242.601667	1040.971680	-29.716076
9998.646277	4242.601667	1039.817383	153.959579
9998.646277	4242.601667	1038.663086	-5.518926
9998.646277	4242.601667	1037.508789	0.760047
9998.646277	4242.601667	1036.353516	79.434723
9998.646277	4242.601667	1035.198242	36.572258
9998.646277	4242.601667	1034.042969	218.148041
9998.646277	4242.601667	1032.887695	117.520279
9998.646277	4242.601667	1031.732422	128.117233
9998.646277	4242.601667	1030.576172	-5.817713
9998.646277	4242.601667	1029.419922	-2.360630
9998.646277	4242.601667	1028.263672	84.852791
9998.646277	4242.601667	1027.106445	38.010723
9998.646277	4242.601667	1025.949219	86.582298
9998.646277	4242.601667	1024.792969	45.034500
9998.646277	4242.601667	1023.634766	-40.938423
9998.646277	4242.601667	1022.477539	-85.784752
9998.646277	4242.601667	1021.319336	-57.437107
9998.646277	4242.601667	1020.161133	62.107658
9998.646277	4242.601667	1019.002930	-44.416759
9998.646277	4242.601667	1017.843750	82.784668
9998.646277	4242.601667	1016.684570	-33.498989
9998.646277	4242.601667	1015.525391	-20.824072
9998.646277	4242.601667	1014.366211	-71.994705
9998.646277	4242.601667	1013.207031	-37.292564
9998.646277	4242.601667	1012.046875	-58.848934
9998.646277	4242.601667	1010.886719	-101.152771
9998.646277	4242.601667	1009.726563	-35.843159
9998.646277	4242.601667	1008.565430	29.514498
9998.646277	4242.601667	1007.404297	35.411266
9998.646277	4242.601667	1006.243164	9.127249
9998.646277	4242.601667	1005.082031	118.988457
9998.646277	4242.601667	1003.920898	-52.911777
9998.646277	4242.601667	1002.758789	-43.795639
9998.646277	4242.601667	1001.596680	-75.611458
9998.646277	4242.601667	1000.433594	16.819931
9998.646277	4242.601667	999.271484	57.978821
9998.646277	4242.601667	998.108398	50.732716
9998.646277	4242.601667	996.945313	-53.966270
9998.646277	4242.601667	995.782227	-44.477184
9998.646277	4242.601667	994.618164	104.593681
9998.646277	4242.601667	993.454102	114.270744
9998.646277	4242.601667	992.290039	100.042610
9998.646277	4242.601667	991.125977	99.916222
9998.646277	4242.601667	989.960938	38.168285
9998.646277	4242.601667	988.796875	197.414322
9998.646277	4242.601667	987.630859	102.572929
9998.646277	4242.601667	986.465820	4.610453
9998.646277	4242.601667	985.300781	49.008701
9998.646277	4242.601667	984.134766	26.675207
9998.646277	4242.601667	982.968750	138.031708
9998.646277	4242.601667	981.801758	40.125122
9998.646277	4242.601667	980.635742	50.230534
9998.646277	4242.601667	979.468750	96.949020
9998.646277	4242.601667	978.301758	93.489944
9998.646277	4242.601667	977.133789	25.692436
9998.646277	4242.601667	975.966797	95.599968
9998.646277	4242.601667	974.798828	66.515678
9998.646277	4242.601667	973.630859	53.190983
9998.646277	4242.601667	972.461914	128.337280
9998.646277	4242.601667	971.293945	87.418526
9998.646277	4242.601667	970.125000	105.094002
9998.646277	4242.601667	968.956055	106.869057
9998.646277	4242.601667	967.786133	41.353741
9998.646277	4242.601667	966.617188	-32.076054
9998.646277	4242.601667	965.447266	3.962279
9998.646277	4242.601667	964.276367	-75.442810
9998.646277	4242.601667	963.106445	-151.607513
9998.646277	4242.601667	961.935547	14.121470
9998.646277	4242.601667	960.764648	10.814249
9998.646277	4242.601667	959.593750	31.295147
9998.646277	4242.601667	958.422852	-34.718689
9998.646277	4242.601667	957.250977	-52.564541
9998.646277	4242.601667	956.079102	-70.661034
9998.646277	4242.601667	954.907227	-30.399912
9998.646277	4242.601667	953.734375	-82.452461
9998.646277	4242.601667	952.562500	32.765663
9998.646277	4242.601667	951.389648	-34.841160
9998.646277	4242.601667	950.215820	62.294537
9998.646277	4242.601667	949.042969	19.487360
9998.646277	4242.601667	947.869141	-52.701366
9998.646277	4242.601667	946.695313	44.466774
9998.646277	4242.601667	945.521484	5.889593
9998.646277	4242.601667	944.346680	12.826651
9998.646277	4242.601667	943.172852	-111.432518
9998.646277	4242.601667	941.998047	-25.673826
9998.646277	4242.601667	940.822266	-12.196511
9998.646277	4242.601667	939.647461	86.917908
9998.646277	4242.601667	938.471680	-34.753727
9998.646277	4242.601667	937.295898	-43.943413
9998.646277	4242.601667	936.119141	39.531708
9998.646277	4242.601667	934.943359	34.987144
9998.646277	4242.601667	933.766602	-3.399499
9998.646277	4242.601667	932.589844	14.527515
9998.646277	4242.601667	931.413086	32.546608
9998.646277	4242.601667	930.235352	-55.526337
9998.646277	4242.601667	929.057617	57.130928
9998.646277	4242.601667	927.879883	156.237259
9998.646277	4242.601667	926.702148	111.015900
9998.646277	4242.601667	925.523438	-44.637211
9998.646277	4242.601667	924.344727	-60.510159
9998.646277	4242.601667	923.166016	67.818550
9998.646277	4242.601667	921.987305	49.663715
9998.646277	4242.601667	920.807617	-0.028471
9998.646277	4242.601667	919.627930	0.626793
9998.646277	4242.601667	919.497070	53.966537
9998.646277	4242.601667	918.331055	35.798820
9998.646277	4242.601667	917.165039	-135.453476
9998.646277	4242.601667	915.999023	-63.555149
9998.646277	4242.601667	914.833008	19.560051
9998.646277	4242.601667	913.666016	-50.356533
9998.646277	4242.601667	912.499023	-34.771648
9998.646277	4242.601667	911.332031	140.478378
9998.646277	4242.601667	910.165039	77.308662
9998.646277	4242.601667	908.997070	36.640450
9998.646277	4242.601667	907.830078	94.877609
9998.646277	4242.601667	906.661133	78.930901
9998.646277	4242.601667	905.493164	83.205162
9998.646277	4242.601667	904.325195	-45.054878
9998.646277	4242.601667	903.156250	49.064182
9998.646277	4242.601667	901.987305	-14.032058
9998.646277	4242.601667	900.818359	8.197257
9998.646277	4242.601667	899.648438	50.612778
9998.646277	4242.601667	898.478516	104.226082
9998.646277	4242.601667	897.308594	-145.057739
9998.646277	4242.601667	896.138672	27.444765
9998.646277	4242.601667	894.968750	72.046158
9998.646277	4242.601667	893.797852	82.993538
9998.646277	4242.601667	892.626953	192.565094
9998.646277	4242.601667	891.456055	4.008220
9998.646277	4242.601667	890.284180	30.635674
9998.646277	4242.601667	889.113281	90.851921
9998.646277	4242.601667	887.941406	106.243607
9998.646277	4242.601667	886.768555	157.455063
9998.646277	4242.601667	885.596680	7.139554
9998.646277	4242.601667	884.423828	44.912014
9998.646277	4242.601667	883.250977	82.665146
9998.646277	4242.601667	882.078125	68.935631
9998.646277	4242.601667	880.905273	86.527489
9998.646277	4242.601667	879.731445	43.719753
9998.646277	4242.601667	878.557617	88.136581
9998.646277	4242.601667	877.383789	83.346138
9998.646277	4242.601667	876.209961	-86.854393
9998.646277	4242.601667	875.035156	51.413364
9998.646277	4242.601667	873.860352	44.389053
9998.646277	4242.601667	872.685547	-20.716339
9998.646277	4242.601667	871.510742	43.740059
9998.646277	4242.601667	870.334961	-1.247904
9998.646277	4242.601667	869.159180	52.009365
9998.646277	4242.601667	867.983398	62.832954
9998.646277	4242.601667	866.807617	78.112312
9998.646277	4242.601667	865.630859	26.448452
9998.646277	4242.601667	864.454102	30.570026
9998.646277	4242.601667	863.277344	-63.443089
9998.646277	4242.601667	862.100586	-14.715610
9998.646277	4242.601667	860.922852	9.466977
9998.646277	4242.601667	859.745117	38.094566
9998.646277	4242.601667	858.567383	15.454303
9998.646277	4242.601667	857.389648	52.974926
9998.646277	4242.601667	856.210938	-7.531165
9998.646277	4242.601667	855.032227	-65.788422
9998.646277	4242.601667	853.853516	-14.922808
9998.646277	4242.601667	852.674805	4.753701
9998.646277	4242.601667	851.495117	-95.765121
9998.646277	4242.601667	850.315430	93.029671
9998.646277	4242.601667	849.135742	52.596352
9998.646277	4242.601667	847.956055	74.456902
9998.646277	4242.601667	846.775391	31.815298
9998.646277	4242.601667	845.595703	-99.746368
9998.646277	4242.601667	844.415039	119.963257
9998.646277	4242.601667	843.233398	77.330910
9998.646277	4242.601667	842.052734	119.149139
9998.646277	4242.601667	840.871094	34.320217
9998.646277	4242.601667	839.689453	45.030102
9998.646277	4242.601667	838.506836	-88.607353
9998.646277	4242.601667	837.325195	-46.799599
9998.646277	4242.601667	836.142578	-38.306721
9998.646277	4242.601667	834.959961	-0.969870
9998.646277	4242.601667	833.777344	38.567879
9998.646277	4242.601667	832.593750	-15.083300
9998.646277	4242.601667	831.410156	-75.368561
9998.646277	4242.601667	830.226563	1.848556
9998.646277	4242.601667	829.042969	70.163498
9998.646277	4242.601667	827.858398	5.457174
9998.646277	4242.601667	826.673828	-43.712643
9998.646277	4242.601667	825.489258	-75.140404
9998.646277	4242.601667	824.304688	83.944382
9998.646277	4242.601667	823.120117	-25.016176
9998.646277	4242.601667	821.934570	27.704514
9998.646277	4242.601667	820.749023	122.462082
9998.646277	4242.601667	819.562500	-26.286427
9998.646277	4242.601667	818.376953	-37.779663
9998.646277	4242.601667	817.190430	-66.969955
9998.646277	4242.601667	816.003906	69.744652
9998.646277	4242.601667	814.817383	-39.075317
9998.646277	4242.601667	813.629883	-46.145695
9998.646277	4242.601667	812.442383	-79.743172
9998.646277	4242.601667	811.254883	-95.648788
9998.646277	4242.601667	810.067383	45.334660
9998.646277	4242.601667	808.878906	-36.872673
9998.646277	4242.601667	807.690430	11.266974
9998.646277	4242.601667	806.501953	-46.614857
9998.646277	4242.601667	805.313477	27.994230
9998.646277	4242.601667	804.124023	-23.251505
9998.646277	4242.601667	802.934570	18.211092
9998.646277	4242.601667	801.745117	-4.334347
9998.646277	4242.601667	800.555664	21.658258
9998.646277	4242.601667	799.365234	175.558243
9998.646277	4242.601667	798.175781	130.932159
9998.646277	4242.601667	796.985352	-10.683153
9998.646277	4242.601667	795.793945	94.625046
9998.646277	4242.601667	794.603516	58.846684
9998.646277	4242.601667	793.412109	-5.562996
9998.646277	4242.601667	792.220703	75.435486
9998.646277	4242.601667	791.028320	-46.220215
9998.646277	4242.601667	789.836914	-7.091677
9998.646277	4242.601667	788.644531	131.081482
9998.646277	4242.601667	787.452148	64.501358
9998.646277	4242.601667	786.258789	-28.461811
9998.646277	4242.601667	785.066406	78.815239
9998.646277	4242.601667	783.873047	-60.313641
9998.646277	4242.601667	782.679688	-30.054560
9998.646277	4242.601667	781.485352	63.949768
9998.646277	4242.601667	780.291992	21.618769
9998.646277	4242.601667	779.097656	27.651718
9998.646277	4242.601667	777.903320	-89.373795
9998.646277	4242.601667	776.708008	-15.227467
9998.646277	4242.601667	775.512695	120.382408
9998.646277	4242.601667	774.318359	108.800537
9998.646277	4242.601667	773.122070	88.436256
9998.646277	4242.601667	771.926758	61.489388
9998.646277	4242.601667	770.730469	-4.954632
9998.646277	4242.601667	769.534180	-18.717859
9998.646277	4242.601667	768.337891	20.167130
9998.646277	4242.601667	767.141602	111.667259
9998.646277	4242.601667	765.944336	121.990822
9998.646277	4242.601667	764.747070	70.918541
9998.646277	4242.601667	763.549805	41.779671
9998.646277	4242.601667	762.351563	185.767319
9998.646277	4242.601667	761.154297	325.305908
9998.646277	4242.601667	759.956055	103.348976
9998.646277	4242.601667	758.757813	118.001213
9998.646277	4242.601667	757.558594	115.123459
9998.646277	4242.601667	756.359375	99.104881
9998.646277	4242.601667	755.160156	166.254913
9998.646277	4242.601667	753.960938	231.181122
9998.646277	4242.601667	752.761719	206.374802
9998.646277	4242.601667	751.561523	150.948959
9998.646277	4242.601667	750.361328	123.967102
9998.646277	4242.601667	749.160156	59.819767
9998.646277	4242.601667	747.959961	164.007690
9998.646277	4242.601667	746.758789	69.265694
9998.646277	4242.601667	745.557617	162.466171
9998.646277	4242.601667	744.356445	257.803802
9998.646277	4242.601667	743.154297	130.313843
9998.646277	4242.601667	741.952148	-29.886639
9998.646277	4242.601667	740.750000	176.747589
9998.646277	4242.601667	739.547852	134.454208
9998.646277	4242.601667	738.344727	-1.669284
9998.646277	4242.601667	737.142578	100.073746
9998.646277	4242.601667	735.939453	199.583298
9998.646277	4242.601667	734.735352	161.643631
9998.646277	4242.601667	733.532227	67.018082
9998.646277	4242.601667	732.328125	70.521858
9998.646277	4242.601667	731.124023	130.682449
9998.646277	4242.601667	729.918945	49.166138
9998.646277	4242.601667	728.714844	72.248291
9998.646277	4242.601667	727.509766	145.407883
9998.646277	4242.601667	726.303711	-73.289330
9998.646277	4242.601667	725.098633	102.180084
9998.646277	4242.601667	723.892578	-66.372169
9998.646277	4242.601667	722.686523	63.296265
9998.646277	4242.601667	721.480469	81.927673
9998.646277	4242.601667	720.274414	-32.162651
9998.646277	4242.601667	719.067383	6.032320
9998.646277	4242.601667	717.860352	26.802843
9998.646277	4242.601667	716.653320	62.771332
9998.646277	4242.601667	715.445313	9.593473
9998.646277	4242.601667	714.238281	32.486729
9998.646277	4242.601667	713.030273	-16.342115
9998.646277	4242.601667	711.821289	-41.268482
9998.646277	4242.601667	710.613281	148.811615
9998.646277	4242.601667	709.404297	17.438906
9998.646277	4242.601667	708.195313	35.899551
9998.646277	4242.601667	706.986328	-80.227982
9998.646277	4242.601667	705.776367	-7.531966
9998.646277	4242.601667	704.566406	23.898800
9998.646277	4242.601667	703.356445	-35.798622
9998.646277	4242.601667	702.146484	45.474991
9998.646277	4242.601667	700.935547	-22.903116
9998.646277	4242.601667	699.724609	-43.577106
9998.646277	4242.601667	698.513672	104.788574
9998.646277	4242.601667	697.302734	66.732834
9998.646277	4242.601667	696.090820	117.497879
9998.646277	4242.601667	694.878906	-48.362175
9998.646277	4242.601667	693.666992	-51.760059
9998.646277	4242.601667	692.455078	-120.121208
9998.646277	4242.601667	691.242188	-73.749619
9998.646277	4242.601667	690.029297	-64.202438
9998.646277	4242.601667	688.816406	-13.566229
9998.646277	4242.601667	687.602539	-49.493900
9998.646277	4242.601667	686.389648	-18.378304
9998.646277	4242.601667	685.175781	38.654564
9998.646277	4242.601667	683.960938	37.278358
9998.646277	4242.601667	682.747070	-57.051064
9998.646277	4242.601667	681.532227	-8.739311
9998.646277	4242.601667	680.317383	71.941490
9998.646277	4242.601667	679.102539	14.333244
9998.646277	4242.601667	677.886719	6.400884
9998.646277	4242.601667	676.670898	61.067142
9998.646277	4242.601667	675.455078	85.472763
9998.646277	4242.601667	674.239258	96.901558
9998.646277	4242.601667	673.022461	106.149712
9998.646277	4242.601667	671.805664	18.300406
9998.646277	4242.601667	670.588867	25.368917
9998.646277	4242.601667	669.372070	58.292381
9998.646277	4242.601667	668.154297	67.468483
9998.646277	4242.601667	666.936523	44.291279
9998.646277	4242.601667	665.718750	156.868576
9998.646277	4242.601667	664.500977	-21.479931
9998.646277	4242.601667	663.282227	196.575058
9998.646277	4242.601667	662.063477	89.324623
9998.646277	4242.601667	660.844727	55.307732
9998.646277	4242.601667	659.625000	8.369244
9998.646277	4242.601667	658.405273	34.607918
9998.646277	4242.601667	657.185547	45.753643
9998.646277	4242.601667	655.965820	50.421558
9998.646277	4242.601667	654.745117	35.709415
9998.646277	4242.601667	653.525391	-4.820508
9998.646277	4242.601667	652.303711	85.793869
9998.646277	4242.601667	651.083008	114.014870
9998.646277	4242.601667	649.861328	36.899326
9998.646277	4242.601667	648.640625	37.147358
9998.646277	4242.601667	647.417969	15.892012
9998.646277	4242.601667	646.196289	-9.668850
9998.646277	4242.601667	644.973633	-63.154274
9998.646277	4242.601667	643.750977	7.876746
9998.646277	4242.601667	642.528320	3.735431
9998.646277	4242.601667	641.305664	96.140472
9998.646277	4242.601667	640.082031	134.849121
9998.646277	4242.601667	638.858398	98.446777
9998.646277	4242.601667	637.634766	173.554214
9998.646277	4242.601667	636.410156	77.082954
9998.646277	4242.601667	635.185547	113.535683
9998.646277	4242.601667	633.960938	147.809311
9998.646277	4242.601667	632.736328	128.479736
9998.646277	4242.601667	631.510742	102.709663
9998.646277	4242.601667	630.285156	81.213249
9998.646277	4242.601667	629.059570	70.411842
9998.646277	4242.601667	627.833984	31.762230
9998.646277	4242.601667	626.607422	-32.578331
9998.646277	4242.601667	625.380859	-22.013269
9998.646277	4242.601667	624.154297	44.153934
9998.646277	4242.601667	622.927734	5.457213
9998.646277	4242.601667	621.700195	65.131180
9998.646277	4242.601667	620.472656	152.554947
9998.646277	4242.601667	619.245117	73.178711
9998.646277	4242.601667	618.016602	-63.892334
9998.646277	4242.601667	616.788086	-68.444305
9998.646277	4242.601667	615.559570	-6.788704
9998.646277	4242.601667	614.331055	27.052753
9998.646277	4242.601667	613.101563	-18.153908
9998.646277	4242.601667	611.872070	15.631945
9998.646277	4242.601667	610.642578	32.305847
9998.646277	4242.601667	609.413086	-111.104576
9998.646277	4242.601667	608.182617	20.761866
9998.646277	4242.601667	606.952148	97.088219
9998.646277	4242.601667	605.721680	11.274422
9998.646277	4242.601667	604.491211	15.031228
9998.646277	4242.601667	603.259766	80.586479
9998.646277	4242.601667	602.028320	33.130859
9998.646277	4242.601667	600.796875	21.900038
9998.646277	4242.601667	599.564453	-83.088638
9998.646277	4242.601667	598.332031	22.816780
9998.646277	4242.601667	597.099609	-92.816750
9998.646277	4242.601667	595.867188	100.297226
9998.646277	4242.601667	594.633789	-8.960449
9998.646277	4242.601667	593.400391	-28.808371
9998.646277	4242.601667	592.166992	47.079967
9998.646277	4242.601667	590.933594	182.479568
9998.646277	4242.601667	589.699219	90.228485
9998.646277	4242.601667	588.464844	-12.635684
9998.646277	4242.601667	587.230469	82.235069
9998.646277	4242.601667	585.995117	-71.636414
9998.646277	4242.601667	584.760742	-25.709074
9998.646277	4242.601667	583.525391	58.419346
9998.646277	4242.601667	582.289063	-29.562840
9998.646277	4242.601667	581.053711	22.636250
9998.646277	4242.601667	579.817383	-20.752338
9998.646277	4242.601667	578.581055	-36.546329
9998.646277	4242.601667	577.343750	108.940384
9998.646277	4242.601667	576.107422	16.700485
9998.646277	4242.601667	574.870117	58.127045
9998.646277	4242.601667	573.631836	42.249702
9998.646277	4242.601667	572.394531	81.494843
9998.646277	4242.601667	571.156250	122.822838
9998.646277	4242.601667	569.917969	49.657055
9998.646277	4242.601667	568.679688	23.124846
9998.646277	4242.601667	567.440430	51.669804
9998.646277	4242.601667	566.202148	-17.251995
9998.646277	4242.601667	564.961914	-1.455159
9998.646277	4242.601667	563.722656	-0.502175
9998.646277	4242.601667	562.482422	108.391136
9998.646277	4242.601667	561.243164	-2.884944
9998.646277	4242.601667	560.001953	-50.655670
9998.646277	4242.601667	558.761719	32.741001
9998.646277	4242.601667	557.520508	-6.590765
9998.646277	4242.601667	556.279297	114.787949
9998.646277	4242.601667	555.038086	-76.796974
9998.646277	4242.601667	553.795898	17.032028
9998.646277	4242.601667	552.554688	60.088520
9998.646277	4242.601667	551.311523	-57.466412
9998.646277	4242.601667	550.069336	38.362309
9998.646277	4242.601667	548.826172	-43.266617
9998.646277	4242.601667	547.583984	158.059586
9998.646277	4242.601667	546.339844	82.739929
9998.646277	4242.601667	545.096680	24.324060
9998.646277	4242.601667	543.852539	33.439110
9998.646277	4242.601667	542.608398	-52.398216
9998.646277	4242.601667	541.364258	-43.299522
9998.646277	4242.601667	540.119141	37.475700
9998.646277	4242.601667	538.875000	-60.999458
9998.646277	4242.601667	537.628906	40.793179
9998.646277	4242.601667	536.383789	-28.166578
9998.646277	4242.601667	535.137695	-0.193872
9998.646277	4242.601667	533.892578	-73.355186
9998.646277	4242.601667	532.645508	-11.716678
9998.646277	4242.601667	531.399414	56.201572
9998.646277	4242.601667	530.152344	-50.649296
9998.646277	4242.601667	528.905273	-8.035185
9998.646277	4242.601667	527.658203	-45.411690
9998.646277	4242.601667	526.410156	-133.276688
9998.646277	4242.601667	525.163086	-86.501465
9998.646277	4242.601667	523.914063	-119.670929
9998.646277	4242.601667	522.666016	38.484074
9998.646277	4242.601667	521.416992	-32.555901
9998.646277	4242.601667	520.167969	-30.023504
9998.646277	4242.601667	518.918945	-23.301102
9998.646277	4242.601667	517.669922	-3.988106
9998.646277	4242.601667	516.419922	-28.799511
9998.646277	4242.601667	515.169922	61.873360
9998.646277	4242.601667	513.919922	-32.237370
9998.646277	4242.601667	512.668945	-50.762749
9998.646277	4242.601667	511.417969	-65.093109
9998.646277	4242.601667	510.166992	-56.350098
9998.646277	4242.601667	508.916016	-9.865831
9998.646277	4242.601667	507.664063	-91.330231
9998.646277	4242.601667	506.412109	95.590012
9998.646277	4242.601667	505.160156	62.330341
9998.646277	4242.601667	503.907227	10.213011
9998.646277	4242.601667	502.655273	12.586621
9998.646277	4242.601667	501.402344	31.706835
9998.646277	4242.601667	500.148438	6.827667
9998.646277	4242.601667	498.895508	-3.389774
9998.646277	4242.601667	497.641602	-1.053160
9998.646277	4242.601667	496.387695	78.713516
9998.646277	4242.601667	495.132813	43.348381
9998.646277	4242.601667	493.878906	129.331390
9998.646277	4242.601667	492.624023	16.565556
9998.646277	4242.601667	491.368164	-54.338749
9998.646277	4242.601667	490.113281	62.944149
9998.646277	4242.601667	488.857422	52.661903
9998.646277	4242.601667	487.601563	107.159721
9998.646277	4242.601667	486.344727	67.603165
9998.646277	4242.601667	485.088867	57.303715
9998.646277	4242.601667	483.832031	-51.159019
9998.646277	4242.601667	482.575195	32.512768
9998.646277	4242.601667	481.317383	-29.989565
9998.646277	4242.601667	480.059570	57.797791
9998.646277	4242.601667	478.801758	72.506599
9998.646277	4242.601667	477.543945	72.598206
9998.646277	4242.601667	476.285156	26.792189
9998.646277	4242.601667	475.027344	49.815048
9998.646277	4242.601667	473.767578	-79.378616
9998.646277	4242.601667	472.508789	-0.083548
9998.646277	4242.601667	471.249023	85.417526
9998.646277	4242.601667	469.989258	-4.140450
9998.646277	4242.601667	468.729492	89.638794
9998.646277	4242.601667	467.469727	43.834606
9998.646277	4242.601667	466.208984	14.694702
9998.646277	4242.601667	464.948242	-8.197156
9998.646277	4242.601667	463.686523	-20.686087
9998.646277	4242.601667	462.425781	6.357626
9998.646277	4242.601667	461.164063	149.875351
9998.646277	4242.601667	459.901367	-22.827181
9998.646277	4242.601667	458.639648	-16.631987
9998.646277	4242.601667	457.376953	120.522774
9998.646277	4242.601667	456.114258	31.043480
9998.646277	4242.601667	454.851563	-81.269081
9998.646277	4242.601667	453.587891	20.448181
9998.646277	4242.601667	452.324219	-98.076141
9998.646277	4242.601667	451.060547	59.643707
9998.646277	4242.601667	449.796875	80.244308
9998.646277	4242.601667	448.532227	26.086163
9998.646277	4242.601667	447.267578	-48.819523
9998.646277	4242.601667	446.002930	90.009933
9998.646277	4242.601667	444.737305	-16.033371
9998.646277	4242.601667	443.471680	87.429855
9998.646277	4242.601667	442.206055	31.160028
9998.646277	4242.601667	440.940430	117.942413
9998.646277	4242.601667	439.673828	84.444771
9998.646277	4242.601667	438.407227	102.746010
9998.646277	4242.601667	437.140625	-94.453682
9998.646277	4242.601667	435.873047	10.824305
9998.646277	4242.601667	434.605469	31.122669
9998.646277	4242.601667	433.337891	117.640488
9998.646277	4242.601667	432.070313	24.000635
9998.646277	4242.601667	430.801758	42.126278
9998.646277	4242.601667	429.533203	101.595650
9998.646277	4242.601667	428.264648	136.182831
9998.646277	4242.601667	426.996094	-40.237064
9998.646277	4242.601667	425.726563	95.615784
9998.646277	4242.601667	424.457031	156.949860
9998.646277	4242.601667	423.186523	98.337273
9998.646277	4242.601667	421.916992	8.716567
9998.646277	4242.601667	420.646484	65.775848
9998.646277	4242.601667	419.375977	71.129234
9998.646277	4242.601667	418.104492	105.343636
9998.646277	4242.601667	416.833008	263.374908
9998.646277	4242.601667	415.561523	91.018524
9998.646277	4242.601667	414.290039	170.463501
9998.646277	4242.601667	413.017578	101.260712
9998.646277	4242.601667	411.746094	190.876053
9998.646277	4242.601667	410.472656	94.772980
9998.646277	4242.601667	409.200195	-15.777503
9998.646277	4242.601667	407.926758	187.004593
9998.646277	4242.601667	406.653320	-32.882637
9998.646277	4242.601667	405.379883	72.836731
9998.646277	4242.601667	404.105469	135.174164
9998.646277	4242.601667	402.831055	123.263405
9998.646277	4242.601667	401.556641	35.090599
9998.646277	4242.601667	400.282227	18.938168
9998.646277	4242.601667	399.006836	-15.815770
9998.646277	4242.601667	397.731445	64.606956
9998.646277	4242.601667	396.456055	48.206795
9998.646277	4242.601667	395.179688	91.375565
9998.646277	4242.601667	393.903320	152.942627
9998.646277	4242.601667	392.626953	54.008263
9998.646277	4242.601667	391.350586	4.355251
9998.646277	4242.601667	390.073242	10.108653
9998.646277	4242.601667	388.795898	3.424877
9998.646277	4242.601667	387.518555	76.753906
9998.646277	4242.601667	386.240234	14.375523
9998.646277	4242.601667	384.961914	-4.970441
9998.646277	4242.601667	383.683594	41.266766
9998.646277	4242.601667	382.405273	52.464939
9998.646277	4242.601667	381.125977	-49.343029
9998.646277	4242.601667	379.846680	-40.451080
9998.646277	4242.601667	378.567383	66.757996
9998.646277	4242.601667	377.287109	40.470734
9998.646277	4242.601667	376.006836	-6.456469
9998.646277	4242.601667	374.726563	36.679180
9998.646277	4242.601667	373.446289	-8.488006
9998.646277	4242.601667	372.165039	-92.735336
9998.646277	4242.601667	370.883789	-68.540939
9998.646277	4242.601667	369.602539	-7.664427
9998.646277	4242.601667	368.320313	-57.573353
9998.646277	4242.601667	367.039063	-103.544762
9998.646277	4242.601667	365.755859	40.650311
9998.646277	4242.601667	364.473633	43.396500
9998.646277	4242.601667	363.190430	-17.490622
9998.646277	4242.601667	361.907227	9.394095
9998.646277	4242.601667	360.624023	23.782244
9998.646277	4242.601667	359.340820	-37.706059
9998.646277	4242.601667	358.056641	37.551544
9998.646277	4242.601667	356.772461	6.271744
9998.646277	4242.601667	355.487305	103.477097
9998.646277	4242.601667	354.202148	71.696808
9998.646277	4242.601667	352.916992	13.122958
9998.646277	4242.601667	351.631836	13.525103
9998.646277	4242.601667	350.346680	-65.960670
9998.646277	4242.601667	349.060547	-15.077308
9998.646277	4242.601667	347.774414	47.738693
9998.646277	4242.601667	346.487305	157.144958
9998.646277	4242.601667	345.200195	31.638615
9998.646277	4242.601667	343.913086	5.794809
9998.646277	4242.601667	342.625977	-24.437492
9998.646277	4242.601667	341.338867	-59.063606
9998.646277	4242.601667	340.050781	11.943529
9998.646277	4242.601667	338.762695	-90.610634
9998.646277	4242.601667	337.473633	-91.641373
9998.646277	4242.601667	336.184570	6.749132
9998.646277	4242.601667	334.895508	37.526237
9998.646277	4242.601667	333.606445	0.723941
9998.646277	4242.601667	332.317383	40.876026
9998.646277	4242.601667	331.027344	-23.185308
9998.646277	4242.601667	329.736328	97.469322
9998.646277	4242.601667	328.446289	26.467499
9998.646277	4242.601667	327.155273	44.509682
9998.646277	4242.601667	325.864258	-7.033067
9998.646277	4242.601667	324.573242	107.646568
9998.646277	4242.601667	323.281250	-115.545975
9998.646277	4242.601667	321.989258	-81.113869
9998.646277	4242.601667	320.697266	-30.952688
9998.646277	4242.601667	319.405273	32.884056
9998.646277	4242.601667	318.112305	92.084900
9998.646277	4242.601667	316.819336	18.773102
9998.646277	4242.601667	315.526367	-48.976746
9998.646277	4242.601667	314.232422	-76.706665
9998.646277	4242.601667	312.938477	-3.585017
9998.646277	4242.601667	311.644531	119.605537
9998.646277	4242.601667	310.349609	140.724579
9998.646277	4242.601667	309.054688	181.473831
9998.646277	4242.601667	307.759766	183.049728
9998.646277	4242.601667	306.464844	155.592789
9998.646277	4242.601667	305.168945	188.225555
9998.646277	4242.601667	303.873047	122.926331
9998.646277	4242.601667	302.577148	206.792694
9998.646277	4242.601667	301.281250	257.500519
9998.646277	4242.601667	299.984375	204.187088
