#X		#Y		#Wave		#Intensity
9351.149468	5041.316667	1999.946289	13.479382
9351.149468	5041.316667	1998.981445	-44.926052
9351.149468	5041.316667	1998.017578	-34.509533
9351.149468	5041.316667	1997.052734	-4.133018
9351.149468	5041.316667	1996.088867	-42.999809
9351.149468	5041.316667	1995.124023	32.229805
9351.149468	5041.316667	1994.159180	10.970064
9351.149468	5041.316667	1993.193359	34.415604
9351.149468	5041.316667	1992.228516	-8.867902
9351.149468	5041.316667	1991.262695	2.439849
9351.149468	5041.316667	1990.296875	28.709639
9351.149468	5041.316667	1989.331055	-21.624531
9351.149468	5041.316667	1988.365234	44.446857
9351.149468	5041.316667	1987.398438	-5.657303
9351.149468	5041.316667	1986.432617	-21.014185
9351.149468	5041.316667	1985.465820	15.657525
9351.149468	5041.316667	1984.499023	-51.416946
9351.149468	5041.316667	1983.532227	67.003929
9351.149468	5041.316667	1982.565430	91.565315
9351.149468	5041.316667	1981.597656	-17.216990
9351.149468	5041.316667	1980.629883	2.582533
9351.149468	5041.316667	1979.662109	19.987637
9351.149468	5041.316667	1978.694336	-21.798656
9351.149468	5041.316667	1977.726563	104.394989
9351.149468	5041.316667	1976.758789	-16.230976
9351.149468	5041.316667	1975.790039	18.743889
9351.149468	5041.316667	1974.821289	26.631901
9351.149468	5041.316667	1973.852539	123.400276
9351.149468	5041.316667	1972.883789	47.532406
9351.149468	5041.316667	1971.915039	90.131844
9351.149468	5041.316667	1970.945313	-42.291759
9351.149468	5041.316667	1969.975586	7.821643
9351.149468	5041.316667	1969.005859	-33.226002
9351.149468	5041.316667	1968.036133	66.263313
9351.149468	5041.316667	1967.066406	136.200272
9351.149468	5041.316667	1966.096680	-30.329567
9351.149468	5041.316667	1965.125977	-12.027118
9351.149468	5041.316667	1964.155273	6.313856
9351.149468	5041.316667	1963.184570	27.153311
9351.149468	5041.316667	1962.213867	25.872635
9351.149468	5041.316667	1961.242188	-54.125458
9351.149468	5041.316667	1960.271484	60.339554
9351.149468	5041.316667	1959.299805	-9.720085
9351.149468	5041.316667	1958.328125	-5.926019
9351.149468	5041.316667	1957.356445	64.301605
9351.149468	5041.316667	1956.384766	60.768257
9351.149468	5041.316667	1955.412109	-14.028406
9351.149468	5041.316667	1954.439453	66.081741
9351.149468	5041.316667	1953.467773	-33.207809
9351.149468	5041.316667	1952.495117	113.267525
9351.149468	5041.316667	1951.521484	112.317406
9351.149468	5041.316667	1950.548828	-35.977230
9351.149468	5041.316667	1949.575195	-46.678841
9351.149468	5041.316667	1948.601563	-40.170204
9351.149468	5041.316667	1947.627930	-23.827143
9351.149468	5041.316667	1946.654297	-61.467339
9351.149468	5041.316667	1945.680664	35.883312
9351.149468	5041.316667	1944.706055	-11.537405
9351.149468	5041.316667	1943.732422	-31.944706
9351.149468	5041.316667	1942.757813	-13.092705
9351.149468	5041.316667	1941.783203	-18.756647
9351.149468	5041.316667	1940.807617	-4.795748
9351.149468	5041.316667	1939.833008	70.446152
9351.149468	5041.316667	1938.857422	23.136284
9351.149468	5041.316667	1937.881836	-105.004913
9351.149468	5041.316667	1936.906250	-76.309692
9351.149468	5041.316667	1935.930664	-59.866383
9351.149468	5041.316667	1934.955078	81.464737
9351.149468	5041.316667	1933.978516	78.293449
9351.149468	5041.316667	1933.001953	62.886681
9351.149468	5041.316667	1932.025391	-13.699014
9351.149468	5041.316667	1931.048828	22.306328
9351.149468	5041.316667	1930.072266	146.373856
9351.149468	5041.316667	1929.094727	47.801979
9351.149468	5041.316667	1928.118164	-26.278564
9351.149468	5041.316667	1927.140625	-41.649349
9351.149468	5041.316667	1926.163086	-118.134590
9351.149468	5041.316667	1925.184570	-89.491722
9351.149468	5041.316667	1924.207031	51.551239
9351.149468	5041.316667	1923.228516	-76.230339
9351.149468	5041.316667	1922.250000	6.118972
9351.149468	5041.316667	1921.271484	10.274148
9351.149468	5041.316667	1920.292969	-61.279751
9351.149468	5041.316667	1919.314453	23.443573
9351.149468	5041.316667	1918.334961	-21.248255
9351.149468	5041.316667	1917.355469	4.846898
9351.149468	5041.316667	1916.375977	116.329155
9351.149468	5041.316667	1915.396484	-8.889319
9351.149468	5041.316667	1914.416992	112.293587
9351.149468	5041.316667	1913.436523	133.431656
9351.149468	5041.316667	1912.457031	-72.213020
9351.149468	5041.316667	1911.476563	-16.938473
9351.149468	5041.316667	1910.496094	116.302589
9351.149468	5041.316667	1909.515625	120.324028
9351.149468	5041.316667	1908.534180	92.657684
9351.149468	5041.316667	1907.552734	77.170494
9351.149468	5041.316667	1906.572266	-74.716095
9351.149468	5041.316667	1905.590820	77.835091
9351.149468	5041.316667	1904.608398	98.843048
9351.149468	5041.316667	1903.626953	61.409588
9351.149468	5041.316667	1902.644531	-0.360815
9351.149468	5041.316667	1901.663086	13.311705
9351.149468	5041.316667	1900.680664	73.190300
9351.149468	5041.316667	1899.698242	69.790550
9351.149468	5041.316667	1898.714844	119.881126
9351.149468	5041.316667	1897.732422	58.090179
9351.149468	5041.316667	1896.749023	54.652977
9351.149468	5041.316667	1895.765625	-29.006586
9351.149468	5041.316667	1894.782227	-8.153295
9351.149468	5041.316667	1893.798828	24.826506
9351.149468	5041.316667	1892.814453	33.486614
9351.149468	5041.316667	1891.831055	-16.161272
9351.149468	5041.316667	1890.846680	-7.526036
9351.149468	5041.316667	1889.862305	112.772903
9351.149468	5041.316667	1888.877930	33.963993
9351.149468	5041.316667	1887.892578	18.270449
9351.149468	5041.316667	1886.908203	43.818413
9351.149468	5041.316667	1885.922852	52.359062
9351.149468	5041.316667	1884.937500	123.946922
9351.149468	5041.316667	1883.952148	122.738220
9351.149468	5041.316667	1882.965820	60.897057
9351.149468	5041.316667	1881.980469	18.457966
9351.149468	5041.316667	1880.994141	-21.556740
9351.149468	5041.316667	1880.007813	52.324814
9351.149468	5041.316667	1879.021484	75.282570
9351.149468	5041.316667	1878.035156	83.682030
9351.149468	5041.316667	1877.047852	101.750725
9351.149468	5041.316667	1876.061523	22.937469
9351.149468	5041.316667	1875.074219	9.506385
9351.149468	5041.316667	1874.086914	73.524445
9351.149468	5041.316667	1873.098633	-119.033058
9351.149468	5041.316667	1872.111328	27.224977
9351.149468	5041.316667	1871.123047	40.353836
9351.149468	5041.316667	1870.135742	-81.988968
9351.149468	5041.316667	1869.147461	-1.160788
9351.149468	5041.316667	1868.158203	-38.854710
9351.149468	5041.316667	1867.169922	128.932831
9351.149468	5041.316667	1866.180664	9.021898
9351.149468	5041.316667	1865.192383	87.296738
9351.149468	5041.316667	1864.203125	-63.999554
9351.149468	5041.316667	1863.213867	-12.341533
9351.149468	5041.316667	1862.223633	106.906639
9351.149468	5041.316667	1861.234375	122.263367
9351.149468	5041.316667	1860.244141	43.444077
9351.149468	5041.316667	1859.253906	126.364647
9351.149468	5041.316667	1858.263672	16.172171
9351.149468	5041.316667	1857.273438	79.735901
9351.149468	5041.316667	1856.282227	32.289024
9351.149468	5041.316667	1855.291992	122.330353
9351.149468	5041.316667	1854.300781	-130.115005
9351.149468	5041.316667	1853.309570	-32.871578
9351.149468	5041.316667	1852.317383	20.929790
9351.149468	5041.316667	1851.326172	9.624198
9351.149468	5041.316667	1850.333984	32.044506
9351.149468	5041.316667	1849.342773	27.942610
9351.149468	5041.316667	1848.350586	-33.982944
9351.149468	5041.316667	1847.357422	55.827999
9351.149468	5041.316667	1846.365234	32.421856
9351.149468	5041.316667	1845.372070	25.863298
9351.149468	5041.316667	1844.379883	74.657295
9351.149468	5041.316667	1843.386719	60.848938
9351.149468	5041.316667	1842.393555	-109.362915
9351.149468	5041.316667	1841.399414	117.409065
9351.149468	5041.316667	1840.406250	125.211426
9351.149468	5041.316667	1839.412109	-28.119305
9351.149468	5041.316667	1838.417969	-80.423782
9351.149468	5041.316667	1837.423828	-149.546600
9351.149468	5041.316667	1836.429688	88.979202
9351.149468	5041.316667	1835.434570	55.870953
9351.149468	5041.316667	1834.440430	97.242729
9351.149468	5041.316667	1833.445313	20.886980
9351.149468	5041.316667	1832.450195	110.258522
9351.149468	5041.316667	1831.454102	50.715290
9351.149468	5041.316667	1830.458984	22.393398
9351.149468	5041.316667	1829.462891	114.082291
9351.149468	5041.316667	1828.466797	49.741219
9351.149468	5041.316667	1827.470703	167.762405
9351.149468	5041.316667	1826.474609	96.219246
9351.149468	5041.316667	1825.478516	17.497614
9351.149468	5041.316667	1824.481445	-25.235050
9351.149468	5041.316667	1823.484375	-58.371510
9351.149468	5041.316667	1822.487305	37.936523
9351.149468	5041.316667	1821.490234	-23.976837
9351.149468	5041.316667	1820.493164	-30.764772
9351.149468	5041.316667	1819.495117	-18.394655
9351.149468	5041.316667	1818.498047	106.540337
9351.149468	5041.316667	1817.500000	-8.061687
9351.149468	5041.316667	1816.500977	-14.884693
9351.149468	5041.316667	1815.502930	18.983551
9351.149468	5041.316667	1814.504883	-141.037384
9351.149468	5041.316667	1813.505859	134.515976
9351.149468	5041.316667	1812.506836	-27.876738
9351.149468	5041.316667	1811.507813	115.970879
9351.149468	5041.316667	1810.508789	46.900749
9351.149468	5041.316667	1809.508789	-36.498936
9351.149468	5041.316667	1808.508789	-17.073954
9351.149468	5041.316667	1807.508789	105.118195
9351.149468	5041.316667	1806.508789	19.342262
9351.149468	5041.316667	1805.508789	-66.408951
9351.149468	5041.316667	1804.508789	-37.466389
9351.149468	5041.316667	1803.507813	22.507122
9351.149468	5041.316667	1802.506836	-20.234077
9351.149468	5041.316667	1801.505859	61.187561
9351.149468	5041.316667	1800.504883	30.377119
9351.149468	5041.316667	1799.502930	-0.429816
9351.149468	5041.316667	1798.501953	18.880360
9351.149468	5041.316667	1797.500000	-14.311144
9351.149468	5041.316667	1796.498047	-4.560997
9351.149468	5041.316667	1795.496094	-25.824186
9351.149468	5041.316667	1794.493164	5.369701
9351.149468	5041.316667	1793.491211	65.154823
9351.149468	5041.316667	1792.488281	93.924530
9351.149468	5041.316667	1791.485352	-8.390526
9351.149468	5041.316667	1790.482422	-43.960182
9351.149468	5041.316667	1789.478516	-22.351664
9351.149468	5041.316667	1788.475586	-7.900986
9351.149468	5041.316667	1787.471680	-41.087902
9351.149468	5041.316667	1786.467773	30.487490
9351.149468	5041.316667	1785.463867	11.577215
9351.149468	5041.316667	1784.459961	6.947461
9351.149468	5041.316667	1783.455078	-107.140915
9351.149468	5041.316667	1782.450195	-73.694733
9351.149468	5041.316667	1781.445313	71.525322
9351.149468	5041.316667	1780.440430	107.293251
9351.149468	5041.316667	1779.435547	-32.903107
9351.149468	5041.316667	1778.429688	67.043274
9351.149468	5041.316667	1777.424805	-56.465260
9351.149468	5041.316667	1776.418945	-125.278214
9351.149468	5041.316667	1775.413086	86.277771
9351.149468	5041.316667	1774.406250	-18.178581
9351.149468	5041.316667	1773.400391	55.521198
9351.149468	5041.316667	1772.393555	112.565170
9351.149468	5041.316667	1771.386719	50.881584
9351.149468	5041.316667	1770.379883	12.952418
9351.149468	5041.316667	1769.373047	8.256718
9351.149468	5041.316667	1768.365234	43.892166
9351.149468	5041.316667	1767.358398	-27.239330
9351.149468	5041.316667	1766.350586	10.751889
9351.149468	5041.316667	1765.342773	124.606102
9351.149468	5041.316667	1764.334961	105.644135
9351.149468	5041.316667	1763.326172	89.053482
9351.149468	5041.316667	1762.318359	55.876720
9351.149468	5041.316667	1761.309570	46.401398
9351.149468	5041.316667	1760.300781	-17.562860
9351.149468	5041.316667	1759.291016	-102.826622
9351.149468	5041.316667	1758.282227	-31.761866
9351.149468	5041.316667	1757.272461	27.431150
9351.149468	5041.316667	1756.262695	-3.358359
9351.149468	5041.316667	1755.252930	-19.939953
9351.149468	5041.316667	1754.243164	105.462746
9351.149468	5041.316667	1753.233398	10.782855
9351.149468	5041.316667	1752.222656	-88.597847
9351.149468	5041.316667	1751.211914	10.716203
9351.149468	5041.316667	1750.201172	39.051189
9351.149468	5041.316667	1749.190430	131.202042
9351.149468	5041.316667	1748.179688	-15.416217
9351.149468	5041.316667	1747.167969	-140.716263
9351.149468	5041.316667	1746.156250	-8.431401
9351.149468	5041.316667	1745.144531	17.494492
9351.149468	5041.316667	1744.132813	43.406147
9351.149468	5041.316667	1743.121094	-13.345861
9351.149468	5041.316667	1742.108398	227.399002
9351.149468	5041.316667	1741.095703	40.795132
9351.149468	5041.316667	1740.083008	-37.178989
9351.149468	5041.316667	1739.070313	101.955643
9351.149468	5041.316667	1738.057617	132.511993
9351.149468	5041.316667	1737.043945	-23.287893
9351.149468	5041.316667	1736.030273	52.076576
9351.149468	5041.316667	1735.016602	-44.711998
9351.149468	5041.316667	1734.002930	205.063171
9351.149468	5041.316667	1732.989258	171.909851
9351.149468	5041.316667	1731.974609	98.702904
9351.149468	5041.316667	1730.959961	110.335503
9351.149468	5041.316667	1729.945313	58.359371
9351.149468	5041.316667	1728.930664	-38.349049
9351.149468	5041.316667	1727.916016	39.219494
9351.149468	5041.316667	1726.900391	-43.334110
9351.149468	5041.316667	1725.885742	-8.171691
9351.149468	5041.316667	1724.870117	71.683945
9351.149468	5041.316667	1723.853516	5.625341
9351.149468	5041.316667	1722.837891	120.724075
9351.149468	5041.316667	1721.822266	87.600555
9351.149468	5041.316667	1720.805664	122.676949
9351.149468	5041.316667	1719.789063	-18.594481
9351.149468	5041.316667	1718.772461	110.503044
9351.149468	5041.316667	1717.754883	11.579160
9351.149468	5041.316667	1716.738281	88.917404
9351.149468	5041.316667	1715.720703	-14.673074
9351.149468	5041.316667	1714.703125	-7.835673
9351.149468	5041.316667	1713.685547	53.006714
9351.149468	5041.316667	1712.667969	3.468310
9351.149468	5041.316667	1711.649414	12.628449
9351.149468	5041.316667	1710.630859	33.514641
9351.149468	5041.316667	1709.612305	75.506729
9351.149468	5041.316667	1708.593750	-67.865547
9351.149468	5041.316667	1707.575195	-61.066086
9351.149468	5041.316667	1706.555664	-16.752886
9351.149468	5041.316667	1705.536133	-117.837868
9351.149468	5041.316667	1704.516602	-202.478790
9351.149468	5041.316667	1703.497070	141.832108
9351.149468	5041.316667	1702.477539	-13.140069
9351.149468	5041.316667	1701.457031	54.520397
9351.149468	5041.316667	1700.437500	61.246098
9351.149468	5041.316667	1699.416992	72.645355
9351.149468	5041.316667	1698.395508	11.442732
9351.149468	5041.316667	1697.375000	6.446817
9351.149468	5041.316667	1696.354492	97.416580
9351.149468	5041.316667	1695.333008	8.143206
9351.149468	5041.316667	1694.311523	38.228477
9351.149468	5041.316667	1693.290039	28.526854
9351.149468	5041.316667	1692.267578	35.193260
9351.149468	5041.316667	1691.246094	-9.593527
9351.149468	5041.316667	1690.223633	71.881180
9351.149468	5041.316667	1689.201172	45.790974
9351.149468	5041.316667	1688.178711	73.457588
9351.149468	5041.316667	1687.155273	-32.084663
9351.149468	5041.316667	1686.132813	65.659927
9351.149468	5041.316667	1685.109375	-25.838137
9351.149468	5041.316667	1684.085938	-35.571739
9351.149468	5041.316667	1683.062500	6.058692
9351.149468	5041.316667	1682.039063	59.338272
9351.149468	5041.316667	1681.014648	114.923340
9351.149468	5041.316667	1679.990234	60.804447
9351.149468	5041.316667	1678.965820	34.696880
9351.149468	5041.316667	1677.941406	38.916035
9351.149468	5041.316667	1676.916992	-10.512737
9351.149468	5041.316667	1675.891602	38.000477
9351.149468	5041.316667	1674.866211	114.463821
9351.149468	5041.316667	1673.840820	32.394363
9351.149468	5041.316667	1672.815430	115.806221
9351.149468	5041.316667	1671.790039	71.033348
9351.149468	5041.316667	1670.763672	133.423935
9351.149468	5041.316667	1669.737305	-46.434746
9351.149468	5041.316667	1668.710938	-0.359608
9351.149468	5041.316667	1667.684570	-5.528419
9351.149468	5041.316667	1666.658203	26.540237
9351.149468	5041.316667	1665.630859	128.404480
9351.149468	5041.316667	1664.603516	151.111115
9351.149468	5041.316667	1663.576172	-28.588436
9351.149468	5041.316667	1662.548828	75.530907
9351.149468	5041.316667	1661.520508	167.974030
9351.149468	5041.316667	1660.493164	139.476685
9351.149468	5041.316667	1659.464844	155.146805
9351.149468	5041.316667	1658.436523	191.720200
9351.149468	5041.316667	1657.408203	270.097229
9351.149468	5041.316667	1656.378906	162.580109
9351.149468	5041.316667	1655.350586	136.394424
9351.149468	5041.316667	1654.321289	131.109482
9351.149468	5041.316667	1653.291992	88.670082
9351.149468	5041.316667	1652.261719	215.698746
9351.149468	5041.316667	1651.232422	261.439667
9351.149468	5041.316667	1650.202148	330.357605
9351.149468	5041.316667	1649.171875	53.556080
9351.149468	5041.316667	1648.141602	187.420853
9351.149468	5041.316667	1647.111328	86.993408
9351.149468	5041.316667	1646.080078	116.441643
9351.149468	5041.316667	1645.049805	148.190491
9351.149468	5041.316667	1644.018555	221.638229
9351.149468	5041.316667	1642.987305	260.289337
9351.149468	5041.316667	1641.955078	234.042664
9351.149468	5041.316667	1640.923828	293.508728
9351.149468	5041.316667	1639.891602	160.714157
9351.149468	5041.316667	1638.859375	102.060966
9351.149468	5041.316667	1637.827148	328.180481
9351.149468	5041.316667	1636.794922	149.140091
9351.149468	5041.316667	1635.761719	289.519287
9351.149468	5041.316667	1634.729492	348.856873
9351.149468	5041.316667	1633.696289	380.402130
9351.149468	5041.316667	1632.662109	270.841095
9351.149468	5041.316667	1631.628906	302.373779
9351.149468	5041.316667	1630.594727	467.977936
9351.149468	5041.316667	1629.561523	582.658752
9351.149468	5041.316667	1628.527344	611.776306
9351.149468	5041.316667	1627.493164	532.276062
9351.149468	5041.316667	1626.458008	448.176453
9351.149468	5041.316667	1625.423828	421.846985
9351.149468	5041.316667	1624.388672	427.847870
9351.149468	5041.316667	1623.353516	450.000122
9351.149468	5041.316667	1622.318359	375.185120
9351.149468	5041.316667	1621.282227	365.011566
9351.149468	5041.316667	1620.247070	391.755310
9351.149468	5041.316667	1619.210938	344.655212
9351.149468	5041.316667	1618.174805	352.922974
9351.149468	5041.316667	1617.137695	372.708740
9351.149468	5041.316667	1616.101563	390.176178
9351.149468	5041.316667	1615.064453	398.406372
9351.149468	5041.316667	1614.027344	441.197906
9351.149468	5041.316667	1612.990234	449.400482
9351.149468	5041.316667	1611.953125	545.139648
9351.149468	5041.316667	1610.916016	479.595093
9351.149468	5041.316667	1609.877930	427.883820
9351.149468	5041.316667	1608.839844	512.035461
9351.149468	5041.316667	1607.801758	561.616455
9351.149468	5041.316667	1606.763672	677.917847
9351.149468	5041.316667	1605.724609	593.961914
9351.149468	5041.316667	1604.685547	696.391602
9351.149468	5041.316667	1603.646484	548.043396
9351.149468	5041.316667	1602.607422	572.234192
9351.149468	5041.316667	1601.568359	794.156555
9351.149468	5041.316667	1600.528320	549.297913
9351.149468	5041.316667	1599.489258	679.185425
9351.149468	5041.316667	1598.449219	590.699341
9351.149468	5041.316667	1597.408203	350.597015
9351.149468	5041.316667	1596.368164	576.906128
9351.149468	5041.316667	1595.327148	529.811157
9351.149468	5041.316667	1594.287109	400.065704
9351.149468	5041.316667	1593.246094	410.406555
9351.149468	5041.316667	1592.204102	354.169647
9351.149468	5041.316667	1591.163086	396.632721
9351.149468	5041.316667	1590.121094	429.892731
9351.149468	5041.316667	1589.079102	511.308594
9351.149468	5041.316667	1588.037109	434.431122
9351.149468	5041.316667	1586.995117	385.095428
9351.149468	5041.316667	1585.953125	434.358704
9351.149468	5041.316667	1584.910156	517.978027
9351.149468	5041.316667	1583.867188	425.093475
9351.149468	5041.316667	1582.824219	543.041138
9351.149468	5041.316667	1581.781250	546.394348
9351.149468	5041.316667	1580.737305	696.326172
9351.149468	5041.316667	1579.693359	553.077759
9351.149468	5041.316667	1578.649414	746.441345
9351.149468	5041.316667	1577.605469	603.229980
9351.149468	5041.316667	1576.561523	656.892456
9351.149468	5041.316667	1575.516602	495.438324
9351.149468	5041.316667	1574.472656	629.162964
9351.149468	5041.316667	1573.427734	735.380981
9351.149468	5041.316667	1572.381836	560.270874
9351.149468	5041.316667	1571.336914	508.692383
9351.149468	5041.316667	1570.291016	585.140930
9351.149468	5041.316667	1569.246094	542.712708
9351.149468	5041.316667	1568.200195	445.454376
9351.149468	5041.316667	1567.153320	485.303986
9351.149468	5041.316667	1566.107422	319.563904
9351.149468	5041.316667	1565.060547	300.040466
9351.149468	5041.316667	1564.013672	344.452515
9351.149468	5041.316667	1562.966797	331.774323
9351.149468	5041.316667	1561.919922	364.745758
9351.149468	5041.316667	1560.872070	431.928070
9351.149468	5041.316667	1559.825195	499.083527
9351.149468	5041.316667	1558.777344	474.968231
9351.149468	5041.316667	1557.729492	516.996338
9351.149468	5041.316667	1556.680664	540.762756
9351.149468	5041.316667	1555.632813	532.605408
9351.149468	5041.316667	1554.583984	494.817108
9351.149468	5041.316667	1553.535156	696.312988
9351.149468	5041.316667	1552.486328	544.589233
9351.149468	5041.316667	1551.436523	725.490356
9351.149468	5041.316667	1550.387695	678.579834
9351.149468	5041.316667	1549.337891	615.745239
9351.149468	5041.316667	1548.288086	648.549622
9351.149468	5041.316667	1547.238281	893.015076
9351.149468	5041.316667	1546.187500	625.365479
9351.149468	5041.316667	1545.136719	639.943787
9351.149468	5041.316667	1544.086914	565.803772
9351.149468	5041.316667	1543.035156	587.208435
9351.149468	5041.316667	1541.984375	554.035828
9351.149468	5041.316667	1540.933594	627.725525
9351.149468	5041.316667	1539.881836	676.382813
9351.149468	5041.316667	1538.830078	695.478943
9351.149468	5041.316667	1537.778320	764.553711
9351.149468	5041.316667	1536.725586	792.711792
9351.149468	5041.316667	1535.673828	868.556335
9351.149468	5041.316667	1534.621094	867.166748
9351.149468	5041.316667	1533.568359	824.914673
9351.149468	5041.316667	1532.515625	889.362366
9351.149468	5041.316667	1531.461914	735.926575
9351.149468	5041.316667	1530.409180	925.160583
9351.149468	5041.316667	1529.355469	935.112549
9351.149468	5041.316667	1528.301758	997.226990
9351.149468	5041.316667	1527.247070	1104.669189
9351.149468	5041.316667	1526.193359	969.492859
9351.149468	5041.316667	1525.138672	949.971313
9351.149468	5041.316667	1524.083984	934.993408
9351.149468	5041.316667	1523.029297	1080.895264
9351.149468	5041.316667	1521.974609	1007.006592
9351.149468	5041.316667	1520.918945	849.348755
9351.149468	5041.316667	1519.863281	780.070801
9351.149468	5041.316667	1518.807617	812.703674
9351.149468	5041.316667	1517.751953	901.916504
9351.149468	5041.316667	1516.696289	556.587402
9351.149468	5041.316667	1515.639648	589.257813
9351.149468	5041.316667	1514.583008	683.000061
9351.149468	5041.316667	1513.526367	448.758575
9351.149468	5041.316667	1512.469727	318.634766
9351.149468	5041.316667	1511.412109	294.826721
9351.149468	5041.316667	1510.355469	302.681946
9351.149468	5041.316667	1509.297852	301.498413
9351.149468	5041.316667	1508.240234	178.309341
9351.149468	5041.316667	1507.181641	281.079010
9351.149468	5041.316667	1506.124023	58.578224
9351.149468	5041.316667	1505.065430	165.861816
9351.149468	5041.316667	1504.006836	42.824329
9351.149468	5041.316667	1502.948242	93.652496
9351.149468	5041.316667	1501.888672	135.439560
9351.149468	5041.316667	1500.830078	229.116379
9351.149468	5041.316667	1499.770508	171.616333
9351.149468	5041.316667	1498.710938	150.235245
9351.149468	5041.316667	1497.650391	74.749039
9351.149468	5041.316667	1496.590820	103.014771
9351.149468	5041.316667	1495.530273	99.718796
9351.149468	5041.316667	1494.469727	155.029022
9351.149468	5041.316667	1493.409180	-5.982576
9351.149468	5041.316667	1492.348633	157.480621
9351.149468	5041.316667	1491.287109	133.943115
9351.149468	5041.316667	1490.225586	141.952148
9351.149468	5041.316667	1489.164063	8.128051
9351.149468	5041.316667	1488.102539	18.431993
9351.149468	5041.316667	1487.041016	-70.281319
9351.149468	5041.316667	1485.978516	-77.946312
9351.149468	5041.316667	1484.916016	-36.070972
9351.149468	5041.316667	1483.853516	48.469440
9351.149468	5041.316667	1482.791016	0.348480
9351.149468	5041.316667	1481.727539	-146.661194
9351.149468	5041.316667	1480.664063	-62.079342
9351.149468	5041.316667	1479.600586	31.464386
9351.149468	5041.316667	1478.537109	48.616203
9351.149468	5041.316667	1477.473633	-37.570934
9351.149468	5041.316667	1476.409180	-107.989349
9351.149468	5041.316667	1475.344727	-93.010422
9351.149468	5041.316667	1474.280273	-183.546524
9351.149468	5041.316667	1473.215820	-65.266373
9351.149468	5041.316667	1472.151367	-52.514008
9351.149468	5041.316667	1471.085938	-129.605011
9351.149468	5041.316667	1470.020508	-15.917161
9351.149468	5041.316667	1468.955078	50.647400
9351.149468	5041.316667	1467.888672	29.808285
9351.149468	5041.316667	1466.823242	-55.939461
9351.149468	5041.316667	1465.756836	95.470123
9351.149468	5041.316667	1464.690430	36.781742
9351.149468	5041.316667	1463.624023	-77.968262
9351.149468	5041.316667	1462.556641	8.562349
9351.149468	5041.316667	1461.490234	-36.489445
9351.149468	5041.316667	1460.422852	-90.684959
9351.149468	5041.316667	1459.355469	38.499706
9351.149468	5041.316667	1458.287109	-73.848022
9351.149468	5041.316667	1457.219727	-69.536125
9351.149468	5041.316667	1456.151367	-23.391901
9351.149468	5041.316667	1455.083008	34.176838
9351.149468	5041.316667	1454.014648	9.412009
9351.149468	5041.316667	1452.945313	-132.189697
9351.149468	5041.316667	1451.876953	84.334534
9351.149468	5041.316667	1450.807617	46.515018
9351.149468	5041.316667	1449.738281	141.857910
9351.149468	5041.316667	1448.668945	-45.812359
9351.149468	5041.316667	1447.598633	-27.843740
9351.149468	5041.316667	1446.528320	209.438324
9351.149468	5041.316667	1445.458008	80.556519
9351.149468	5041.316667	1444.387695	88.773224
9351.149468	5041.316667	1443.317383	44.108189
9351.149468	5041.316667	1442.246094	84.026054
9351.149468	5041.316667	1441.174805	22.185652
9351.149468	5041.316667	1440.103516	-75.691620
9351.149468	5041.316667	1439.032227	-9.795029
9351.149468	5041.316667	1437.960938	129.748672
9351.149468	5041.316667	1436.888672	113.978928
9351.149468	5041.316667	1435.816406	-2.731168
9351.149468	5041.316667	1434.744141	-42.418056
9351.149468	5041.316667	1433.670898	78.213638
9351.149468	5041.316667	1432.598633	42.849148
9351.149468	5041.316667	1431.525391	7.993598
9351.149468	5041.316667	1430.452148	-42.196838
9351.149468	5041.316667	1429.378906	-3.747369
9351.149468	5041.316667	1428.304688	57.222439
9351.149468	5041.316667	1427.231445	83.557755
9351.149468	5041.316667	1426.157227	28.838125
9351.149468	5041.316667	1425.083008	25.487679
9351.149468	5041.316667	1424.007813	-151.088165
9351.149468	5041.316667	1422.933594	-35.020992
9351.149468	5041.316667	1421.858398	41.583382
9351.149468	5041.316667	1420.783203	-16.281681
9351.149468	5041.316667	1419.708008	61.348831
9351.149468	5041.316667	1418.631836	12.326733
9351.149468	5041.316667	1417.555664	97.974419
9351.149468	5041.316667	1416.479492	60.213921
9351.149468	5041.316667	1415.403320	60.619133
9351.149468	5041.316667	1414.327148	-9.530487
9351.149468	5041.316667	1413.250000	36.552044
9351.149468	5041.316667	1412.173828	61.658001
9351.149468	5041.316667	1411.096680	9.303104
9351.149468	5041.316667	1410.018555	57.991001
9351.149468	5041.316667	1408.941406	55.266716
9351.149468	5041.316667	1407.863281	76.450317
9351.149468	5041.316667	1406.785156	28.915691
9351.149468	5041.316667	1405.707031	-26.645123
9351.149468	5041.316667	1404.628906	103.124466
9351.149468	5041.316667	1403.549805	138.526291
9351.149468	5041.316667	1402.470703	108.162155
9351.149468	5041.316667	1401.391602	58.900372
9351.149468	5041.316667	1400.312500	45.666355
9351.149468	5041.316667	1399.233398	73.924591
9351.149468	5041.316667	1398.153320	121.732422
9351.149468	5041.316667	1397.073242	208.987396
9351.149468	5041.316667	1395.993164	191.202835
9351.149468	5041.316667	1394.913086	180.966248
9351.149468	5041.316667	1393.832031	222.458603
9351.149468	5041.316667	1392.750977	123.875710
9351.149468	5041.316667	1391.669922	119.658569
9351.149468	5041.316667	1390.588867	131.670105
9351.149468	5041.316667	1389.506836	101.986397
9351.149468	5041.316667	1388.425781	348.058655
9351.149468	5041.316667	1387.343750	256.890015
9351.149468	5041.316667	1386.261719	172.306992
9351.149468	5041.316667	1385.178711	145.671387
9351.149468	5041.316667	1384.096680	218.385849
9351.149468	5041.316667	1383.013672	137.921982
9351.149468	5041.316667	1381.930664	173.937714
9351.149468	5041.316667	1380.846680	216.237823
9351.149468	5041.316667	1379.763672	160.236938
9351.149468	5041.316667	1378.679688	294.884918
9351.149468	5041.316667	1377.595703	225.637390
9351.149468	5041.316667	1376.511719	152.572067
9351.149468	5041.316667	1375.427734	74.883858
9351.149468	5041.316667	1374.342773	119.487572
9351.149468	5041.316667	1373.257813	311.302582
9351.149468	5041.316667	1372.172852	118.014969
9351.149468	5041.316667	1371.087891	347.669739
9351.149468	5041.316667	1370.001953	333.771179
9351.149468	5041.316667	1368.916992	255.344147
9351.149468	5041.316667	1367.831055	287.711090
9351.149468	5041.316667	1366.744141	303.858521
9351.149468	5041.316667	1365.658203	269.773987
9351.149468	5041.316667	1364.571289	270.882660
9351.149468	5041.316667	1363.484375	230.098755
9351.149468	5041.316667	1362.397461	320.270966
9351.149468	5041.316667	1361.310547	269.972046
9351.149468	5041.316667	1360.222656	267.563477
9351.149468	5041.316667	1359.135742	229.677963
9351.149468	5041.316667	1358.047852	294.927551
9351.149468	5041.316667	1356.958984	338.882629
9351.149468	5041.316667	1355.871094	371.122040
9351.149468	5041.316667	1354.782227	425.680359
9351.149468	5041.316667	1353.693359	347.914856
9351.149468	5041.316667	1352.604492	349.614136
9351.149468	5041.316667	1351.515625	268.129730
9351.149468	5041.316667	1350.425781	362.753540
9351.149468	5041.316667	1349.335938	336.123474
9351.149468	5041.316667	1348.246094	393.534882
9351.149468	5041.316667	1347.156250	123.717339
9351.149468	5041.316667	1346.066406	248.569229
9351.149468	5041.316667	1344.975586	244.980225
9351.149468	5041.316667	1343.884766	167.802887
9351.149468	5041.316667	1342.793945	209.741333
9351.149468	5041.316667	1341.702148	244.256546
9351.149468	5041.316667	1340.611328	144.104248
9351.149468	5041.316667	1339.519531	211.158157
9351.149468	5041.316667	1338.427734	351.605164
9351.149468	5041.316667	1337.334961	414.396606
9351.149468	5041.316667	1336.243164	608.341187
9351.149468	5041.316667	1335.150391	540.008179
9351.149468	5041.316667	1334.057617	652.226807
9351.149468	5041.316667	1332.964844	593.715942
9351.149468	5041.316667	1331.871094	647.617432
9351.149468	5041.316667	1330.778320	633.358765
9351.149468	5041.316667	1329.684570	532.042664
9351.149468	5041.316667	1328.590820	370.097931
9351.149468	5041.316667	1327.496094	322.146118
9351.149468	5041.316667	1326.402344	297.960175
9351.149468	5041.316667	1325.307617	183.066849
9351.149468	5041.316667	1324.212891	142.687317
9351.149468	5041.316667	1323.117188	55.226860
9351.149468	5041.316667	1322.022461	52.474327
9351.149468	5041.316667	1320.926758	81.486015
9351.149468	5041.316667	1319.831055	129.290070
9351.149468	5041.316667	1318.735352	34.172539
9351.149468	5041.316667	1317.638672	-8.089557
9351.149468	5041.316667	1316.542969	-7.135424
9351.149468	5041.316667	1315.446289	-48.452930
9351.149468	5041.316667	1314.349609	48.044514
9351.149468	5041.316667	1313.251953	126.016823
9351.149468	5041.316667	1312.155273	-27.581196
9351.149468	5041.316667	1311.057617	-104.717186
9351.149468	5041.316667	1309.959961	6.122083
9351.149468	5041.316667	1308.862305	-11.363312
9351.149468	5041.316667	1307.763672	60.710804
9351.149468	5041.316667	1306.665039	95.849739
9351.149468	5041.316667	1305.566406	76.041664
9351.149468	5041.316667	1304.467773	75.669266
9351.149468	5041.316667	1303.369141	-22.422842
9351.149468	5041.316667	1302.269531	-81.480263
9351.149468	5041.316667	1301.169922	45.100807
9351.149468	5041.316667	1300.070313	131.378830
9351.149468	5041.316667	1298.970703	141.240860
9351.149468	5041.316667	1297.870117	94.077164
9351.149468	5041.316667	1296.769531	201.891312
9351.149468	5041.316667	1295.668945	133.714890
9351.149468	5041.316667	1294.568359	94.461334
9351.149468	5041.316667	1293.466797	41.240704
9351.149468	5041.316667	1292.366211	130.350525
9351.149468	5041.316667	1291.264648	138.389008
9351.149468	5041.316667	1290.162109	98.061165
9351.149468	5041.316667	1289.060547	55.597446
9351.149468	5041.316667	1287.958008	46.418491
9351.149468	5041.316667	1286.855469	71.508080
9351.149468	5041.316667	1285.752930	36.746418
9351.149468	5041.316667	1284.650391	-13.617651
9351.149468	5041.316667	1283.546875	26.171169
9351.149468	5041.316667	1282.444336	28.856188
9351.149468	5041.316667	1281.339844	19.126547
9351.149468	5041.316667	1280.236328	191.251236
9351.149468	5041.316667	1279.132813	-5.163850
9351.149468	5041.316667	1278.028320	116.049278
9351.149468	5041.316667	1276.923828	228.983536
9351.149468	5041.316667	1275.819336	159.125031
9351.149468	5041.316667	1274.713867	253.220947
9351.149468	5041.316667	1273.608398	364.582855
9351.149468	5041.316667	1272.503906	380.923096
9351.149468	5041.316667	1271.397461	388.085266
9351.149468	5041.316667	1270.291992	368.205322
9351.149468	5041.316667	1269.185547	336.755005
9351.149468	5041.316667	1268.080078	305.464294
9351.149468	5041.316667	1266.972656	233.154053
9351.149468	5041.316667	1265.866211	207.674332
9351.149468	5041.316667	1264.759766	176.688950
9351.149468	5041.316667	1263.652344	155.897400
9351.149468	5041.316667	1262.544922	73.039207
9351.149468	5041.316667	1261.436523	28.971161
9351.149468	5041.316667	1260.329102	70.787148
9351.149468	5041.316667	1259.220703	8.900675
9351.149468	5041.316667	1258.112305	36.094143
9351.149468	5041.316667	1257.003906	108.256477
9351.149468	5041.316667	1255.895508	40.779533
9351.149468	5041.316667	1254.786133	-47.888504
9351.149468	5041.316667	1253.676758	-25.900858
9351.149468	5041.316667	1252.567383	-30.911100
9351.149468	5041.316667	1251.458008	54.831497
9351.149468	5041.316667	1250.347656	56.366997
9351.149468	5041.316667	1249.237305	19.354090
9351.149468	5041.316667	1248.126953	94.375526
9351.149468	5041.316667	1247.016602	152.875381
9351.149468	5041.316667	1245.905273	187.101318
9351.149468	5041.316667	1244.793945	116.250008
9351.149468	5041.316667	1243.682617	129.355377
9351.149468	5041.316667	1242.571289	75.111969
9351.149468	5041.316667	1241.459961	38.194344
9351.149468	5041.316667	1240.347656	113.071892
9351.149468	5041.316667	1239.235352	86.921669
9351.149468	5041.316667	1238.123047	176.758545
9351.149468	5041.316667	1237.009766	190.283417
9351.149468	5041.316667	1235.897461	142.123459
9351.149468	5041.316667	1234.784180	161.374603
9351.149468	5041.316667	1233.670898	291.804626
9351.149468	5041.316667	1232.556641	355.725830
9351.149468	5041.316667	1231.443359	477.440033
9351.149468	5041.316667	1230.329102	655.781067
9351.149468	5041.316667	1229.214844	813.895142
9351.149468	5041.316667	1228.099609	1079.766846
9351.149468	5041.316667	1226.985352	1130.191162
9351.149468	5041.316667	1225.870117	1215.208008
9351.149468	5041.316667	1224.754883	1252.922485
9351.149468	5041.316667	1223.639648	1085.338257
9351.149468	5041.316667	1222.523438	811.603516
9351.149468	5041.316667	1221.408203	777.328064
9351.149468	5041.316667	1220.291992	666.705811
9351.149468	5041.316667	1219.174805	484.978638
9351.149468	5041.316667	1218.058594	457.725433
9351.149468	5041.316667	1216.941406	317.357452
9351.149468	5041.316667	1215.824219	269.135925
9351.149468	5041.316667	1214.707031	127.297333
9351.149468	5041.316667	1213.589844	77.685120
9351.149468	5041.316667	1212.471680	85.268021
9351.149468	5041.316667	1211.353516	76.662651
9351.149468	5041.316667	1210.235352	16.168482
9351.149468	5041.316667	1209.117188	24.317926
9351.149468	5041.316667	1207.998047	94.939621
9351.149468	5041.316667	1206.878906	116.204315
9351.149468	5041.316667	1205.759766	102.520874
9351.149468	5041.316667	1204.640625	5.261529
9351.149468	5041.316667	1203.520508	100.953209
9351.149468	5041.316667	1202.401367	-10.730851
9351.149468	5041.316667	1201.281250	8.153162
9351.149468	5041.316667	1200.160156	51.801727
9351.149468	5041.316667	1199.040039	34.568214
9351.149468	5041.316667	1197.918945	63.496082
9351.149468	5041.316667	1196.797852	233.006973
9351.149468	5041.316667	1195.676758	160.336884
9351.149468	5041.316667	1194.555664	358.399567
9351.149468	5041.316667	1193.433594	335.550079
9351.149468	5041.316667	1192.311523	334.809692
9351.149468	5041.316667	1191.189453	303.641418
9351.149468	5041.316667	1190.066406	282.020020
9351.149468	5041.316667	1188.944336	282.389069
9351.149468	5041.316667	1187.821289	61.302898
9351.149468	5041.316667	1186.698242	50.670353
9351.149468	5041.316667	1185.574219	-74.730568
9351.149468	5041.316667	1184.451172	83.603729
9351.149468	5041.316667	1183.327148	-9.051706
9351.149468	5041.316667	1182.203125	-147.991135
9351.149468	5041.316667	1181.078125	-42.229046
9351.149468	5041.316667	1179.954102	25.590183
9351.149468	5041.316667	1178.829102	-4.379467
9351.149468	5041.316667	1177.704102	-123.810211
9351.149468	5041.316667	1176.579102	-50.594463
9351.149468	5041.316667	1175.453125	-100.722282
9351.149468	5041.316667	1174.327148	-73.120773
9351.149468	5041.316667	1173.201172	-4.311749
9351.149468	5041.316667	1172.075195	2.507683
9351.149468	5041.316667	1170.949219	-116.773643
9351.149468	5041.316667	1169.822266	1.082243
9351.149468	5041.316667	1168.695313	-63.365437
9351.149468	5041.316667	1167.568359	-61.497379
9351.149468	5041.316667	1166.440430	-110.990654
9351.149468	5041.316667	1165.313477	-106.812912
9351.149468	5041.316667	1164.185547	-34.003990
9351.149468	5041.316667	1163.057617	-51.171177
9351.149468	5041.316667	1161.928711	-51.617020
9351.149468	5041.316667	1160.800781	25.869543
9351.149468	5041.316667	1159.671875	58.269661
9351.149468	5041.316667	1158.541992	-15.521975
9351.149468	5041.316667	1157.413086	111.466454
9351.149468	5041.316667	1156.283203	3.897245
9351.149468	5041.316667	1155.154297	70.021034
9351.149468	5041.316667	1154.023438	47.303814
9351.149468	5041.316667	1152.893555	-101.162941
9351.149468	5041.316667	1151.763672	45.993004
9351.149468	5041.316667	1150.632813	150.184891
9351.149468	5041.316667	1149.501953	117.277161
9351.149468	5041.316667	1148.370117	110.646416
9351.149468	5041.316667	1147.239258	143.450104
9351.149468	5041.316667	1146.107422	113.713737
9351.149468	5041.316667	1144.975586	107.857430
9351.149468	5041.316667	1143.843750	141.773926
9351.149468	5041.316667	1142.710938	48.403805
9351.149468	5041.316667	1141.578125	140.940140
9351.149468	5041.316667	1140.445313	164.548630
9351.149468	5041.316667	1139.312500	52.652321
9351.149468	5041.316667	1138.178711	63.484215
9351.149468	5041.316667	1137.045898	-84.953880
9351.149468	5041.316667	1135.912109	29.853676
9351.149468	5041.316667	1134.777344	55.630669
9351.149468	5041.316667	1133.643555	105.335510
9351.149468	5041.316667	1132.508789	0.026746
9351.149468	5041.316667	1131.374023	13.724216
9351.149468	5041.316667	1130.239258	-67.574333
9351.149468	5041.316667	1129.104492	21.522894
9351.149468	5041.316667	1127.968750	-2.771667
9351.149468	5041.316667	1126.833008	-125.906891
9351.149468	5041.316667	1125.697266	40.871319
9351.149468	5041.316667	1124.560547	16.103012
9351.149468	5041.316667	1123.424805	-121.074020
9351.149468	5041.316667	1122.288086	-72.629219
9351.149468	5041.316667	1121.151367	-79.822426
9351.149468	5041.316667	1120.013672	-35.717163
9351.149468	5041.316667	1118.876953	-29.403566
9351.149468	5041.316667	1117.739258	7.908126
9351.149468	5041.316667	1116.601563	-75.928123
9351.149468	5041.316667	1115.462891	-52.469013
9351.149468	5041.316667	1114.324219	54.405552
9351.149468	5041.316667	1113.186523	-17.315611
9351.149468	5041.316667	1112.046875	-154.898834
9351.149468	5041.316667	1110.908203	-17.496290
9351.149468	5041.316667	1109.769531	-78.931786
9351.149468	5041.316667	1108.629883	-107.787971
9351.149468	5041.316667	1107.490234	48.556805
9351.149468	5041.316667	1106.349609	-20.191557
9351.149468	5041.316667	1105.209961	-67.015442
9351.149468	5041.316667	1104.069336	-31.326557
9351.149468	5041.316667	1102.928711	-36.658924
9351.149468	5041.316667	1101.787109	64.002373
9351.149468	5041.316667	1100.646484	-76.739464
9351.149468	5041.316667	1099.504883	78.535774
9351.149468	5041.316667	1098.363281	-78.193169
9351.149468	5041.316667	1097.221680	-71.428482
9351.149468	5041.316667	1096.079102	-33.131386
9351.149468	5041.316667	1094.936523	105.776520
9351.149468	5041.316667	1093.793945	76.343353
9351.149468	5041.316667	1092.651367	-45.978729
9351.149468	5041.316667	1091.507813	17.080214
9351.149468	5041.316667	1090.364258	24.625263
9351.149468	5041.316667	1089.220703	61.810253
9351.149468	5041.316667	1088.077148	-48.918736
9351.149468	5041.316667	1086.933594	17.731054
9351.149468	5041.316667	1085.789063	-49.738586
9351.149468	5041.316667	1084.644531	-69.439270
9351.149468	5041.316667	1083.499023	-49.487164
9351.149468	5041.316667	1082.354492	-99.933510
9351.149468	5041.316667	1081.208984	-33.067829
9351.149468	5041.316667	1080.063477	-42.280445
9351.149468	5041.316667	1078.917969	-22.179468
9351.149468	5041.316667	1077.771484	-26.180935
9351.149468	5041.316667	1076.625977	2.485142
9351.149468	5041.316667	1075.479492	-18.271452
9351.149468	5041.316667	1074.332031	35.629612
9351.149468	5041.316667	1073.185547	118.810257
9351.149468	5041.316667	1072.038086	107.221672
9351.149468	5041.316667	1070.890625	208.820602
9351.149468	5041.316667	1069.743164	189.041473
9351.149468	5041.316667	1068.594727	68.076012
9351.149468	5041.316667	1067.447266	182.323944
9351.149468	5041.316667	1066.298828	145.710373
9351.149468	5041.316667	1065.149414	213.036865
9351.149468	5041.316667	1064.000977	92.976227
9351.149468	5041.316667	1062.851563	59.385818
9351.149468	5041.316667	1061.702148	56.238224
9351.149468	5041.316667	1060.552734	118.137314
9351.149468	5041.316667	1059.402344	18.798119
9351.149468	5041.316667	1058.252930	127.913933
9351.149468	5041.316667	1057.102539	12.270892
9351.149468	5041.316667	1055.951172	105.681801
9351.149468	5041.316667	1054.800781	15.028573
9351.149468	5041.316667	1053.649414	-47.293156
9351.149468	5041.316667	1052.498047	17.902767
9351.149468	5041.316667	1051.346680	46.326683
9351.149468	5041.316667	1050.194336	61.511101
9351.149468	5041.316667	1049.042969	73.091103
9351.149468	5041.316667	1047.890625	54.578091
9351.149468	5041.316667	1046.738281	26.870012
9351.149468	5041.316667	1045.584961	52.081337
9351.149468	5041.316667	1044.431641	57.692101
9351.149468	5041.316667	1043.278320	119.964668
9351.149468	5041.316667	1042.125000	-9.903048
9351.149468	5041.316667	1040.971680	155.664322
9351.149468	5041.316667	1039.817383	109.477180
9351.149468	5041.316667	1038.663086	-3.030678
9351.149468	5041.316667	1037.508789	156.942917
9351.149468	5041.316667	1036.353516	186.742508
9351.149468	5041.316667	1035.198242	12.891053
9351.149468	5041.316667	1034.042969	84.212975
9351.149468	5041.316667	1032.887695	60.618851
9351.149468	5041.316667	1031.732422	130.010498
9351.149468	5041.316667	1030.576172	81.529709
9351.149468	5041.316667	1029.419922	148.921768
9351.149468	5041.316667	1028.263672	55.703968
9351.149468	5041.316667	1027.106445	22.143538
9351.149468	5041.316667	1025.949219	30.936758
9351.149468	5041.316667	1024.792969	98.760956
9351.149468	5041.316667	1023.634766	135.439026
9351.149468	5041.316667	1022.477539	215.364090
9351.149468	5041.316667	1021.319336	150.867157
9351.149468	5041.316667	1020.161133	85.045258
9351.149468	5041.316667	1019.002930	73.545616
9351.149468	5041.316667	1017.843750	143.628448
9351.149468	5041.316667	1016.684570	88.893112
9351.149468	5041.316667	1015.525391	132.995102
9351.149468	5041.316667	1014.366211	205.334351
9351.149468	5041.316667	1013.207031	52.427197
9351.149468	5041.316667	1012.046875	50.598255
9351.149468	5041.316667	1010.886719	143.092499
9351.149468	5041.316667	1009.726563	81.508072
9351.149468	5041.316667	1008.565430	112.135109
9351.149468	5041.316667	1007.404297	116.305809
9351.149468	5041.316667	1006.243164	92.132027
9351.149468	5041.316667	1005.082031	128.183121
9351.149468	5041.316667	1003.920898	213.331451
9351.149468	5041.316667	1002.758789	208.974472
9351.149468	5041.316667	1001.596680	164.741852
9351.149468	5041.316667	1000.433594	173.703384
9351.149468	5041.316667	999.271484	180.590759
9351.149468	5041.316667	998.108398	142.369370
9351.149468	5041.316667	996.945313	164.767883
9351.149468	5041.316667	995.782227	167.181900
9351.149468	5041.316667	994.618164	260.357819
9351.149468	5041.316667	993.454102	187.239990
9351.149468	5041.316667	992.290039	146.218887
9351.149468	5041.316667	991.125977	215.375137
9351.149468	5041.316667	989.960938	249.786377
9351.149468	5041.316667	988.796875	184.120560
9351.149468	5041.316667	987.630859	153.699020
9351.149468	5041.316667	986.465820	143.669342
9351.149468	5041.316667	985.300781	209.698761
9351.149468	5041.316667	984.134766	229.643158
9351.149468	5041.316667	982.968750	148.017166
9351.149468	5041.316667	981.801758	132.275513
9351.149468	5041.316667	980.635742	83.349159
9351.149468	5041.316667	979.468750	193.739182
9351.149468	5041.316667	978.301758	89.698639
9351.149468	5041.316667	977.133789	180.948990
9351.149468	5041.316667	975.966797	20.384052
9351.149468	5041.316667	974.798828	69.909042
9351.149468	5041.316667	973.630859	192.689209
9351.149468	5041.316667	972.461914	-122.723480
9351.149468	5041.316667	971.293945	61.465611
9351.149468	5041.316667	970.125000	176.845856
9351.149468	5041.316667	968.956055	-10.411275
9351.149468	5041.316667	967.786133	21.992676
9351.149468	5041.316667	966.617188	107.567131
9351.149468	5041.316667	965.447266	8.457711
9351.149468	5041.316667	964.276367	-8.242473
9351.149468	5041.316667	963.106445	169.391663
9351.149468	5041.316667	961.935547	199.466553
9351.149468	5041.316667	960.764648	54.449463
9351.149468	5041.316667	959.593750	-35.324707
9351.149468	5041.316667	958.422852	36.078522
9351.149468	5041.316667	957.250977	-69.021034
9351.149468	5041.316667	956.079102	105.987526
9351.149468	5041.316667	954.907227	58.341694
9351.149468	5041.316667	953.734375	-0.410749
9351.149468	5041.316667	952.562500	-17.386093
9351.149468	5041.316667	951.389648	110.570847
9351.149468	5041.316667	950.215820	6.357170
9351.149468	5041.316667	949.042969	67.818146
9351.149468	5041.316667	947.869141	-31.178757
9351.149468	5041.316667	946.695313	-12.587618
9351.149468	5041.316667	945.521484	-43.207809
9351.149468	5041.316667	944.346680	15.907738
9351.149468	5041.316667	943.172852	-3.483410
9351.149468	5041.316667	941.998047	41.384739
9351.149468	5041.316667	940.822266	119.199585
9351.149468	5041.316667	939.647461	62.180981
9351.149468	5041.316667	938.471680	50.336998
9351.149468	5041.316667	937.295898	66.549156
9351.149468	5041.316667	936.119141	134.871109
9351.149468	5041.316667	934.943359	56.609505
9351.149468	5041.316667	933.766602	13.780359
9351.149468	5041.316667	932.589844	122.129768
9351.149468	5041.316667	931.413086	140.669678
9351.149468	5041.316667	930.235352	-8.493378
9351.149468	5041.316667	929.057617	38.417294
9351.149468	5041.316667	927.879883	137.238831
9351.149468	5041.316667	926.702148	-56.819561
9351.149468	5041.316667	925.523438	-14.712419
9351.149468	5041.316667	924.344727	100.536469
9351.149468	5041.316667	923.166016	64.685143
9351.149468	5041.316667	921.987305	-4.212933
9351.149468	5041.316667	920.807617	-4.679007
9351.149468	5041.316667	919.627930	-4.385241
9351.149468	5041.316667	919.497070	49.128075
9351.149468	5041.316667	918.331055	126.445236
9351.149468	5041.316667	917.165039	-20.297182
9351.149468	5041.316667	915.999023	61.684258
9351.149468	5041.316667	914.833008	75.261368
9351.149468	5041.316667	913.666016	110.026360
9351.149468	5041.316667	912.499023	88.214851
9351.149468	5041.316667	911.332031	108.797554
9351.149468	5041.316667	910.165039	134.066925
9351.149468	5041.316667	908.997070	105.153465
9351.149468	5041.316667	907.830078	57.403355
9351.149468	5041.316667	906.661133	44.963623
9351.149468	5041.316667	905.493164	41.927223
9351.149468	5041.316667	904.325195	-52.879330
9351.149468	5041.316667	903.156250	85.212959
9351.149468	5041.316667	901.987305	-16.647055
9351.149468	5041.316667	900.818359	90.787201
9351.149468	5041.316667	899.648438	73.570442
9351.149468	5041.316667	898.478516	68.099113
9351.149468	5041.316667	897.308594	119.014069
9351.149468	5041.316667	896.138672	47.727428
9351.149468	5041.316667	894.968750	39.877865
9351.149468	5041.316667	893.797852	20.277121
9351.149468	5041.316667	892.626953	125.113678
9351.149468	5041.316667	891.456055	49.140472
9351.149468	5041.316667	890.284180	95.230247
9351.149468	5041.316667	889.113281	70.894829
9351.149468	5041.316667	887.941406	62.980293
9351.149468	5041.316667	886.768555	48.021523
9351.149468	5041.316667	885.596680	23.677853
9351.149468	5041.316667	884.423828	43.881248
9351.149468	5041.316667	883.250977	-22.666067
9351.149468	5041.316667	882.078125	74.858665
9351.149468	5041.316667	880.905273	113.755013
9351.149468	5041.316667	879.731445	89.373421
9351.149468	5041.316667	878.557617	128.232315
9351.149468	5041.316667	877.383789	96.814613
9351.149468	5041.316667	876.209961	116.908386
9351.149468	5041.316667	875.035156	3.561831
9351.149468	5041.316667	873.860352	2.587089
9351.149468	5041.316667	872.685547	-75.608856
9351.149468	5041.316667	871.510742	131.617538
9351.149468	5041.316667	870.334961	186.726303
9351.149468	5041.316667	869.159180	21.998348
9351.149468	5041.316667	867.983398	16.307457
9351.149468	5041.316667	866.807617	33.986137
9351.149468	5041.316667	865.630859	-72.206543
9351.149468	5041.316667	864.454102	17.900002
9351.149468	5041.316667	863.277344	-39.202782
9351.149468	5041.316667	862.100586	-21.552258
9351.149468	5041.316667	860.922852	-6.249982
9351.149468	5041.316667	859.745117	97.753311
9351.149468	5041.316667	858.567383	-57.372219
9351.149468	5041.316667	857.389648	-121.429337
9351.149468	5041.316667	856.210938	64.176926
9351.149468	5041.316667	855.032227	7.109366
9351.149468	5041.316667	853.853516	99.318161
9351.149468	5041.316667	852.674805	51.585262
9351.149468	5041.316667	851.495117	148.401123
9351.149468	5041.316667	850.315430	-11.204257
9351.149468	5041.316667	849.135742	-70.547562
9351.149468	5041.316667	847.956055	-32.020424
9351.149468	5041.316667	846.775391	-30.780849
9351.149468	5041.316667	845.595703	68.265144
9351.149468	5041.316667	844.415039	-77.205513
9351.149468	5041.316667	843.233398	112.589127
9351.149468	5041.316667	842.052734	27.675409
9351.149468	5041.316667	840.871094	-96.762413
9351.149468	5041.316667	839.689453	-42.018070
9351.149468	5041.316667	838.506836	-12.883384
9351.149468	5041.316667	837.325195	69.723183
9351.149468	5041.316667	836.142578	-10.453115
9351.149468	5041.316667	834.959961	0.057178
9351.149468	5041.316667	833.777344	29.154390
9351.149468	5041.316667	832.593750	37.326962
9351.149468	5041.316667	831.410156	-59.041607
9351.149468	5041.316667	830.226563	-55.500450
9351.149468	5041.316667	829.042969	-44.994705
9351.149468	5041.316667	827.858398	60.692566
9351.149468	5041.316667	826.673828	1.535929
9351.149468	5041.316667	825.489258	-32.068703
9351.149468	5041.316667	824.304688	15.547050
9351.149468	5041.316667	823.120117	39.946819
9351.149468	5041.316667	821.934570	-21.474234
9351.149468	5041.316667	820.749023	-55.044064
9351.149468	5041.316667	819.562500	-118.736656
9351.149468	5041.316667	818.376953	-64.194153
9351.149468	5041.316667	817.190430	-11.990679
9351.149468	5041.316667	816.003906	-77.965172
9351.149468	5041.316667	814.817383	-60.522530
9351.149468	5041.316667	813.629883	-40.769318
9351.149468	5041.316667	812.442383	62.331722
9351.149468	5041.316667	811.254883	-68.414352
9351.149468	5041.316667	810.067383	23.081942
9351.149468	5041.316667	808.878906	-1.155602
9351.149468	5041.316667	807.690430	39.396828
9351.149468	5041.316667	806.501953	-17.211096
9351.149468	5041.316667	805.313477	-32.167496
9351.149468	5041.316667	804.124023	8.373934
9351.149468	5041.316667	802.934570	-38.938023
9351.149468	5041.316667	801.745117	133.326172
9351.149468	5041.316667	800.555664	159.953247
9351.149468	5041.316667	799.365234	45.654472
9351.149468	5041.316667	798.175781	-43.187511
9351.149468	5041.316667	796.985352	-131.989578
9351.149468	5041.316667	795.793945	-12.968677
9351.149468	5041.316667	794.603516	-134.048370
9351.149468	5041.316667	793.412109	-56.608654
9351.149468	5041.316667	792.220703	20.802904
9351.149468	5041.316667	791.028320	100.492317
9351.149468	5041.316667	789.836914	-2.045553
9351.149468	5041.316667	788.644531	13.060278
9351.149468	5041.316667	787.452148	-91.714836
9351.149468	5041.316667	786.258789	-44.320984
9351.149468	5041.316667	785.066406	28.405830
9351.149468	5041.316667	783.873047	2.037785
9351.149468	5041.316667	782.679688	10.236480
9351.149468	5041.316667	781.485352	94.433418
9351.149468	5041.316667	780.291992	-44.741150
9351.149468	5041.316667	779.097656	117.708557
9351.149468	5041.316667	777.903320	-26.007793
9351.149468	5041.316667	776.708008	9.821319
9351.149468	5041.316667	775.512695	-21.076876
9351.149468	5041.316667	774.318359	-15.156324
9351.149468	5041.316667	773.122070	41.357182
9351.149468	5041.316667	771.926758	-88.378433
9351.149468	5041.316667	770.730469	140.534958
9351.149468	5041.316667	769.534180	-28.228170
9351.149468	5041.316667	768.337891	9.876580
9351.149468	5041.316667	767.141602	8.916824
9351.149468	5041.316667	765.944336	79.160721
9351.149468	5041.316667	764.747070	-36.618427
9351.149468	5041.316667	763.549805	40.501457
9351.149468	5041.316667	762.351563	69.391571
9351.149468	5041.316667	761.154297	66.146088
9351.149468	5041.316667	759.956055	14.724457
9351.149468	5041.316667	758.757813	89.491493
9351.149468	5041.316667	757.558594	1.399669
9351.149468	5041.316667	756.359375	115.125793
9351.149468	5041.316667	755.160156	1.856089
9351.149468	5041.316667	753.960938	99.498436
9351.149468	5041.316667	752.761719	87.112343
9351.149468	5041.316667	751.561523	-58.144405
9351.149468	5041.316667	750.361328	144.825134
9351.149468	5041.316667	749.160156	31.684858
9351.149468	5041.316667	747.959961	115.499527
9351.149468	5041.316667	746.758789	0.129989
9351.149468	5041.316667	745.557617	81.633827
9351.149468	5041.316667	744.356445	14.376919
9351.149468	5041.316667	743.154297	-4.807909
9351.149468	5041.316667	741.952148	19.474812
9351.149468	5041.316667	740.750000	151.226181
9351.149468	5041.316667	739.547852	86.308151
9351.149468	5041.316667	738.344727	-38.010174
9351.149468	5041.316667	737.142578	127.957466
9351.149468	5041.316667	735.939453	33.389290
9351.149468	5041.316667	734.735352	-4.028781
9351.149468	5041.316667	733.532227	88.750565
9351.149468	5041.316667	732.328125	85.591095
9351.149468	5041.316667	731.124023	-2.032908
9351.149468	5041.316667	729.918945	159.165695
9351.149468	5041.316667	728.714844	96.667320
9351.149468	5041.316667	727.509766	-4.588833
9351.149468	5041.316667	726.303711	165.636581
9351.149468	5041.316667	725.098633	73.532661
9351.149468	5041.316667	723.892578	150.190491
9351.149468	5041.316667	722.686523	49.011047
9351.149468	5041.316667	721.480469	-86.311760
9351.149468	5041.316667	720.274414	4.004117
9351.149468	5041.316667	719.067383	133.010208
9351.149468	5041.316667	717.860352	25.086489
9351.149468	5041.316667	716.653320	-98.732819
9351.149468	5041.316667	715.445313	96.237122
9351.149468	5041.316667	714.238281	-52.585125
9351.149468	5041.316667	713.030273	-26.113413
9351.149468	5041.316667	711.821289	39.025101
9351.149468	5041.316667	710.613281	-20.978321
9351.149468	5041.316667	709.404297	-85.506775
9351.149468	5041.316667	708.195313	15.979831
9351.149468	5041.316667	706.986328	-41.713295
9351.149468	5041.316667	705.776367	21.078369
9351.149468	5041.316667	704.566406	72.478905
9351.149468	5041.316667	703.356445	60.241016
9351.149468	5041.316667	702.146484	-61.024208
9351.149468	5041.316667	700.935547	-89.131996
9351.149468	5041.316667	699.724609	-85.444351
9351.149468	5041.316667	698.513672	31.739157
9351.149468	5041.316667	697.302734	1.348961
9351.149468	5041.316667	696.090820	75.344215
9351.149468	5041.316667	694.878906	-84.360710
9351.149468	5041.316667	693.666992	32.706333
9351.149468	5041.316667	692.455078	52.211109
9351.149468	5041.316667	691.242188	58.099335
9351.149468	5041.316667	690.029297	-90.155060
9351.149468	5041.316667	688.816406	165.032135
9351.149468	5041.316667	687.602539	-5.851634
9351.149468	5041.316667	686.389648	36.264339
9351.149468	5041.316667	685.175781	146.299042
9351.149468	5041.316667	683.960938	-22.228525
9351.149468	5041.316667	682.747070	53.800961
9351.149468	5041.316667	681.532227	159.214401
9351.149468	5041.316667	680.317383	-4.706132
9351.149468	5041.316667	679.102539	35.050304
9351.149468	5041.316667	677.886719	-31.528900
9351.149468	5041.316667	676.670898	-46.075249
9351.149468	5041.316667	675.455078	13.987645
9351.149468	5041.316667	674.239258	6.201492
9351.149468	5041.316667	673.022461	61.689384
9351.149468	5041.316667	671.805664	62.915306
9351.149468	5041.316667	670.588867	-10.418386
9351.149468	5041.316667	669.372070	47.266640
9351.149468	5041.316667	668.154297	100.400322
9351.149468	5041.316667	666.936523	29.331198
9351.149468	5041.316667	665.718750	3.423728
9351.149468	5041.316667	664.500977	-31.510599
9351.149468	5041.316667	663.282227	23.805777
9351.149468	5041.316667	662.063477	56.529770
9351.149468	5041.316667	660.844727	100.503632
9351.149468	5041.316667	659.625000	-8.878409
9351.149468	5041.316667	658.405273	91.422668
9351.149468	5041.316667	657.185547	108.276711
9351.149468	5041.316667	655.965820	134.123611
9351.149468	5041.316667	654.745117	56.313393
9351.149468	5041.316667	653.525391	-19.225180
9351.149468	5041.316667	652.303711	33.612640
9351.149468	5041.316667	651.083008	-1.392452
9351.149468	5041.316667	649.861328	112.165833
9351.149468	5041.316667	648.640625	110.886299
9351.149468	5041.316667	647.417969	89.340828
9351.149468	5041.316667	646.196289	137.524872
9351.149468	5041.316667	644.973633	-1.000109
9351.149468	5041.316667	643.750977	-114.748405
9351.149468	5041.316667	642.528320	180.691345
9351.149468	5041.316667	641.305664	71.414574
9351.149468	5041.316667	640.082031	29.581472
9351.149468	5041.316667	638.858398	-54.938663
9351.149468	5041.316667	637.634766	154.813141
9351.149468	5041.316667	636.410156	117.426720
9351.149468	5041.316667	635.185547	3.699169
9351.149468	5041.316667	633.960938	62.849716
9351.149468	5041.316667	632.736328	-14.946343
9351.149468	5041.316667	631.510742	-63.558937
9351.149468	5041.316667	630.285156	-26.922840
9351.149468	5041.316667	629.059570	108.365028
9351.149468	5041.316667	627.833984	-16.543209
9351.149468	5041.316667	626.607422	87.258102
9351.149468	5041.316667	625.380859	69.956329
9351.149468	5041.316667	624.154297	41.436512
9351.149468	5041.316667	622.927734	15.148870
9351.149468	5041.316667	621.700195	100.852051
9351.149468	5041.316667	620.472656	7.333588
9351.149468	5041.316667	619.245117	21.309353
9351.149468	5041.316667	618.016602	-2.799697
9351.149468	5041.316667	616.788086	-49.301174
9351.149468	5041.316667	615.559570	134.673141
9351.149468	5041.316667	614.331055	65.746132
9351.149468	5041.316667	613.101563	5.772033
9351.149468	5041.316667	611.872070	46.431374
9351.149468	5041.316667	610.642578	60.221302
9351.149468	5041.316667	609.413086	-44.487007
9351.149468	5041.316667	608.182617	-15.086656
9351.149468	5041.316667	606.952148	-68.392151
9351.149468	5041.316667	605.721680	-39.045971
9351.149468	5041.316667	604.491211	-87.903969
9351.149468	5041.316667	603.259766	-31.819246
9351.149468	5041.316667	602.028320	142.536346
9351.149468	5041.316667	600.796875	44.495476
9351.149468	5041.316667	599.564453	15.647114
9351.149468	5041.316667	598.332031	20.251881
9351.149468	5041.316667	597.099609	51.596542
9351.149468	5041.316667	595.867188	76.213242
9351.149468	5041.316667	594.633789	-6.226081
9351.149468	5041.316667	593.400391	29.487783
9351.149468	5041.316667	592.166992	-23.983860
9351.149468	5041.316667	590.933594	143.130173
9351.149468	5041.316667	589.699219	47.280586
9351.149468	5041.316667	588.464844	-32.962955
9351.149468	5041.316667	587.230469	142.877045
9351.149468	5041.316667	585.995117	51.464893
9351.149468	5041.316667	584.760742	98.066368
9351.149468	5041.316667	583.525391	71.186119
9351.149468	5041.316667	582.289063	39.841423
9351.149468	5041.316667	581.053711	15.159276
9351.149468	5041.316667	579.817383	77.192589
9351.149468	5041.316667	578.581055	110.270020
9351.149468	5041.316667	577.343750	5.484503
9351.149468	5041.316667	576.107422	69.627052
9351.149468	5041.316667	574.870117	18.172085
9351.149468	5041.316667	573.631836	24.472134
9351.149468	5041.316667	572.394531	50.735092
9351.149468	5041.316667	571.156250	136.915756
9351.149468	5041.316667	569.917969	63.187969
9351.149468	5041.316667	568.679688	-30.509960
9351.149468	5041.316667	567.440430	91.062775
9351.149468	5041.316667	566.202148	41.722950
9351.149468	5041.316667	564.961914	67.795036
9351.149468	5041.316667	563.722656	131.534149
9351.149468	5041.316667	562.482422	135.354355
9351.149468	5041.316667	561.243164	154.667603
9351.149468	5041.316667	560.001953	185.026672
9351.149468	5041.316667	558.761719	62.458187
9351.149468	5041.316667	557.520508	-6.914903
9351.149468	5041.316667	556.279297	38.891838
9351.149468	5041.316667	555.038086	168.802673
9351.149468	5041.316667	553.795898	101.592987
9351.149468	5041.316667	552.554688	29.963593
9351.149468	5041.316667	551.311523	153.081497
9351.149468	5041.316667	550.069336	147.799652
9351.149468	5041.316667	548.826172	82.770409
9351.149468	5041.316667	547.583984	137.173492
9351.149468	5041.316667	546.339844	96.450172
9351.149468	5041.316667	545.096680	181.730011
9351.149468	5041.316667	543.852539	134.341034
9351.149468	5041.316667	542.608398	49.386353
9351.149468	5041.316667	541.364258	68.279366
9351.149468	5041.316667	540.119141	115.855423
9351.149468	5041.316667	538.875000	117.018936
9351.149468	5041.316667	537.628906	173.352737
9351.149468	5041.316667	536.383789	-17.573990
9351.149468	5041.316667	535.137695	-18.652636
9351.149468	5041.316667	533.892578	-61.669071
9351.149468	5041.316667	532.645508	87.222832
9351.149468	5041.316667	531.399414	-52.875320
9351.149468	5041.316667	530.152344	-20.948000
9351.149468	5041.316667	528.905273	-26.528046
9351.149468	5041.316667	527.658203	22.976976
9351.149468	5041.316667	526.410156	6.335720
9351.149468	5041.316667	525.163086	27.139015
9351.149468	5041.316667	523.914063	45.710567
9351.149468	5041.316667	522.666016	-52.451206
9351.149468	5041.316667	521.416992	56.365143
9351.149468	5041.316667	520.167969	-13.174109
9351.149468	5041.316667	518.918945	55.945156
9351.149468	5041.316667	517.669922	-6.992192
9351.149468	5041.316667	516.419922	-56.719727
9351.149468	5041.316667	515.169922	-71.250778
9351.149468	5041.316667	513.919922	13.157298
9351.149468	5041.316667	512.668945	9.581963
9351.149468	5041.316667	511.417969	19.183264
9351.149468	5041.316667	510.166992	-85.494621
9351.149468	5041.316667	508.916016	-42.945824
9351.149468	5041.316667	507.664063	-24.588270
9351.149468	5041.316667	506.412109	-26.012346
9351.149468	5041.316667	505.160156	-5.490262
9351.149468	5041.316667	503.907227	-186.929932
9351.149468	5041.316667	502.655273	-87.395851
9351.149468	5041.316667	501.402344	115.206764
9351.149468	5041.316667	500.148438	23.770027
9351.149468	5041.316667	498.895508	-63.245880
9351.149468	5041.316667	497.641602	3.253087
9351.149468	5041.316667	496.387695	12.720798
9351.149468	5041.316667	495.132813	-21.657661
9351.149468	5041.316667	493.878906	40.390671
9351.149468	5041.316667	492.624023	-13.704977
9351.149468	5041.316667	491.368164	-30.548346
9351.149468	5041.316667	490.113281	-32.056892
9351.149468	5041.316667	488.857422	128.442734
9351.149468	5041.316667	487.601563	80.926628
9351.149468	5041.316667	486.344727	33.426533
9351.149468	5041.316667	485.088867	-29.367344
9351.149468	5041.316667	483.832031	12.861151
9351.149468	5041.316667	482.575195	-32.408730
9351.149468	5041.316667	481.317383	-121.391838
9351.149468	5041.316667	480.059570	-111.963669
9351.149468	5041.316667	478.801758	-6.372536
9351.149468	5041.316667	477.543945	-12.266421
9351.149468	5041.316667	476.285156	-103.358734
9351.149468	5041.316667	475.027344	-87.383171
9351.149468	5041.316667	473.767578	-145.661530
9351.149468	5041.316667	472.508789	-24.884611
9351.149468	5041.316667	471.249023	43.455376
9351.149468	5041.316667	469.989258	142.322174
9351.149468	5041.316667	468.729492	12.059685
9351.149468	5041.316667	467.469727	-65.789253
9351.149468	5041.316667	466.208984	-6.206429
9351.149468	5041.316667	464.948242	59.897579
9351.149468	5041.316667	463.686523	82.377388
9351.149468	5041.316667	462.425781	26.395784
9351.149468	5041.316667	461.164063	-27.378370
9351.149468	5041.316667	459.901367	106.227562
9351.149468	5041.316667	458.639648	74.253708
9351.149468	5041.316667	457.376953	35.765392
9351.149468	5041.316667	456.114258	77.854279
9351.149468	5041.316667	454.851563	104.695824
9351.149468	5041.316667	453.587891	72.775383
9351.149468	5041.316667	452.324219	-41.800339
9351.149468	5041.316667	451.060547	-49.732418
9351.149468	5041.316667	449.796875	-14.158506
9351.149468	5041.316667	448.532227	34.452568
9351.149468	5041.316667	447.267578	-38.683754
9351.149468	5041.316667	446.002930	-22.672983
9351.149468	5041.316667	444.737305	123.708839
9351.149468	5041.316667	443.471680	122.311790
9351.149468	5041.316667	442.206055	57.936996
9351.149468	5041.316667	440.940430	78.284447
9351.149468	5041.316667	439.673828	-33.802383
9351.149468	5041.316667	438.407227	6.103045
9351.149468	5041.316667	437.140625	-8.253979
9351.149468	5041.316667	435.873047	35.978680
9351.149468	5041.316667	434.605469	-97.669563
9351.149468	5041.316667	433.337891	13.802793
9351.149468	5041.316667	432.070313	1.645225
9351.149468	5041.316667	430.801758	45.856174
9351.149468	5041.316667	429.533203	22.867172
9351.149468	5041.316667	428.264648	95.228813
9351.149468	5041.316667	426.996094	33.250916
9351.149468	5041.316667	425.726563	40.606003
9351.149468	5041.316667	424.457031	15.477804
9351.149468	5041.316667	423.186523	-37.784512
9351.149468	5041.316667	421.916992	-0.117951
9351.149468	5041.316667	420.646484	124.086273
9351.149468	5041.316667	419.375977	-15.712021
9351.149468	5041.316667	418.104492	60.845818
9351.149468	5041.316667	416.833008	-37.802517
9351.149468	5041.316667	415.561523	-13.176441
9351.149468	5041.316667	414.290039	158.419388
9351.149468	5041.316667	413.017578	139.748566
9351.149468	5041.316667	411.746094	88.665993
9351.149468	5041.316667	410.472656	100.233337
9351.149468	5041.316667	409.200195	-22.120377
9351.149468	5041.316667	407.926758	-40.796066
9351.149468	5041.316667	406.653320	247.066177
9351.149468	5041.316667	405.379883	204.558548
9351.149468	5041.316667	404.105469	321.725159
9351.149468	5041.316667	402.831055	59.114578
9351.149468	5041.316667	401.556641	27.380249
9351.149468	5041.316667	400.282227	4.255524
9351.149468	5041.316667	399.006836	108.308411
9351.149468	5041.316667	397.731445	106.659416
9351.149468	5041.316667	396.456055	-17.864666
9351.149468	5041.316667	395.179688	90.315430
9351.149468	5041.316667	393.903320	62.694950
9351.149468	5041.316667	392.626953	93.186714
9351.149468	5041.316667	391.350586	71.937813
9351.149468	5041.316667	390.073242	39.877438
9351.149468	5041.316667	388.795898	31.446728
9351.149468	5041.316667	387.518555	-0.711555
9351.149468	5041.316667	386.240234	83.245293
9351.149468	5041.316667	384.961914	-47.987999
9351.149468	5041.316667	383.683594	53.000912
9351.149468	5041.316667	382.405273	72.171089
9351.149468	5041.316667	381.125977	129.936661
9351.149468	5041.316667	379.846680	-44.499756
9351.149468	5041.316667	378.567383	47.461048
9351.149468	5041.316667	377.287109	100.615784
9351.149468	5041.316667	376.006836	37.676029
9351.149468	5041.316667	374.726563	56.244377
9351.149468	5041.316667	373.446289	10.291885
9351.149468	5041.316667	372.165039	133.782669
9351.149468	5041.316667	370.883789	89.729156
9351.149468	5041.316667	369.602539	2.658480
9351.149468	5041.316667	368.320313	-99.530106
9351.149468	5041.316667	367.039063	55.499573
9351.149468	5041.316667	365.755859	107.398491
9351.149468	5041.316667	364.473633	77.672028
9351.149468	5041.316667	363.190430	9.216311
9351.149468	5041.316667	361.907227	-27.247021
9351.149468	5041.316667	360.624023	0.382873
9351.149468	5041.316667	359.340820	68.499565
9351.149468	5041.316667	358.056641	10.063978
9351.149468	5041.316667	356.772461	-69.958046
9351.149468	5041.316667	355.487305	74.545456
9351.149468	5041.316667	354.202148	141.734940
9351.149468	5041.316667	352.916992	7.581342
9351.149468	5041.316667	351.631836	-11.266908
9351.149468	5041.316667	350.346680	-41.049843
9351.149468	5041.316667	349.060547	18.698210
9351.149468	5041.316667	347.774414	1.204612
9351.149468	5041.316667	346.487305	-16.570848
9351.149468	5041.316667	345.200195	104.230827
9351.149468	5041.316667	343.913086	58.074230
9351.149468	5041.316667	342.625977	124.798141
9351.149468	5041.316667	341.338867	22.502287
9351.149468	5041.316667	340.050781	35.165707
9351.149468	5041.316667	338.762695	90.150879
9351.149468	5041.316667	337.473633	74.329193
9351.149468	5041.316667	336.184570	-39.988308
9351.149468	5041.316667	334.895508	-75.742149
9351.149468	5041.316667	333.606445	-94.829727
9351.149468	5041.316667	332.317383	37.020138
9351.149468	5041.316667	331.027344	-46.888420
9351.149468	5041.316667	329.736328	-75.821609
9351.149468	5041.316667	328.446289	3.446376
9351.149468	5041.316667	327.155273	-17.916250
9351.149468	5041.316667	325.864258	17.724794
9351.149468	5041.316667	324.573242	-130.252716
9351.149468	5041.316667	323.281250	55.456604
9351.149468	5041.316667	321.989258	-25.464262
9351.149468	5041.316667	320.697266	-30.327272
9351.149468	5041.316667	319.405273	-116.603500
9351.149468	5041.316667	318.112305	2.818549
9351.149468	5041.316667	316.819336	-52.779606
9351.149468	5041.316667	315.526367	33.420624
9351.149468	5041.316667	314.232422	12.643618
9351.149468	5041.316667	312.938477	-25.809124
9351.149468	5041.316667	311.644531	107.112953
9351.149468	5041.316667	310.349609	-77.215500
9351.149468	5041.316667	309.054688	92.381538
9351.149468	5041.316667	307.759766	114.651840
9351.149468	5041.316667	306.464844	-78.249603
9351.149468	5041.316667	305.168945	73.969780
9351.149468	5041.316667	303.873047	104.351395
9351.149468	5041.316667	302.577148	10.828386
9351.149468	5041.316667	301.281250	134.867050
9351.149468	5041.316667	299.984375	219.744812
