#X		#Y		#Wave		#Intensity
9916.702660	4320.948333	1999.946289	82.786285
9916.702660	4320.948333	1998.981445	2.884825
9916.702660	4320.948333	1998.017578	26.319393
9916.702660	4320.948333	1997.052734	-19.643549
9916.702660	4320.948333	1996.088867	-28.425638
9916.702660	4320.948333	1995.124023	12.338210
9916.702660	4320.948333	1994.159180	40.701359
9916.702660	4320.948333	1993.193359	22.003590
9916.702660	4320.948333	1992.228516	10.739276
9916.702660	4320.948333	1991.262695	11.854544
9916.702660	4320.948333	1990.296875	35.242100
9916.702660	4320.948333	1989.331055	-89.846069
9916.702660	4320.948333	1988.365234	15.190642
9916.702660	4320.948333	1987.398438	-18.329967
9916.702660	4320.948333	1986.432617	-59.257286
9916.702660	4320.948333	1985.465820	-58.137394
9916.702660	4320.948333	1984.499023	66.588913
9916.702660	4320.948333	1983.532227	-36.127190
9916.702660	4320.948333	1982.565430	14.409632
9916.702660	4320.948333	1981.597656	-26.491634
9916.702660	4320.948333	1980.629883	117.894218
9916.702660	4320.948333	1979.662109	20.179991
9916.702660	4320.948333	1978.694336	-18.232948
9916.702660	4320.948333	1977.726563	133.475235
9916.702660	4320.948333	1976.758789	11.125325
9916.702660	4320.948333	1975.790039	36.900333
9916.702660	4320.948333	1974.821289	144.094299
9916.702660	4320.948333	1973.852539	-153.356491
9916.702660	4320.948333	1972.883789	15.497390
9916.702660	4320.948333	1971.915039	9.188427
9916.702660	4320.948333	1970.945313	84.249451
9916.702660	4320.948333	1969.975586	114.906624
9916.702660	4320.948333	1969.005859	5.057404
9916.702660	4320.948333	1968.036133	-48.071674
9916.702660	4320.948333	1967.066406	-29.729650
9916.702660	4320.948333	1966.096680	-80.371140
9916.702660	4320.948333	1965.125977	63.579414
9916.702660	4320.948333	1964.155273	5.548851
9916.702660	4320.948333	1963.184570	-69.695274
9916.702660	4320.948333	1962.213867	84.016434
9916.702660	4320.948333	1961.242188	149.067627
9916.702660	4320.948333	1960.271484	29.542501
9916.702660	4320.948333	1959.299805	52.753761
9916.702660	4320.948333	1958.328125	43.977859
9916.702660	4320.948333	1957.356445	-58.250568
9916.702660	4320.948333	1956.384766	11.678306
9916.702660	4320.948333	1955.412109	-43.799160
9916.702660	4320.948333	1954.439453	1.518291
9916.702660	4320.948333	1953.467773	71.392456
9916.702660	4320.948333	1952.495117	-33.210159
9916.702660	4320.948333	1951.521484	-2.664596
9916.702660	4320.948333	1950.548828	-31.078564
9916.702660	4320.948333	1949.575195	65.755157
9916.702660	4320.948333	1948.601563	0.507058
9916.702660	4320.948333	1947.627930	50.655113
9916.702660	4320.948333	1946.654297	83.602104
9916.702660	4320.948333	1945.680664	8.566733
9916.702660	4320.948333	1944.706055	34.145000
9916.702660	4320.948333	1943.732422	0.842492
9916.702660	4320.948333	1942.757813	-69.237114
9916.702660	4320.948333	1941.783203	49.511726
9916.702660	4320.948333	1940.807617	114.279251
9916.702660	4320.948333	1939.833008	107.939697
9916.702660	4320.948333	1938.857422	153.062546
9916.702660	4320.948333	1937.881836	78.107857
9916.702660	4320.948333	1936.906250	32.575058
9916.702660	4320.948333	1935.930664	85.028061
9916.702660	4320.948333	1934.955078	10.120122
9916.702660	4320.948333	1933.978516	45.413525
9916.702660	4320.948333	1933.001953	19.493313
9916.702660	4320.948333	1932.025391	-21.104935
9916.702660	4320.948333	1931.048828	-17.644466
9916.702660	4320.948333	1930.072266	71.440079
9916.702660	4320.948333	1929.094727	-18.075653
9916.702660	4320.948333	1928.118164	80.752449
9916.702660	4320.948333	1927.140625	45.055809
9916.702660	4320.948333	1926.163086	41.150936
9916.702660	4320.948333	1925.184570	42.131817
9916.702660	4320.948333	1924.207031	23.559767
9916.702660	4320.948333	1923.228516	12.320101
9916.702660	4320.948333	1922.250000	150.097488
9916.702660	4320.948333	1921.271484	63.116478
9916.702660	4320.948333	1920.292969	-43.371552
9916.702660	4320.948333	1919.314453	-113.200653
9916.702660	4320.948333	1918.334961	-17.016123
9916.702660	4320.948333	1917.355469	-25.816866
9916.702660	4320.948333	1916.375977	-115.143974
9916.702660	4320.948333	1915.396484	68.804726
9916.702660	4320.948333	1914.416992	-44.906399
9916.702660	4320.948333	1913.436523	12.134480
9916.702660	4320.948333	1912.457031	-8.875517
9916.702660	4320.948333	1911.476563	-51.824108
9916.702660	4320.948333	1910.496094	14.923612
9916.702660	4320.948333	1909.515625	96.263069
9916.702660	4320.948333	1908.534180	41.122665
9916.702660	4320.948333	1907.552734	27.411234
9916.702660	4320.948333	1906.572266	79.461952
9916.702660	4320.948333	1905.590820	146.098480
9916.702660	4320.948333	1904.608398	103.143463
9916.702660	4320.948333	1903.626953	121.056328
9916.702660	4320.948333	1902.644531	-53.311966
9916.702660	4320.948333	1901.663086	25.446249
9916.702660	4320.948333	1900.680664	19.018843
9916.702660	4320.948333	1899.698242	-28.762459
9916.702660	4320.948333	1898.714844	62.089287
9916.702660	4320.948333	1897.732422	4.580901
9916.702660	4320.948333	1896.749023	27.312326
9916.702660	4320.948333	1895.765625	47.598705
9916.702660	4320.948333	1894.782227	92.173843
9916.702660	4320.948333	1893.798828	-26.063417
9916.702660	4320.948333	1892.814453	-47.092957
9916.702660	4320.948333	1891.831055	21.744457
9916.702660	4320.948333	1890.846680	107.547722
9916.702660	4320.948333	1889.862305	-25.195633
9916.702660	4320.948333	1888.877930	-65.653648
9916.702660	4320.948333	1887.892578	49.222088
9916.702660	4320.948333	1886.908203	110.666054
9916.702660	4320.948333	1885.922852	11.959703
9916.702660	4320.948333	1884.937500	107.332314
9916.702660	4320.948333	1883.952148	105.656357
9916.702660	4320.948333	1882.965820	77.301987
9916.702660	4320.948333	1881.980469	-40.744781
9916.702660	4320.948333	1880.994141	-20.599031
9916.702660	4320.948333	1880.007813	14.072046
9916.702660	4320.948333	1879.021484	9.956851
9916.702660	4320.948333	1878.035156	141.491837
9916.702660	4320.948333	1877.047852	33.194565
9916.702660	4320.948333	1876.061523	152.554062
9916.702660	4320.948333	1875.074219	112.070419
9916.702660	4320.948333	1874.086914	42.547173
9916.702660	4320.948333	1873.098633	-131.025467
9916.702660	4320.948333	1872.111328	-35.952354
9916.702660	4320.948333	1871.123047	112.299232
9916.702660	4320.948333	1870.135742	1.677866
9916.702660	4320.948333	1869.147461	4.750932
9916.702660	4320.948333	1868.158203	-62.304420
9916.702660	4320.948333	1867.169922	-105.167503
9916.702660	4320.948333	1866.180664	108.176285
9916.702660	4320.948333	1865.192383	91.862602
9916.702660	4320.948333	1864.203125	-6.600323
9916.702660	4320.948333	1863.213867	-22.903481
9916.702660	4320.948333	1862.223633	47.735744
9916.702660	4320.948333	1861.234375	9.678663
9916.702660	4320.948333	1860.244141	24.740570
9916.702660	4320.948333	1859.253906	92.891640
9916.702660	4320.948333	1858.263672	-51.366730
9916.702660	4320.948333	1857.273438	180.832581
9916.702660	4320.948333	1856.282227	-28.542795
9916.702660	4320.948333	1855.291992	-6.296000
9916.702660	4320.948333	1854.300781	1.463363
9916.702660	4320.948333	1853.309570	-82.410690
9916.702660	4320.948333	1852.317383	36.229622
9916.702660	4320.948333	1851.326172	111.433762
9916.702660	4320.948333	1850.333984	181.780045
9916.702660	4320.948333	1849.342773	88.261337
9916.702660	4320.948333	1848.350586	42.943241
9916.702660	4320.948333	1847.357422	0.040019
9916.702660	4320.948333	1846.365234	51.053375
9916.702660	4320.948333	1845.372070	111.666527
9916.702660	4320.948333	1844.379883	152.992065
9916.702660	4320.948333	1843.386719	33.052029
9916.702660	4320.948333	1842.393555	47.889515
9916.702660	4320.948333	1841.399414	69.926620
9916.702660	4320.948333	1840.406250	-28.312866
9916.702660	4320.948333	1839.412109	68.257980
9916.702660	4320.948333	1838.417969	-111.711266
9916.702660	4320.948333	1837.423828	153.087448
9916.702660	4320.948333	1836.429688	78.898689
9916.702660	4320.948333	1835.434570	19.144033
9916.702660	4320.948333	1834.440430	-14.169709
9916.702660	4320.948333	1833.445313	84.628761
9916.702660	4320.948333	1832.450195	15.269629
9916.702660	4320.948333	1831.454102	58.777462
9916.702660	4320.948333	1830.458984	80.653770
9916.702660	4320.948333	1829.462891	11.301725
9916.702660	4320.948333	1828.466797	-41.236435
9916.702660	4320.948333	1827.470703	95.780457
9916.702660	4320.948333	1826.474609	21.635082
9916.702660	4320.948333	1825.478516	96.208252
9916.702660	4320.948333	1824.481445	36.455627
9916.702660	4320.948333	1823.484375	65.422432
9916.702660	4320.948333	1822.487305	-30.279560
9916.702660	4320.948333	1821.490234	-39.678207
9916.702660	4320.948333	1820.493164	73.119026
9916.702660	4320.948333	1819.495117	37.328007
9916.702660	4320.948333	1818.498047	92.560364
9916.702660	4320.948333	1817.500000	49.572536
9916.702660	4320.948333	1816.500977	6.588593
9916.702660	4320.948333	1815.502930	-53.146473
9916.702660	4320.948333	1814.504883	-19.525703
9916.702660	4320.948333	1813.505859	2.104693
9916.702660	4320.948333	1812.506836	148.127960
9916.702660	4320.948333	1811.507813	143.382935
9916.702660	4320.948333	1810.508789	81.229462
9916.702660	4320.948333	1809.508789	93.212891
9916.702660	4320.948333	1808.508789	148.213593
9916.702660	4320.948333	1807.508789	167.328217
9916.702660	4320.948333	1806.508789	57.373158
9916.702660	4320.948333	1805.508789	7.182858
9916.702660	4320.948333	1804.508789	31.056137
9916.702660	4320.948333	1803.507813	274.647186
9916.702660	4320.948333	1802.506836	157.543442
9916.702660	4320.948333	1801.505859	143.137497
9916.702660	4320.948333	1800.504883	78.596321
9916.702660	4320.948333	1799.502930	123.852867
9916.702660	4320.948333	1798.501953	99.882004
9916.702660	4320.948333	1797.500000	-24.295090
9916.702660	4320.948333	1796.498047	-0.547416
9916.702660	4320.948333	1795.496094	111.418961
9916.702660	4320.948333	1794.493164	118.415855
9916.702660	4320.948333	1793.491211	184.999298
9916.702660	4320.948333	1792.488281	-10.641647
9916.702660	4320.948333	1791.485352	98.810577
9916.702660	4320.948333	1790.482422	148.644073
9916.702660	4320.948333	1789.478516	-54.062317
9916.702660	4320.948333	1788.475586	157.713867
9916.702660	4320.948333	1787.471680	-18.747120
9916.702660	4320.948333	1786.467773	111.969048
9916.702660	4320.948333	1785.463867	106.944878
9916.702660	4320.948333	1784.459961	16.234587
9916.702660	4320.948333	1783.455078	144.453598
9916.702660	4320.948333	1782.450195	82.293121
9916.702660	4320.948333	1781.445313	15.386950
9916.702660	4320.948333	1780.440430	41.240471
9916.702660	4320.948333	1779.435547	17.141291
9916.702660	4320.948333	1778.429688	33.450397
9916.702660	4320.948333	1777.424805	-40.572708
9916.702660	4320.948333	1776.418945	44.629375
9916.702660	4320.948333	1775.413086	189.183487
9916.702660	4320.948333	1774.406250	41.496960
9916.702660	4320.948333	1773.400391	-20.645712
9916.702660	4320.948333	1772.393555	85.809868
9916.702660	4320.948333	1771.386719	85.381683
9916.702660	4320.948333	1770.379883	99.183540
9916.702660	4320.948333	1769.373047	82.117805
9916.702660	4320.948333	1768.365234	19.963820
9916.702660	4320.948333	1767.358398	126.252312
9916.702660	4320.948333	1766.350586	66.461868
9916.702660	4320.948333	1765.342773	92.050987
9916.702660	4320.948333	1764.334961	37.008465
9916.702660	4320.948333	1763.326172	-6.174473
9916.702660	4320.948333	1762.318359	12.268837
9916.702660	4320.948333	1761.309570	11.735836
9916.702660	4320.948333	1760.300781	23.036152
9916.702660	4320.948333	1759.291016	129.063797
9916.702660	4320.948333	1758.282227	2.961511
9916.702660	4320.948333	1757.272461	-42.604309
9916.702660	4320.948333	1756.262695	-33.717049
9916.702660	4320.948333	1755.252930	22.491976
9916.702660	4320.948333	1754.243164	109.431015
9916.702660	4320.948333	1753.233398	-47.363266
9916.702660	4320.948333	1752.222656	22.972813
9916.702660	4320.948333	1751.211914	-39.169476
9916.702660	4320.948333	1750.201172	-1.987844
9916.702660	4320.948333	1749.190430	13.891784
9916.702660	4320.948333	1748.179688	6.117404
9916.702660	4320.948333	1747.167969	137.762619
9916.702660	4320.948333	1746.156250	-7.096679
9916.702660	4320.948333	1745.144531	46.522476
9916.702660	4320.948333	1744.132813	111.919449
9916.702660	4320.948333	1743.121094	92.269600
9916.702660	4320.948333	1742.108398	-28.906754
9916.702660	4320.948333	1741.095703	-79.232376
9916.702660	4320.948333	1740.083008	172.538391
9916.702660	4320.948333	1739.070313	-52.439133
9916.702660	4320.948333	1738.057617	76.532883
9916.702660	4320.948333	1737.043945	26.180788
9916.702660	4320.948333	1736.030273	-2.938466
9916.702660	4320.948333	1735.016602	151.851944
9916.702660	4320.948333	1734.002930	73.194664
9916.702660	4320.948333	1732.989258	98.261147
9916.702660	4320.948333	1731.974609	-55.785286
9916.702660	4320.948333	1730.959961	-23.659111
9916.702660	4320.948333	1729.945313	-83.421295
9916.702660	4320.948333	1728.930664	-18.350571
9916.702660	4320.948333	1727.916016	-21.599703
9916.702660	4320.948333	1726.900391	41.058071
9916.702660	4320.948333	1725.885742	56.608891
9916.702660	4320.948333	1724.870117	-45.523586
9916.702660	4320.948333	1723.853516	111.185112
9916.702660	4320.948333	1722.837891	-5.052270
9916.702660	4320.948333	1721.822266	-34.233097
9916.702660	4320.948333	1720.805664	-6.977815
9916.702660	4320.948333	1719.789063	1.448421
9916.702660	4320.948333	1718.772461	-37.149620
9916.702660	4320.948333	1717.754883	15.911305
9916.702660	4320.948333	1716.738281	36.049129
9916.702660	4320.948333	1715.720703	-14.309691
9916.702660	4320.948333	1714.703125	71.572174
9916.702660	4320.948333	1713.685547	35.297359
9916.702660	4320.948333	1712.667969	-113.671654
9916.702660	4320.948333	1711.649414	-32.544235
9916.702660	4320.948333	1710.630859	39.155262
9916.702660	4320.948333	1709.612305	80.313156
9916.702660	4320.948333	1708.593750	-70.933739
9916.702660	4320.948333	1707.575195	-67.318245
9916.702660	4320.948333	1706.555664	-98.892532
9916.702660	4320.948333	1705.536133	19.600813
9916.702660	4320.948333	1704.516602	-89.357147
9916.702660	4320.948333	1703.497070	15.009562
9916.702660	4320.948333	1702.477539	84.177109
9916.702660	4320.948333	1701.457031	-29.443336
9916.702660	4320.948333	1700.437500	-70.407715
9916.702660	4320.948333	1699.416992	31.499275
9916.702660	4320.948333	1698.395508	67.791397
9916.702660	4320.948333	1697.375000	75.970848
9916.702660	4320.948333	1696.354492	-98.435982
9916.702660	4320.948333	1695.333008	-52.801144
9916.702660	4320.948333	1694.311523	-105.463326
9916.702660	4320.948333	1693.290039	82.841743
9916.702660	4320.948333	1692.267578	32.495888
9916.702660	4320.948333	1691.246094	106.102943
9916.702660	4320.948333	1690.223633	-51.790329
9916.702660	4320.948333	1689.201172	-118.465454
9916.702660	4320.948333	1688.178711	135.063522
9916.702660	4320.948333	1687.155273	44.995781
9916.702660	4320.948333	1686.132813	50.743816
9916.702660	4320.948333	1685.109375	54.144375
9916.702660	4320.948333	1684.085938	-5.515675
9916.702660	4320.948333	1683.062500	-83.837784
9916.702660	4320.948333	1682.039063	-36.077702
9916.702660	4320.948333	1681.014648	84.008179
9916.702660	4320.948333	1679.990234	71.031944
9916.702660	4320.948333	1678.965820	-0.271925
9916.702660	4320.948333	1677.941406	56.739761
9916.702660	4320.948333	1676.916992	95.067116
9916.702660	4320.948333	1675.891602	56.424435
9916.702660	4320.948333	1674.866211	87.729973
9916.702660	4320.948333	1673.840820	-16.169960
9916.702660	4320.948333	1672.815430	17.457180
9916.702660	4320.948333	1671.790039	90.675476
9916.702660	4320.948333	1670.763672	100.961899
9916.702660	4320.948333	1669.737305	78.633171
9916.702660	4320.948333	1668.710938	28.366173
9916.702660	4320.948333	1667.684570	108.488655
9916.702660	4320.948333	1666.658203	65.208755
9916.702660	4320.948333	1665.630859	28.920918
9916.702660	4320.948333	1664.603516	-30.625509
9916.702660	4320.948333	1663.576172	-15.709697
9916.702660	4320.948333	1662.548828	1.521998
9916.702660	4320.948333	1661.520508	51.296528
9916.702660	4320.948333	1660.493164	10.376668
9916.702660	4320.948333	1659.464844	85.692764
9916.702660	4320.948333	1658.436523	-24.949661
9916.702660	4320.948333	1657.408203	-70.490906
9916.702660	4320.948333	1656.378906	-116.020927
9916.702660	4320.948333	1655.350586	70.740181
9916.702660	4320.948333	1654.321289	-49.118095
9916.702660	4320.948333	1653.291992	23.779619
9916.702660	4320.948333	1652.261719	24.680773
9916.702660	4320.948333	1651.232422	41.828156
9916.702660	4320.948333	1650.202148	156.424545
9916.702660	4320.948333	1649.171875	-2.790420
9916.702660	4320.948333	1648.141602	12.023223
9916.702660	4320.948333	1647.111328	47.701550
9916.702660	4320.948333	1646.080078	20.757141
9916.702660	4320.948333	1645.049805	112.054390
9916.702660	4320.948333	1644.018555	68.880043
9916.702660	4320.948333	1642.987305	248.185669
9916.702660	4320.948333	1641.955078	-45.228577
9916.702660	4320.948333	1640.923828	71.483162
9916.702660	4320.948333	1639.891602	127.930397
9916.702660	4320.948333	1638.859375	61.630585
9916.702660	4320.948333	1637.827148	173.618042
9916.702660	4320.948333	1636.794922	77.243019
9916.702660	4320.948333	1635.761719	152.153336
9916.702660	4320.948333	1634.729492	51.191425
9916.702660	4320.948333	1633.696289	86.750977
9916.702660	4320.948333	1632.662109	39.030865
9916.702660	4320.948333	1631.628906	116.202110
9916.702660	4320.948333	1630.594727	135.541718
9916.702660	4320.948333	1629.561523	291.255859
9916.702660	4320.948333	1628.527344	60.960434
9916.702660	4320.948333	1627.493164	230.490753
9916.702660	4320.948333	1626.458008	101.942451
9916.702660	4320.948333	1625.423828	243.683777
9916.702660	4320.948333	1624.388672	129.040115
9916.702660	4320.948333	1623.353516	206.073822
9916.702660	4320.948333	1622.318359	105.334869
9916.702660	4320.948333	1621.282227	150.032150
9916.702660	4320.948333	1620.247070	208.561249
9916.702660	4320.948333	1619.210938	91.733406
9916.702660	4320.948333	1618.174805	147.945465
9916.702660	4320.948333	1617.137695	146.482025
9916.702660	4320.948333	1616.101563	89.687386
9916.702660	4320.948333	1615.064453	99.766357
9916.702660	4320.948333	1614.027344	135.196335
9916.702660	4320.948333	1612.990234	216.701096
9916.702660	4320.948333	1611.953125	185.287613
9916.702660	4320.948333	1610.916016	188.439896
9916.702660	4320.948333	1609.877930	228.439178
9916.702660	4320.948333	1608.839844	273.030914
9916.702660	4320.948333	1607.801758	174.879730
9916.702660	4320.948333	1606.763672	272.408691
9916.702660	4320.948333	1605.724609	243.335495
9916.702660	4320.948333	1604.685547	425.945160
9916.702660	4320.948333	1603.646484	291.047852
9916.702660	4320.948333	1602.607422	310.296051
9916.702660	4320.948333	1601.568359	283.553223
9916.702660	4320.948333	1600.528320	270.615692
9916.702660	4320.948333	1599.489258	266.884308
9916.702660	4320.948333	1598.449219	368.866730
9916.702660	4320.948333	1597.408203	309.979187
9916.702660	4320.948333	1596.368164	262.607727
9916.702660	4320.948333	1595.327148	341.576019
9916.702660	4320.948333	1594.287109	266.671997
9916.702660	4320.948333	1593.246094	212.462524
9916.702660	4320.948333	1592.204102	252.386215
9916.702660	4320.948333	1591.163086	214.275421
9916.702660	4320.948333	1590.121094	240.427460
9916.702660	4320.948333	1589.079102	154.168747
9916.702660	4320.948333	1588.037109	97.765999
9916.702660	4320.948333	1586.995117	211.082169
9916.702660	4320.948333	1585.953125	173.043640
9916.702660	4320.948333	1584.910156	41.043587
9916.702660	4320.948333	1583.867188	133.694504
9916.702660	4320.948333	1582.824219	141.537048
9916.702660	4320.948333	1581.781250	117.311104
9916.702660	4320.948333	1580.737305	148.069534
9916.702660	4320.948333	1579.693359	110.123520
9916.702660	4320.948333	1578.649414	154.622131
9916.702660	4320.948333	1577.605469	100.680733
9916.702660	4320.948333	1576.561523	142.890274
9916.702660	4320.948333	1575.516602	-13.982949
9916.702660	4320.948333	1574.472656	106.030838
9916.702660	4320.948333	1573.427734	205.417694
9916.702660	4320.948333	1572.381836	92.095268
9916.702660	4320.948333	1571.336914	6.264735
9916.702660	4320.948333	1570.291016	69.059174
9916.702660	4320.948333	1569.246094	227.831100
9916.702660	4320.948333	1568.200195	171.752701
9916.702660	4320.948333	1567.153320	42.595608
9916.702660	4320.948333	1566.107422	112.221069
9916.702660	4320.948333	1565.060547	28.818405
9916.702660	4320.948333	1564.013672	91.585388
9916.702660	4320.948333	1562.966797	3.672055
9916.702660	4320.948333	1561.919922	91.543854
9916.702660	4320.948333	1560.872070	-19.137285
9916.702660	4320.948333	1559.825195	59.598148
9916.702660	4320.948333	1558.777344	195.334625
9916.702660	4320.948333	1557.729492	125.778137
9916.702660	4320.948333	1556.680664	133.780106
9916.702660	4320.948333	1555.632813	27.808027
9916.702660	4320.948333	1554.583984	56.360001
9916.702660	4320.948333	1553.535156	27.941799
9916.702660	4320.948333	1552.486328	63.337727
9916.702660	4320.948333	1551.436523	41.782055
9916.702660	4320.948333	1550.387695	175.112274
9916.702660	4320.948333	1549.337891	71.594193
9916.702660	4320.948333	1548.288086	102.442497
9916.702660	4320.948333	1547.238281	39.970791
9916.702660	4320.948333	1546.187500	143.653625
9916.702660	4320.948333	1545.136719	181.326782
9916.702660	4320.948333	1544.086914	200.801514
9916.702660	4320.948333	1543.035156	65.624420
9916.702660	4320.948333	1541.984375	287.506470
9916.702660	4320.948333	1540.933594	131.931061
9916.702660	4320.948333	1539.881836	101.438713
9916.702660	4320.948333	1538.830078	177.777725
9916.702660	4320.948333	1537.778320	-4.914113
9916.702660	4320.948333	1536.725586	162.302231
9916.702660	4320.948333	1535.673828	134.148682
9916.702660	4320.948333	1534.621094	219.551987
9916.702660	4320.948333	1533.568359	93.800896
9916.702660	4320.948333	1532.515625	95.221207
9916.702660	4320.948333	1531.461914	37.649460
9916.702660	4320.948333	1530.409180	52.720028
9916.702660	4320.948333	1529.355469	256.078064
9916.702660	4320.948333	1528.301758	101.023994
9916.702660	4320.948333	1527.247070	-13.141264
9916.702660	4320.948333	1526.193359	65.458740
9916.702660	4320.948333	1525.138672	23.906305
9916.702660	4320.948333	1524.083984	113.824989
9916.702660	4320.948333	1523.029297	-84.031197
9916.702660	4320.948333	1521.974609	-134.548386
9916.702660	4320.948333	1520.918945	-24.227289
9916.702660	4320.948333	1519.863281	67.948654
9916.702660	4320.948333	1518.807617	-18.751400
9916.702660	4320.948333	1517.751953	107.369415
9916.702660	4320.948333	1516.696289	-65.271812
9916.702660	4320.948333	1515.639648	-4.780719
9916.702660	4320.948333	1514.583008	-98.127129
9916.702660	4320.948333	1513.526367	14.396574
9916.702660	4320.948333	1512.469727	-20.093311
9916.702660	4320.948333	1511.412109	130.833771
9916.702660	4320.948333	1510.355469	-61.862686
9916.702660	4320.948333	1509.297852	-28.473993
9916.702660	4320.948333	1508.240234	-53.830429
9916.702660	4320.948333	1507.181641	-24.945227
9916.702660	4320.948333	1506.124023	-34.450325
9916.702660	4320.948333	1505.065430	105.100868
9916.702660	4320.948333	1504.006836	9.810639
9916.702660	4320.948333	1502.948242	-4.164196
9916.702660	4320.948333	1501.888672	108.262810
9916.702660	4320.948333	1500.830078	55.947845
9916.702660	4320.948333	1499.770508	127.743896
9916.702660	4320.948333	1498.710938	93.521240
9916.702660	4320.948333	1497.650391	115.702309
9916.702660	4320.948333	1496.590820	34.182217
9916.702660	4320.948333	1495.530273	60.907841
9916.702660	4320.948333	1494.469727	-61.103165
9916.702660	4320.948333	1493.409180	28.754740
9916.702660	4320.948333	1492.348633	-88.661919
9916.702660	4320.948333	1491.287109	7.955130
9916.702660	4320.948333	1490.225586	-86.858948
9916.702660	4320.948333	1489.164063	-24.017647
9916.702660	4320.948333	1488.102539	-44.471100
9916.702660	4320.948333	1487.041016	56.630859
9916.702660	4320.948333	1485.978516	-98.802338
9916.702660	4320.948333	1484.916016	-155.166763
9916.702660	4320.948333	1483.853516	26.914116
9916.702660	4320.948333	1482.791016	-126.118240
9916.702660	4320.948333	1481.727539	-130.680496
9916.702660	4320.948333	1480.664063	114.265274
9916.702660	4320.948333	1479.600586	42.269913
9916.702660	4320.948333	1478.537109	6.256334
9916.702660	4320.948333	1477.473633	-74.608406
9916.702660	4320.948333	1476.409180	-207.094910
9916.702660	4320.948333	1475.344727	-0.492976
9916.702660	4320.948333	1474.280273	55.615913
9916.702660	4320.948333	1473.215820	-20.638792
9916.702660	4320.948333	1472.151367	-60.950886
9916.702660	4320.948333	1471.085938	24.421324
9916.702660	4320.948333	1470.020508	-33.824749
9916.702660	4320.948333	1468.955078	24.539949
9916.702660	4320.948333	1467.888672	-13.433268
9916.702660	4320.948333	1466.823242	49.358711
9916.702660	4320.948333	1465.756836	33.939369
9916.702660	4320.948333	1464.690430	45.205254
9916.702660	4320.948333	1463.624023	-34.980320
9916.702660	4320.948333	1462.556641	32.566868
9916.702660	4320.948333	1461.490234	81.563019
9916.702660	4320.948333	1460.422852	73.035210
9916.702660	4320.948333	1459.355469	-76.635246
9916.702660	4320.948333	1458.287109	62.410236
9916.702660	4320.948333	1457.219727	138.239777
9916.702660	4320.948333	1456.151367	47.206257
9916.702660	4320.948333	1455.083008	70.299820
9916.702660	4320.948333	1454.014648	148.098602
9916.702660	4320.948333	1452.945313	104.127808
9916.702660	4320.948333	1451.876953	23.564232
9916.702660	4320.948333	1450.807617	204.881073
9916.702660	4320.948333	1449.738281	74.362785
9916.702660	4320.948333	1448.668945	61.322384
9916.702660	4320.948333	1447.598633	-29.005871
9916.702660	4320.948333	1446.528320	155.406555
9916.702660	4320.948333	1445.458008	173.868271
9916.702660	4320.948333	1444.387695	191.700592
9916.702660	4320.948333	1443.317383	38.968983
9916.702660	4320.948333	1442.246094	137.308655
9916.702660	4320.948333	1441.174805	23.098156
9916.702660	4320.948333	1440.103516	18.217373
9916.702660	4320.948333	1439.032227	-69.582207
9916.702660	4320.948333	1437.960938	30.778538
9916.702660	4320.948333	1436.888672	192.920761
9916.702660	4320.948333	1435.816406	135.124252
9916.702660	4320.948333	1434.744141	55.666859
9916.702660	4320.948333	1433.670898	-83.999146
9916.702660	4320.948333	1432.598633	-39.896893
9916.702660	4320.948333	1431.525391	-2.206810
9916.702660	4320.948333	1430.452148	-21.727818
9916.702660	4320.948333	1429.378906	-13.451605
9916.702660	4320.948333	1428.304688	-8.611371
9916.702660	4320.948333	1427.231445	-9.461870
9916.702660	4320.948333	1426.157227	-92.910408
9916.702660	4320.948333	1425.083008	2.251324
9916.702660	4320.948333	1424.007813	64.838051
9916.702660	4320.948333	1422.933594	39.429329
9916.702660	4320.948333	1421.858398	-61.707680
9916.702660	4320.948333	1420.783203	-23.845217
9916.702660	4320.948333	1419.708008	99.457146
9916.702660	4320.948333	1418.631836	26.334044
9916.702660	4320.948333	1417.555664	34.380363
9916.702660	4320.948333	1416.479492	55.154697
9916.702660	4320.948333	1415.403320	8.951952
9916.702660	4320.948333	1414.327148	24.153963
9916.702660	4320.948333	1413.250000	-46.819878
9916.702660	4320.948333	1412.173828	1.093974
9916.702660	4320.948333	1411.096680	-52.275429
9916.702660	4320.948333	1410.018555	-9.759099
9916.702660	4320.948333	1408.941406	60.300629
9916.702660	4320.948333	1407.863281	22.478037
9916.702660	4320.948333	1406.785156	25.377083
9916.702660	4320.948333	1405.707031	21.350288
9916.702660	4320.948333	1404.628906	-26.454903
9916.702660	4320.948333	1403.549805	64.582237
9916.702660	4320.948333	1402.470703	28.557774
9916.702660	4320.948333	1401.391602	-0.653311
9916.702660	4320.948333	1400.312500	11.791731
9916.702660	4320.948333	1399.233398	148.198547
9916.702660	4320.948333	1398.153320	106.370064
9916.702660	4320.948333	1397.073242	95.215744
9916.702660	4320.948333	1395.993164	109.014854
9916.702660	4320.948333	1394.913086	-14.421112
9916.702660	4320.948333	1393.832031	-31.952717
9916.702660	4320.948333	1392.750977	87.438293
9916.702660	4320.948333	1391.669922	102.432556
9916.702660	4320.948333	1390.588867	1.915769
9916.702660	4320.948333	1389.506836	144.776962
9916.702660	4320.948333	1388.425781	56.756081
9916.702660	4320.948333	1387.343750	-13.966935
9916.702660	4320.948333	1386.261719	-76.617111
9916.702660	4320.948333	1385.178711	-52.111027
9916.702660	4320.948333	1384.096680	6.173438
9916.702660	4320.948333	1383.013672	133.171249
9916.702660	4320.948333	1381.930664	48.691006
9916.702660	4320.948333	1380.846680	133.193634
9916.702660	4320.948333	1379.763672	80.030586
9916.702660	4320.948333	1378.679688	296.524689
9916.702660	4320.948333	1377.595703	177.506378
9916.702660	4320.948333	1376.511719	146.553299
9916.702660	4320.948333	1375.427734	281.036469
9916.702660	4320.948333	1374.342773	154.367615
9916.702660	4320.948333	1373.257813	51.073425
9916.702660	4320.948333	1372.172852	117.501022
9916.702660	4320.948333	1371.087891	101.653282
9916.702660	4320.948333	1370.001953	50.356556
9916.702660	4320.948333	1368.916992	-9.437995
9916.702660	4320.948333	1367.831055	-10.895964
9916.702660	4320.948333	1366.744141	82.545631
9916.702660	4320.948333	1365.658203	198.032196
9916.702660	4320.948333	1364.571289	83.401642
9916.702660	4320.948333	1363.484375	202.936844
9916.702660	4320.948333	1362.397461	146.149445
9916.702660	4320.948333	1361.310547	189.582870
9916.702660	4320.948333	1360.222656	134.484970
9916.702660	4320.948333	1359.135742	110.466759
9916.702660	4320.948333	1358.047852	98.703285
9916.702660	4320.948333	1356.958984	163.352737
9916.702660	4320.948333	1355.871094	195.179794
9916.702660	4320.948333	1354.782227	161.328384
9916.702660	4320.948333	1353.693359	109.627083
9916.702660	4320.948333	1352.604492	208.693008
9916.702660	4320.948333	1351.515625	206.194061
9916.702660	4320.948333	1350.425781	93.539421
9916.702660	4320.948333	1349.335938	265.401825
9916.702660	4320.948333	1348.246094	-25.399441
9916.702660	4320.948333	1347.156250	69.222939
9916.702660	4320.948333	1346.066406	126.180023
9916.702660	4320.948333	1344.975586	157.478714
9916.702660	4320.948333	1343.884766	65.301941
9916.702660	4320.948333	1342.793945	-49.345978
9916.702660	4320.948333	1341.702148	93.419830
9916.702660	4320.948333	1340.611328	27.399708
9916.702660	4320.948333	1339.519531	40.808331
9916.702660	4320.948333	1338.427734	199.941330
9916.702660	4320.948333	1337.334961	68.147003
9916.702660	4320.948333	1336.243164	118.426270
9916.702660	4320.948333	1335.150391	121.476341
9916.702660	4320.948333	1334.057617	160.899414
9916.702660	4320.948333	1332.964844	68.955170
9916.702660	4320.948333	1331.871094	157.573547
9916.702660	4320.948333	1330.778320	40.599514
9916.702660	4320.948333	1329.684570	110.019020
9916.702660	4320.948333	1328.590820	117.346779
9916.702660	4320.948333	1327.496094	99.622169
9916.702660	4320.948333	1326.402344	110.315506
9916.702660	4320.948333	1325.307617	83.416283
9916.702660	4320.948333	1324.212891	52.236027
9916.702660	4320.948333	1323.117188	140.038284
9916.702660	4320.948333	1322.022461	78.375298
9916.702660	4320.948333	1320.926758	-6.100255
9916.702660	4320.948333	1319.831055	173.876221
9916.702660	4320.948333	1318.735352	114.521927
9916.702660	4320.948333	1317.638672	76.592659
9916.702660	4320.948333	1316.542969	30.709827
9916.702660	4320.948333	1315.446289	-10.962971
9916.702660	4320.948333	1314.349609	114.621475
9916.702660	4320.948333	1313.251953	57.577442
9916.702660	4320.948333	1312.155273	161.447113
9916.702660	4320.948333	1311.057617	68.936661
9916.702660	4320.948333	1309.959961	142.781250
9916.702660	4320.948333	1308.862305	36.284966
9916.702660	4320.948333	1307.763672	81.061172
9916.702660	4320.948333	1306.665039	151.169678
9916.702660	4320.948333	1305.566406	30.137239
9916.702660	4320.948333	1304.467773	96.036995
9916.702660	4320.948333	1303.369141	-14.718068
9916.702660	4320.948333	1302.269531	16.505491
9916.702660	4320.948333	1301.169922	19.995928
9916.702660	4320.948333	1300.070313	84.668175
9916.702660	4320.948333	1298.970703	43.812656
9916.702660	4320.948333	1297.870117	-9.089477
9916.702660	4320.948333	1296.769531	-93.597687
9916.702660	4320.948333	1295.668945	-54.944492
9916.702660	4320.948333	1294.568359	-56.856571
9916.702660	4320.948333	1293.466797	83.753731
9916.702660	4320.948333	1292.366211	43.949081
9916.702660	4320.948333	1291.264648	9.606075
9916.702660	4320.948333	1290.162109	82.583527
9916.702660	4320.948333	1289.060547	22.009956
9916.702660	4320.948333	1287.958008	35.740047
9916.702660	4320.948333	1286.855469	2.440784
9916.702660	4320.948333	1285.752930	-24.356695
9916.702660	4320.948333	1284.650391	104.500816
9916.702660	4320.948333	1283.546875	61.558113
9916.702660	4320.948333	1282.444336	90.633499
9916.702660	4320.948333	1281.339844	-6.265851
9916.702660	4320.948333	1280.236328	87.780891
9916.702660	4320.948333	1279.132813	152.312653
9916.702660	4320.948333	1278.028320	142.633087
9916.702660	4320.948333	1276.923828	133.432968
9916.702660	4320.948333	1275.819336	93.365021
9916.702660	4320.948333	1274.713867	70.165527
9916.702660	4320.948333	1273.608398	17.736677
9916.702660	4320.948333	1272.503906	41.062634
9916.702660	4320.948333	1271.397461	28.678228
9916.702660	4320.948333	1270.291992	-77.235779
9916.702660	4320.948333	1269.185547	24.870029
9916.702660	4320.948333	1268.080078	-5.837221
9916.702660	4320.948333	1266.972656	-14.081842
9916.702660	4320.948333	1265.866211	24.151749
9916.702660	4320.948333	1264.759766	-90.508011
9916.702660	4320.948333	1263.652344	-62.814468
9916.702660	4320.948333	1262.544922	-61.969566
9916.702660	4320.948333	1261.436523	-28.710033
9916.702660	4320.948333	1260.329102	1.932369
9916.702660	4320.948333	1259.220703	24.362232
9916.702660	4320.948333	1258.112305	-36.552597
9916.702660	4320.948333	1257.003906	25.802023
9916.702660	4320.948333	1255.895508	-46.044731
9916.702660	4320.948333	1254.786133	-122.621033
9916.702660	4320.948333	1253.676758	-100.902840
9916.702660	4320.948333	1252.567383	-68.006950
9916.702660	4320.948333	1251.458008	-34.126858
9916.702660	4320.948333	1250.347656	-97.764816
9916.702660	4320.948333	1249.237305	-93.304535
9916.702660	4320.948333	1248.126953	-7.334008
9916.702660	4320.948333	1247.016602	24.473785
9916.702660	4320.948333	1245.905273	18.011641
9916.702660	4320.948333	1244.793945	54.308418
9916.702660	4320.948333	1243.682617	-1.872819
9916.702660	4320.948333	1242.571289	14.658244
9916.702660	4320.948333	1241.459961	-55.708866
9916.702660	4320.948333	1240.347656	25.187731
9916.702660	4320.948333	1239.235352	84.239639
9916.702660	4320.948333	1238.123047	29.068825
9916.702660	4320.948333	1237.009766	10.182389
9916.702660	4320.948333	1235.897461	18.786949
9916.702660	4320.948333	1234.784180	83.909561
9916.702660	4320.948333	1233.670898	-32.756943
9916.702660	4320.948333	1232.556641	93.384926
9916.702660	4320.948333	1231.443359	19.067593
9916.702660	4320.948333	1230.329102	-11.069038
9916.702660	4320.948333	1229.214844	34.255737
9916.702660	4320.948333	1228.099609	29.803978
9916.702660	4320.948333	1226.985352	-32.249565
9916.702660	4320.948333	1225.870117	97.253143
9916.702660	4320.948333	1224.754883	14.086915
9916.702660	4320.948333	1223.639648	17.967451
9916.702660	4320.948333	1222.523438	20.174425
9916.702660	4320.948333	1221.408203	118.545609
9916.702660	4320.948333	1220.291992	2.674640
9916.702660	4320.948333	1219.174805	5.163970
9916.702660	4320.948333	1218.058594	143.693130
9916.702660	4320.948333	1216.941406	1.634108
9916.702660	4320.948333	1215.824219	18.212856
9916.702660	4320.948333	1214.707031	49.885307
9916.702660	4320.948333	1213.589844	21.679661
9916.702660	4320.948333	1212.471680	25.032387
9916.702660	4320.948333	1211.353516	69.234825
9916.702660	4320.948333	1210.235352	26.384022
9916.702660	4320.948333	1209.117188	-29.731558
9916.702660	4320.948333	1207.998047	96.601913
9916.702660	4320.948333	1206.878906	52.527809
9916.702660	4320.948333	1205.759766	-69.990120
9916.702660	4320.948333	1204.640625	-62.817711
9916.702660	4320.948333	1203.520508	13.382420
9916.702660	4320.948333	1202.401367	10.403913
9916.702660	4320.948333	1201.281250	-2.017304
9916.702660	4320.948333	1200.160156	-31.554180
9916.702660	4320.948333	1199.040039	-83.261742
9916.702660	4320.948333	1197.918945	-27.322481
9916.702660	4320.948333	1196.797852	-91.940735
9916.702660	4320.948333	1195.676758	26.512297
9916.702660	4320.948333	1194.555664	-43.950317
9916.702660	4320.948333	1193.433594	-11.911555
9916.702660	4320.948333	1192.311523	87.686447
9916.702660	4320.948333	1191.189453	-8.551938
9916.702660	4320.948333	1190.066406	22.637987
9916.702660	4320.948333	1188.944336	-41.202194
9916.702660	4320.948333	1187.821289	1.908178
9916.702660	4320.948333	1186.698242	71.341408
9916.702660	4320.948333	1185.574219	130.791397
9916.702660	4320.948333	1184.451172	2.727427
9916.702660	4320.948333	1183.327148	-33.720871
9916.702660	4320.948333	1182.203125	-73.607971
9916.702660	4320.948333	1181.078125	7.144325
9916.702660	4320.948333	1179.954102	-16.816988
9916.702660	4320.948333	1178.829102	64.276413
9916.702660	4320.948333	1177.704102	-13.527909
9916.702660	4320.948333	1176.579102	-109.672928
9916.702660	4320.948333	1175.453125	-17.112167
9916.702660	4320.948333	1174.327148	43.401150
9916.702660	4320.948333	1173.201172	14.168187
9916.702660	4320.948333	1172.075195	-60.038696
9916.702660	4320.948333	1170.949219	-101.392944
9916.702660	4320.948333	1169.822266	-57.029705
9916.702660	4320.948333	1168.695313	-31.084541
9916.702660	4320.948333	1167.568359	-81.429131
9916.702660	4320.948333	1166.440430	-47.906143
9916.702660	4320.948333	1165.313477	-54.291969
9916.702660	4320.948333	1164.185547	19.582165
9916.702660	4320.948333	1163.057617	-11.836295
9916.702660	4320.948333	1161.928711	56.031872
9916.702660	4320.948333	1160.800781	-10.442283
9916.702660	4320.948333	1159.671875	-4.828735
9916.702660	4320.948333	1158.541992	37.280136
9916.702660	4320.948333	1157.413086	38.222176
9916.702660	4320.948333	1156.283203	18.924973
9916.702660	4320.948333	1155.154297	45.866508
9916.702660	4320.948333	1154.023438	22.451651
9916.702660	4320.948333	1152.893555	90.343704
9916.702660	4320.948333	1151.763672	73.957336
9916.702660	4320.948333	1150.632813	6.103244
9916.702660	4320.948333	1149.501953	53.472507
9916.702660	4320.948333	1148.370117	16.053053
9916.702660	4320.948333	1147.239258	55.576279
9916.702660	4320.948333	1146.107422	70.366272
9916.702660	4320.948333	1144.975586	52.726917
9916.702660	4320.948333	1143.843750	43.045818
9916.702660	4320.948333	1142.710938	83.015503
9916.702660	4320.948333	1141.578125	46.097080
9916.702660	4320.948333	1140.445313	83.053154
9916.702660	4320.948333	1139.312500	95.386086
9916.702660	4320.948333	1138.178711	59.194645
9916.702660	4320.948333	1137.045898	78.582787
9916.702660	4320.948333	1135.912109	122.067482
9916.702660	4320.948333	1134.777344	139.045135
9916.702660	4320.948333	1133.643555	311.528870
9916.702660	4320.948333	1132.508789	238.852554
9916.702660	4320.948333	1131.374023	234.851349
9916.702660	4320.948333	1130.239258	226.033936
9916.702660	4320.948333	1129.104492	307.163940
9916.702660	4320.948333	1127.968750	202.960693
9916.702660	4320.948333	1126.833008	293.417114
9916.702660	4320.948333	1125.697266	132.021347
9916.702660	4320.948333	1124.560547	104.620743
9916.702660	4320.948333	1123.424805	78.373962
9916.702660	4320.948333	1122.288086	39.931744
9916.702660	4320.948333	1121.151367	8.346047
9916.702660	4320.948333	1120.013672	117.791817
9916.702660	4320.948333	1118.876953	96.915024
9916.702660	4320.948333	1117.739258	112.739960
9916.702660	4320.948333	1116.601563	95.417702
9916.702660	4320.948333	1115.462891	29.764307
9916.702660	4320.948333	1114.324219	69.471870
9916.702660	4320.948333	1113.186523	167.178314
9916.702660	4320.948333	1112.046875	195.106812
9916.702660	4320.948333	1110.908203	83.754265
9916.702660	4320.948333	1109.769531	154.694046
9916.702660	4320.948333	1108.629883	-58.116199
9916.702660	4320.948333	1107.490234	169.809601
9916.702660	4320.948333	1106.349609	157.071167
9916.702660	4320.948333	1105.209961	2.623621
9916.702660	4320.948333	1104.069336	97.340820
9916.702660	4320.948333	1102.928711	66.368019
9916.702660	4320.948333	1101.787109	-12.911372
9916.702660	4320.948333	1100.646484	-7.831271
9916.702660	4320.948333	1099.504883	156.135483
9916.702660	4320.948333	1098.363281	83.616562
9916.702660	4320.948333	1097.221680	140.750107
9916.702660	4320.948333	1096.079102	56.998631
9916.702660	4320.948333	1094.936523	138.796951
9916.702660	4320.948333	1093.793945	109.934563
9916.702660	4320.948333	1092.651367	-1.606171
9916.702660	4320.948333	1091.507813	129.483459
9916.702660	4320.948333	1090.364258	44.003513
9916.702660	4320.948333	1089.220703	38.044277
9916.702660	4320.948333	1088.077148	22.613016
9916.702660	4320.948333	1086.933594	157.737518
9916.702660	4320.948333	1085.789063	95.410049
9916.702660	4320.948333	1084.644531	144.374084
9916.702660	4320.948333	1083.499023	85.632622
9916.702660	4320.948333	1082.354492	125.944122
9916.702660	4320.948333	1081.208984	-46.952900
9916.702660	4320.948333	1080.063477	-59.279339
9916.702660	4320.948333	1078.917969	51.486240
9916.702660	4320.948333	1077.771484	88.978691
9916.702660	4320.948333	1076.625977	31.201120
9916.702660	4320.948333	1075.479492	19.941824
9916.702660	4320.948333	1074.332031	-18.138609
9916.702660	4320.948333	1073.185547	22.443918
9916.702660	4320.948333	1072.038086	-22.677597
9916.702660	4320.948333	1070.890625	66.154404
9916.702660	4320.948333	1069.743164	88.369560
9916.702660	4320.948333	1068.594727	13.241871
9916.702660	4320.948333	1067.447266	92.617760
9916.702660	4320.948333	1066.298828	3.973468
9916.702660	4320.948333	1065.149414	164.195175
9916.702660	4320.948333	1064.000977	141.321716
9916.702660	4320.948333	1062.851563	199.687210
9916.702660	4320.948333	1061.702148	163.275940
9916.702660	4320.948333	1060.552734	169.112732
9916.702660	4320.948333	1059.402344	158.527710
9916.702660	4320.948333	1058.252930	121.500214
9916.702660	4320.948333	1057.102539	4.557662
9916.702660	4320.948333	1055.951172	35.585766
9916.702660	4320.948333	1054.800781	130.307510
9916.702660	4320.948333	1053.649414	-46.287266
9916.702660	4320.948333	1052.498047	-0.356375
9916.702660	4320.948333	1051.346680	51.121151
9916.702660	4320.948333	1050.194336	-78.998718
9916.702660	4320.948333	1049.042969	-37.119415
9916.702660	4320.948333	1047.890625	3.880203
9916.702660	4320.948333	1046.738281	109.186104
9916.702660	4320.948333	1045.584961	62.037052
9916.702660	4320.948333	1044.431641	-17.864857
9916.702660	4320.948333	1043.278320	-78.083618
9916.702660	4320.948333	1042.125000	65.449112
9916.702660	4320.948333	1040.971680	-132.498138
9916.702660	4320.948333	1039.817383	32.361717
9916.702660	4320.948333	1038.663086	-0.106608
9916.702660	4320.948333	1037.508789	86.876656
9916.702660	4320.948333	1036.353516	-5.157771
9916.702660	4320.948333	1035.198242	47.578190
9916.702660	4320.948333	1034.042969	11.988319
9916.702660	4320.948333	1032.887695	-67.307281
9916.702660	4320.948333	1031.732422	-41.319366
9916.702660	4320.948333	1030.576172	11.764505
9916.702660	4320.948333	1029.419922	57.144539
9916.702660	4320.948333	1028.263672	34.236736
9916.702660	4320.948333	1027.106445	-65.078110
9916.702660	4320.948333	1025.949219	21.656574
9916.702660	4320.948333	1024.792969	85.231346
9916.702660	4320.948333	1023.634766	-46.844688
9916.702660	4320.948333	1022.477539	23.678127
9916.702660	4320.948333	1021.319336	-30.074360
9916.702660	4320.948333	1020.161133	75.007759
9916.702660	4320.948333	1019.002930	54.294586
9916.702660	4320.948333	1017.843750	-50.106548
9916.702660	4320.948333	1016.684570	9.847879
9916.702660	4320.948333	1015.525391	41.429340
9916.702660	4320.948333	1014.366211	-75.608276
9916.702660	4320.948333	1013.207031	104.006027
9916.702660	4320.948333	1012.046875	65.618332
9916.702660	4320.948333	1010.886719	31.737017
9916.702660	4320.948333	1009.726563	67.791275
9916.702660	4320.948333	1008.565430	119.525620
9916.702660	4320.948333	1007.404297	4.538773
9916.702660	4320.948333	1006.243164	-15.956374
9916.702660	4320.948333	1005.082031	11.130992
9916.702660	4320.948333	1003.920898	-16.274817
9916.702660	4320.948333	1002.758789	35.628792
9916.702660	4320.948333	1001.596680	-4.680032
9916.702660	4320.948333	1000.433594	-89.863060
9916.702660	4320.948333	999.271484	-126.497154
9916.702660	4320.948333	998.108398	64.132233
9916.702660	4320.948333	996.945313	-103.591461
9916.702660	4320.948333	995.782227	-23.982685
9916.702660	4320.948333	994.618164	52.394909
9916.702660	4320.948333	993.454102	-4.141626
9916.702660	4320.948333	992.290039	108.969727
9916.702660	4320.948333	991.125977	-40.157761
9916.702660	4320.948333	989.960938	114.506004
9916.702660	4320.948333	988.796875	-9.889681
9916.702660	4320.948333	987.630859	-62.031429
9916.702660	4320.948333	986.465820	-70.628632
9916.702660	4320.948333	985.300781	51.682308
9916.702660	4320.948333	984.134766	172.259079
9916.702660	4320.948333	982.968750	68.752754
9916.702660	4320.948333	981.801758	-67.018990
9916.702660	4320.948333	980.635742	-17.080147
9916.702660	4320.948333	979.468750	54.154785
9916.702660	4320.948333	978.301758	103.445313
9916.702660	4320.948333	977.133789	28.605152
9916.702660	4320.948333	975.966797	42.872581
9916.702660	4320.948333	974.798828	-52.975044
9916.702660	4320.948333	973.630859	-15.073229
9916.702660	4320.948333	972.461914	-27.970072
9916.702660	4320.948333	971.293945	6.127418
9916.702660	4320.948333	970.125000	15.496560
9916.702660	4320.948333	968.956055	6.679122
9916.702660	4320.948333	967.786133	15.415068
9916.702660	4320.948333	966.617188	89.152214
9916.702660	4320.948333	965.447266	62.802608
9916.702660	4320.948333	964.276367	-28.783659
9916.702660	4320.948333	963.106445	13.331492
9916.702660	4320.948333	961.935547	-63.112766
9916.702660	4320.948333	960.764648	-51.210869
9916.702660	4320.948333	959.593750	-25.204510
9916.702660	4320.948333	958.422852	-34.964283
9916.702660	4320.948333	957.250977	25.950420
9916.702660	4320.948333	956.079102	58.650749
9916.702660	4320.948333	954.907227	-43.130375
9916.702660	4320.948333	953.734375	-63.140347
9916.702660	4320.948333	952.562500	-61.946373
9916.702660	4320.948333	951.389648	41.191120
9916.702660	4320.948333	950.215820	4.654455
9916.702660	4320.948333	949.042969	-17.827656
9916.702660	4320.948333	947.869141	48.713345
9916.702660	4320.948333	946.695313	33.826637
9916.702660	4320.948333	945.521484	66.720718
9916.702660	4320.948333	944.346680	-40.045185
9916.702660	4320.948333	943.172852	60.414410
9916.702660	4320.948333	941.998047	86.101715
9916.702660	4320.948333	940.822266	70.868286
9916.702660	4320.948333	939.647461	103.668007
9916.702660	4320.948333	938.471680	28.126095
9916.702660	4320.948333	937.295898	172.141388
9916.702660	4320.948333	936.119141	-50.307274
9916.702660	4320.948333	934.943359	105.475014
9916.702660	4320.948333	933.766602	-18.214455
9916.702660	4320.948333	932.589844	77.414040
9916.702660	4320.948333	931.413086	115.094383
9916.702660	4320.948333	930.235352	123.921379
9916.702660	4320.948333	929.057617	-31.038628
9916.702660	4320.948333	927.879883	95.790535
9916.702660	4320.948333	926.702148	44.400078
9916.702660	4320.948333	925.523438	-19.026823
9916.702660	4320.948333	924.344727	11.441900
9916.702660	4320.948333	923.166016	58.738873
9916.702660	4320.948333	921.987305	96.398766
9916.702660	4320.948333	920.807617	134.035400
9916.702660	4320.948333	919.627930	136.437286
9916.702660	4320.948333	919.497070	13.177960
9916.702660	4320.948333	918.331055	-76.668777
9916.702660	4320.948333	917.165039	81.145882
9916.702660	4320.948333	915.999023	92.267212
9916.702660	4320.948333	914.833008	24.074356
9916.702660	4320.948333	913.666016	20.779741
9916.702660	4320.948333	912.499023	-49.779736
9916.702660	4320.948333	911.332031	110.250420
9916.702660	4320.948333	910.165039	42.093361
9916.702660	4320.948333	908.997070	125.209038
9916.702660	4320.948333	907.830078	143.476868
9916.702660	4320.948333	906.661133	130.540359
9916.702660	4320.948333	905.493164	57.620277
9916.702660	4320.948333	904.325195	-10.477015
9916.702660	4320.948333	903.156250	-71.354073
9916.702660	4320.948333	901.987305	97.979362
9916.702660	4320.948333	900.818359	49.082859
9916.702660	4320.948333	899.648438	-18.971113
9916.702660	4320.948333	898.478516	23.230080
9916.702660	4320.948333	897.308594	27.076084
9916.702660	4320.948333	896.138672	90.800301
9916.702660	4320.948333	894.968750	178.442764
9916.702660	4320.948333	893.797852	-4.520014
9916.702660	4320.948333	892.626953	87.887108
9916.702660	4320.948333	891.456055	31.859684
9916.702660	4320.948333	890.284180	38.069031
9916.702660	4320.948333	889.113281	-44.251072
9916.702660	4320.948333	887.941406	-2.158636
9916.702660	4320.948333	886.768555	80.568977
9916.702660	4320.948333	885.596680	53.271294
9916.702660	4320.948333	884.423828	178.973282
9916.702660	4320.948333	883.250977	1.089800
9916.702660	4320.948333	882.078125	-16.628647
9916.702660	4320.948333	880.905273	92.273743
9916.702660	4320.948333	879.731445	-32.947052
9916.702660	4320.948333	878.557617	-53.047516
9916.702660	4320.948333	877.383789	5.645195
9916.702660	4320.948333	876.209961	-2.528597
9916.702660	4320.948333	875.035156	-27.408138
9916.702660	4320.948333	873.860352	2.598241
9916.702660	4320.948333	872.685547	39.744434
9916.702660	4320.948333	871.510742	-1.837967
9916.702660	4320.948333	870.334961	-29.098345
9916.702660	4320.948333	869.159180	8.019344
9916.702660	4320.948333	867.983398	71.337357
9916.702660	4320.948333	866.807617	55.980431
9916.702660	4320.948333	865.630859	64.453522
9916.702660	4320.948333	864.454102	-60.483692
9916.702660	4320.948333	863.277344	-37.709412
9916.702660	4320.948333	862.100586	-74.479500
9916.702660	4320.948333	860.922852	24.463659
9916.702660	4320.948333	859.745117	-126.562881
9916.702660	4320.948333	858.567383	3.277545
9916.702660	4320.948333	857.389648	21.234669
9916.702660	4320.948333	856.210938	-1.257392
9916.702660	4320.948333	855.032227	11.928978
9916.702660	4320.948333	853.853516	51.260563
9916.702660	4320.948333	852.674805	21.629679
9916.702660	4320.948333	851.495117	68.065636
9916.702660	4320.948333	850.315430	59.822037
9916.702660	4320.948333	849.135742	25.442816
9916.702660	4320.948333	847.956055	-54.059105
9916.702660	4320.948333	846.775391	54.082619
9916.702660	4320.948333	845.595703	152.675812
9916.702660	4320.948333	844.415039	194.251709
9916.702660	4320.948333	843.233398	216.819809
9916.702660	4320.948333	842.052734	99.370331
9916.702660	4320.948333	840.871094	67.372955
9916.702660	4320.948333	839.689453	-0.195521
9916.702660	4320.948333	838.506836	38.975403
9916.702660	4320.948333	837.325195	-66.505119
9916.702660	4320.948333	836.142578	-13.124231
9916.702660	4320.948333	834.959961	61.559238
9916.702660	4320.948333	833.777344	-93.634430
9916.702660	4320.948333	832.593750	-7.128884
9916.702660	4320.948333	831.410156	-60.407028
9916.702660	4320.948333	830.226563	9.469105
9916.702660	4320.948333	829.042969	58.002907
9916.702660	4320.948333	827.858398	11.830996
9916.702660	4320.948333	826.673828	-15.394979
9916.702660	4320.948333	825.489258	165.599854
9916.702660	4320.948333	824.304688	88.665077
9916.702660	4320.948333	823.120117	-42.640991
9916.702660	4320.948333	821.934570	-29.655384
9916.702660	4320.948333	820.749023	-47.414181
9916.702660	4320.948333	819.562500	-126.624550
9916.702660	4320.948333	818.376953	101.400452
9916.702660	4320.948333	817.190430	10.367360
9916.702660	4320.948333	816.003906	49.285778
9916.702660	4320.948333	814.817383	78.735504
9916.702660	4320.948333	813.629883	-68.921082
9916.702660	4320.948333	812.442383	139.945023
9916.702660	4320.948333	811.254883	56.051064
9916.702660	4320.948333	810.067383	-77.368858
9916.702660	4320.948333	808.878906	98.323730
9916.702660	4320.948333	807.690430	99.389450
9916.702660	4320.948333	806.501953	98.089973
9916.702660	4320.948333	805.313477	28.409403
9916.702660	4320.948333	804.124023	163.837997
9916.702660	4320.948333	802.934570	115.372963
9916.702660	4320.948333	801.745117	151.749603
9916.702660	4320.948333	800.555664	289.405884
9916.702660	4320.948333	799.365234	80.763680
9916.702660	4320.948333	798.175781	135.944672
9916.702660	4320.948333	796.985352	162.845398
9916.702660	4320.948333	795.793945	109.697746
9916.702660	4320.948333	794.603516	-86.993034
9916.702660	4320.948333	793.412109	149.328018
9916.702660	4320.948333	792.220703	93.844177
9916.702660	4320.948333	791.028320	113.640114
9916.702660	4320.948333	789.836914	140.474091
9916.702660	4320.948333	788.644531	101.464699
9916.702660	4320.948333	787.452148	81.268402
9916.702660	4320.948333	786.258789	86.924942
9916.702660	4320.948333	785.066406	111.366898
9916.702660	4320.948333	783.873047	91.161835
9916.702660	4320.948333	782.679688	33.381733
9916.702660	4320.948333	781.485352	64.845612
9916.702660	4320.948333	780.291992	-53.955296
9916.702660	4320.948333	779.097656	97.199593
9916.702660	4320.948333	777.903320	-16.878704
9916.702660	4320.948333	776.708008	49.733543
9916.702660	4320.948333	775.512695	99.891556
9916.702660	4320.948333	774.318359	168.780930
9916.702660	4320.948333	773.122070	47.722408
9916.702660	4320.948333	771.926758	144.710342
9916.702660	4320.948333	770.730469	68.221542
9916.702660	4320.948333	769.534180	-29.331589
9916.702660	4320.948333	768.337891	81.646606
9916.702660	4320.948333	767.141602	-25.252855
9916.702660	4320.948333	765.944336	162.940552
9916.702660	4320.948333	764.747070	142.679794
9916.702660	4320.948333	763.549805	143.486038
9916.702660	4320.948333	762.351563	153.646469
9916.702660	4320.948333	761.154297	262.063171
9916.702660	4320.948333	759.956055	204.339783
9916.702660	4320.948333	758.757813	207.441025
9916.702660	4320.948333	757.558594	329.786835
9916.702660	4320.948333	756.359375	302.454254
9916.702660	4320.948333	755.160156	399.002777
9916.702660	4320.948333	753.960938	362.302979
9916.702660	4320.948333	752.761719	185.429733
9916.702660	4320.948333	751.561523	148.774658
9916.702660	4320.948333	750.361328	149.492203
9916.702660	4320.948333	749.160156	110.509323
9916.702660	4320.948333	747.959961	-3.167965
9916.702660	4320.948333	746.758789	27.897589
9916.702660	4320.948333	745.557617	-69.396873
9916.702660	4320.948333	744.356445	85.297722
9916.702660	4320.948333	743.154297	85.978882
9916.702660	4320.948333	741.952148	37.679260
9916.702660	4320.948333	740.750000	19.700581
9916.702660	4320.948333	739.547852	66.988106
9916.702660	4320.948333	738.344727	53.655025
9916.702660	4320.948333	737.142578	-10.943158
9916.702660	4320.948333	735.939453	-0.976988
9916.702660	4320.948333	734.735352	-74.868652
9916.702660	4320.948333	733.532227	-120.797035
9916.702660	4320.948333	732.328125	31.171776
9916.702660	4320.948333	731.124023	-68.311333
9916.702660	4320.948333	729.918945	-46.751858
9916.702660	4320.948333	728.714844	21.320547
9916.702660	4320.948333	727.509766	-38.580933
9916.702660	4320.948333	726.303711	41.072697
9916.702660	4320.948333	725.098633	23.026001
9916.702660	4320.948333	723.892578	-108.930046
9916.702660	4320.948333	722.686523	84.544479
9916.702660	4320.948333	721.480469	57.177567
9916.702660	4320.948333	720.274414	-53.822823
9916.702660	4320.948333	719.067383	-92.781357
9916.702660	4320.948333	717.860352	47.078693
9916.702660	4320.948333	716.653320	10.417685
9916.702660	4320.948333	715.445313	34.115761
9916.702660	4320.948333	714.238281	-95.378014
9916.702660	4320.948333	713.030273	39.686424
9916.702660	4320.948333	711.821289	58.695004
9916.702660	4320.948333	710.613281	24.340492
9916.702660	4320.948333	709.404297	115.207863
9916.702660	4320.948333	708.195313	43.743103
9916.702660	4320.948333	706.986328	125.276497
9916.702660	4320.948333	705.776367	60.772362
9916.702660	4320.948333	704.566406	88.960388
9916.702660	4320.948333	703.356445	75.430893
9916.702660	4320.948333	702.146484	20.210436
9916.702660	4320.948333	700.935547	-136.874863
9916.702660	4320.948333	699.724609	32.501633
9916.702660	4320.948333	698.513672	46.728096
9916.702660	4320.948333	697.302734	100.275688
9916.702660	4320.948333	696.090820	234.762955
9916.702660	4320.948333	694.878906	510.275635
9916.702660	4320.948333	693.666992	623.786865
9916.702660	4320.948333	692.455078	906.016785
9916.702660	4320.948333	691.242188	963.899353
9916.702660	4320.948333	690.029297	832.240845
9916.702660	4320.948333	688.816406	564.303894
9916.702660	4320.948333	687.602539	388.872528
9916.702660	4320.948333	686.389648	211.193619
9916.702660	4320.948333	685.175781	142.107635
9916.702660	4320.948333	683.960938	146.916550
9916.702660	4320.948333	682.747070	43.229580
9916.702660	4320.948333	681.532227	140.341507
9916.702660	4320.948333	680.317383	161.265457
9916.702660	4320.948333	679.102539	66.835625
9916.702660	4320.948333	677.886719	46.233681
9916.702660	4320.948333	676.670898	-20.484770
9916.702660	4320.948333	675.455078	44.211521
9916.702660	4320.948333	674.239258	-91.642052
9916.702660	4320.948333	673.022461	-105.323578
9916.702660	4320.948333	671.805664	102.150818
9916.702660	4320.948333	670.588867	69.985970
9916.702660	4320.948333	669.372070	-22.048843
9916.702660	4320.948333	668.154297	51.710899
9916.702660	4320.948333	666.936523	81.693932
9916.702660	4320.948333	665.718750	79.434441
9916.702660	4320.948333	664.500977	-3.364693
9916.702660	4320.948333	663.282227	141.597000
9916.702660	4320.948333	662.063477	192.191177
9916.702660	4320.948333	660.844727	45.005245
9916.702660	4320.948333	659.625000	77.185837
9916.702660	4320.948333	658.405273	49.582916
9916.702660	4320.948333	657.185547	74.832962
9916.702660	4320.948333	655.965820	146.010696
9916.702660	4320.948333	654.745117	-14.845903
9916.702660	4320.948333	653.525391	79.263443
9916.702660	4320.948333	652.303711	143.475281
9916.702660	4320.948333	651.083008	49.258083
9916.702660	4320.948333	649.861328	147.852539
9916.702660	4320.948333	648.640625	94.954300
9916.702660	4320.948333	647.417969	120.066292
9916.702660	4320.948333	646.196289	87.817009
9916.702660	4320.948333	644.973633	-54.496796
9916.702660	4320.948333	643.750977	23.327991
9916.702660	4320.948333	642.528320	98.817284
9916.702660	4320.948333	641.305664	39.057533
9916.702660	4320.948333	640.082031	153.439667
9916.702660	4320.948333	638.858398	36.406315
9916.702660	4320.948333	637.634766	139.268326
9916.702660	4320.948333	636.410156	79.508858
9916.702660	4320.948333	635.185547	12.896282
9916.702660	4320.948333	633.960938	152.286118
9916.702660	4320.948333	632.736328	-1.287663
9916.702660	4320.948333	631.510742	60.242085
9916.702660	4320.948333	630.285156	-13.213423
9916.702660	4320.948333	629.059570	39.124924
9916.702660	4320.948333	627.833984	217.176865
9916.702660	4320.948333	626.607422	31.699434
9916.702660	4320.948333	625.380859	134.241608
9916.702660	4320.948333	624.154297	-62.584507
9916.702660	4320.948333	622.927734	17.070284
9916.702660	4320.948333	621.700195	108.100693
9916.702660	4320.948333	620.472656	-24.689390
9916.702660	4320.948333	619.245117	-45.570900
9916.702660	4320.948333	618.016602	-20.804893
9916.702660	4320.948333	616.788086	49.579773
9916.702660	4320.948333	615.559570	19.540697
9916.702660	4320.948333	614.331055	-28.743093
9916.702660	4320.948333	613.101563	23.325472
9916.702660	4320.948333	611.872070	52.562550
9916.702660	4320.948333	610.642578	-125.658005
9916.702660	4320.948333	609.413086	-21.212811
9916.702660	4320.948333	608.182617	-14.798528
9916.702660	4320.948333	606.952148	71.336098
9916.702660	4320.948333	605.721680	-74.888191
9916.702660	4320.948333	604.491211	-139.083862
9916.702660	4320.948333	603.259766	-57.558178
9916.702660	4320.948333	602.028320	3.438681
9916.702660	4320.948333	600.796875	9.785468
9916.702660	4320.948333	599.564453	-22.556549
9916.702660	4320.948333	598.332031	102.058723
9916.702660	4320.948333	597.099609	10.564477
9916.702660	4320.948333	595.867188	64.617805
9916.702660	4320.948333	594.633789	32.257584
9916.702660	4320.948333	593.400391	108.994194
9916.702660	4320.948333	592.166992	26.632189
9916.702660	4320.948333	590.933594	96.505646
9916.702660	4320.948333	589.699219	-4.004762
9916.702660	4320.948333	588.464844	86.266640
9916.702660	4320.948333	587.230469	69.787247
9916.702660	4320.948333	585.995117	46.497520
9916.702660	4320.948333	584.760742	134.408218
9916.702660	4320.948333	583.525391	140.594986
9916.702660	4320.948333	582.289063	142.235153
9916.702660	4320.948333	581.053711	55.418861
9916.702660	4320.948333	579.817383	32.120399
9916.702660	4320.948333	578.581055	-29.713242
9916.702660	4320.948333	577.343750	98.854462
9916.702660	4320.948333	576.107422	7.561883
9916.702660	4320.948333	574.870117	13.717016
9916.702660	4320.948333	573.631836	69.693253
9916.702660	4320.948333	572.394531	69.025887
9916.702660	4320.948333	571.156250	-90.129471
9916.702660	4320.948333	569.917969	-45.504013
9916.702660	4320.948333	568.679688	146.195602
9916.702660	4320.948333	567.440430	21.045979
9916.702660	4320.948333	566.202148	29.407429
9916.702660	4320.948333	564.961914	76.207077
9916.702660	4320.948333	563.722656	147.853729
9916.702660	4320.948333	562.482422	36.351326
9916.702660	4320.948333	561.243164	130.566299
9916.702660	4320.948333	560.001953	50.740417
9916.702660	4320.948333	558.761719	9.349439
9916.702660	4320.948333	557.520508	35.732716
9916.702660	4320.948333	556.279297	37.259205
9916.702660	4320.948333	555.038086	72.646553
9916.702660	4320.948333	553.795898	38.038483
9916.702660	4320.948333	552.554688	39.549274
9916.702660	4320.948333	551.311523	41.054897
9916.702660	4320.948333	550.069336	-22.863346
9916.702660	4320.948333	548.826172	3.454880
9916.702660	4320.948333	547.583984	-94.259171
9916.702660	4320.948333	546.339844	-22.857594
9916.702660	4320.948333	545.096680	84.571503
9916.702660	4320.948333	543.852539	-103.245415
9916.702660	4320.948333	542.608398	4.147322
9916.702660	4320.948333	541.364258	-57.442577
9916.702660	4320.948333	540.119141	-80.726418
9916.702660	4320.948333	538.875000	-18.447527
9916.702660	4320.948333	537.628906	106.829033
9916.702660	4320.948333	536.383789	27.252256
9916.702660	4320.948333	535.137695	10.707022
9916.702660	4320.948333	533.892578	-46.325874
9916.702660	4320.948333	532.645508	-17.872955
9916.702660	4320.948333	531.399414	-81.626999
9916.702660	4320.948333	530.152344	-64.424850
9916.702660	4320.948333	528.905273	22.443293
9916.702660	4320.948333	527.658203	-48.027859
9916.702660	4320.948333	526.410156	-53.318718
9916.702660	4320.948333	525.163086	148.038101
9916.702660	4320.948333	523.914063	82.069214
9916.702660	4320.948333	522.666016	-100.624916
9916.702660	4320.948333	521.416992	-114.888268
9916.702660	4320.948333	520.167969	-41.622623
9916.702660	4320.948333	518.918945	-80.578430
9916.702660	4320.948333	517.669922	57.699192
9916.702660	4320.948333	516.419922	29.948046
9916.702660	4320.948333	515.169922	-26.943144
9916.702660	4320.948333	513.919922	48.456070
9916.702660	4320.948333	512.668945	27.442551
9916.702660	4320.948333	511.417969	40.049053
9916.702660	4320.948333	510.166992	-14.563526
9916.702660	4320.948333	508.916016	18.201492
9916.702660	4320.948333	507.664063	37.513744
9916.702660	4320.948333	506.412109	-10.352580
9916.702660	4320.948333	505.160156	80.584183
9916.702660	4320.948333	503.907227	-74.698486
9916.702660	4320.948333	502.655273	20.683714
9916.702660	4320.948333	501.402344	-18.198772
9916.702660	4320.948333	500.148438	-5.626279
9916.702660	4320.948333	498.895508	91.908539
9916.702660	4320.948333	497.641602	35.144047
9916.702660	4320.948333	496.387695	112.507210
9916.702660	4320.948333	495.132813	2.126796
9916.702660	4320.948333	493.878906	7.966177
9916.702660	4320.948333	492.624023	158.987549
9916.702660	4320.948333	491.368164	135.753754
9916.702660	4320.948333	490.113281	58.942043
9916.702660	4320.948333	488.857422	-26.768661
9916.702660	4320.948333	487.601563	222.313446
9916.702660	4320.948333	486.344727	129.903687
9916.702660	4320.948333	485.088867	-11.546790
9916.702660	4320.948333	483.832031	7.640382
9916.702660	4320.948333	482.575195	33.504375
9916.702660	4320.948333	481.317383	146.296356
9916.702660	4320.948333	480.059570	4.947069
9916.702660	4320.948333	478.801758	61.978241
9916.702660	4320.948333	477.543945	103.384239
9916.702660	4320.948333	476.285156	15.577781
9916.702660	4320.948333	475.027344	1.291907
9916.702660	4320.948333	473.767578	4.817523
9916.702660	4320.948333	472.508789	-40.635933
9916.702660	4320.948333	471.249023	129.795242
9916.702660	4320.948333	469.989258	-22.479279
9916.702660	4320.948333	468.729492	43.307442
9916.702660	4320.948333	467.469727	-4.368174
9916.702660	4320.948333	466.208984	45.805092
9916.702660	4320.948333	464.948242	-15.206274
9916.702660	4320.948333	463.686523	-42.861366
9916.702660	4320.948333	462.425781	60.591099
9916.702660	4320.948333	461.164063	99.560966
9916.702660	4320.948333	459.901367	-8.093409
9916.702660	4320.948333	458.639648	-24.664223
9916.702660	4320.948333	457.376953	-16.817909
9916.702660	4320.948333	456.114258	15.429743
9916.702660	4320.948333	454.851563	163.051025
9916.702660	4320.948333	453.587891	144.187439
9916.702660	4320.948333	452.324219	14.403711
9916.702660	4320.948333	451.060547	133.054871
9916.702660	4320.948333	449.796875	-41.047508
9916.702660	4320.948333	448.532227	57.580673
9916.702660	4320.948333	447.267578	127.336128
9916.702660	4320.948333	446.002930	188.179733
9916.702660	4320.948333	444.737305	189.162155
9916.702660	4320.948333	443.471680	198.984222
9916.702660	4320.948333	442.206055	186.636780
9916.702660	4320.948333	440.940430	216.338913
9916.702660	4320.948333	439.673828	230.510696
9916.702660	4320.948333	438.407227	273.422272
9916.702660	4320.948333	437.140625	174.688843
9916.702660	4320.948333	435.873047	266.208893
9916.702660	4320.948333	434.605469	238.237579
9916.702660	4320.948333	433.337891	208.039948
9916.702660	4320.948333	432.070313	261.829712
9916.702660	4320.948333	430.801758	293.464569
9916.702660	4320.948333	429.533203	135.023895
9916.702660	4320.948333	428.264648	182.073074
9916.702660	4320.948333	426.996094	253.364029
9916.702660	4320.948333	425.726563	114.807175
9916.702660	4320.948333	424.457031	199.255997
9916.702660	4320.948333	423.186523	80.561188
9916.702660	4320.948333	421.916992	145.042480
9916.702660	4320.948333	420.646484	174.153564
9916.702660	4320.948333	419.375977	176.739548
9916.702660	4320.948333	418.104492	260.877655
9916.702660	4320.948333	416.833008	150.904907
9916.702660	4320.948333	415.561523	164.378494
9916.702660	4320.948333	414.290039	153.554062
9916.702660	4320.948333	413.017578	202.175491
9916.702660	4320.948333	411.746094	94.313889
9916.702660	4320.948333	410.472656	173.653671
9916.702660	4320.948333	409.200195	274.923676
9916.702660	4320.948333	407.926758	138.325226
9916.702660	4320.948333	406.653320	91.968407
9916.702660	4320.948333	405.379883	171.001816
9916.702660	4320.948333	404.105469	164.131332
9916.702660	4320.948333	402.831055	181.392319
9916.702660	4320.948333	401.556641	141.399277
9916.702660	4320.948333	400.282227	105.749321
9916.702660	4320.948333	399.006836	133.786774
9916.702660	4320.948333	397.731445	150.746948
9916.702660	4320.948333	396.456055	200.579544
9916.702660	4320.948333	395.179688	142.666382
9916.702660	4320.948333	393.903320	95.675621
9916.702660	4320.948333	392.626953	184.757690
9916.702660	4320.948333	391.350586	122.234627
9916.702660	4320.948333	390.073242	129.879532
9916.702660	4320.948333	388.795898	47.456524
9916.702660	4320.948333	387.518555	175.584274
9916.702660	4320.948333	386.240234	222.396561
9916.702660	4320.948333	384.961914	100.228043
9916.702660	4320.948333	383.683594	105.167404
9916.702660	4320.948333	382.405273	129.721207
9916.702660	4320.948333	381.125977	-45.278885
9916.702660	4320.948333	379.846680	123.670242
9916.702660	4320.948333	378.567383	185.087631
9916.702660	4320.948333	377.287109	108.375931
9916.702660	4320.948333	376.006836	116.963120
9916.702660	4320.948333	374.726563	136.359924
9916.702660	4320.948333	373.446289	251.912216
9916.702660	4320.948333	372.165039	113.443535
9916.702660	4320.948333	370.883789	138.967590
9916.702660	4320.948333	369.602539	157.770416
9916.702660	4320.948333	368.320313	152.354874
9916.702660	4320.948333	367.039063	94.318199
9916.702660	4320.948333	365.755859	64.553146
9916.702660	4320.948333	364.473633	-13.438129
9916.702660	4320.948333	363.190430	59.184040
9916.702660	4320.948333	361.907227	48.593414
9916.702660	4320.948333	360.624023	122.998940
9916.702660	4320.948333	359.340820	29.064804
9916.702660	4320.948333	358.056641	17.928528
9916.702660	4320.948333	356.772461	72.075508
9916.702660	4320.948333	355.487305	64.898376
9916.702660	4320.948333	354.202148	133.871124
9916.702660	4320.948333	352.916992	117.542381
9916.702660	4320.948333	351.631836	81.378677
9916.702660	4320.948333	350.346680	12.307351
9916.702660	4320.948333	349.060547	-56.967854
9916.702660	4320.948333	347.774414	-28.386301
9916.702660	4320.948333	346.487305	26.080111
9916.702660	4320.948333	345.200195	62.850510
9916.702660	4320.948333	343.913086	23.132145
9916.702660	4320.948333	342.625977	-40.777760
9916.702660	4320.948333	341.338867	82.275307
9916.702660	4320.948333	340.050781	37.421375
9916.702660	4320.948333	338.762695	-20.747286
9916.702660	4320.948333	337.473633	51.334930
9916.702660	4320.948333	336.184570	53.496517
9916.702660	4320.948333	334.895508	-18.573030
9916.702660	4320.948333	333.606445	-136.571579
9916.702660	4320.948333	332.317383	-67.919510
9916.702660	4320.948333	331.027344	-97.412720
9916.702660	4320.948333	329.736328	-166.338608
9916.702660	4320.948333	328.446289	3.355558
9916.702660	4320.948333	327.155273	-87.965302
9916.702660	4320.948333	325.864258	-1.576248
9916.702660	4320.948333	324.573242	-0.242586
9916.702660	4320.948333	323.281250	31.088373
9916.702660	4320.948333	321.989258	-20.423067
9916.702660	4320.948333	320.697266	20.970734
9916.702660	4320.948333	319.405273	-29.139479
9916.702660	4320.948333	318.112305	24.425064
9916.702660	4320.948333	316.819336	-2.659724
9916.702660	4320.948333	315.526367	-23.660057
9916.702660	4320.948333	314.232422	-25.601782
9916.702660	4320.948333	312.938477	0.169925
9916.702660	4320.948333	311.644531	-22.178097
9916.702660	4320.948333	310.349609	39.449776
9916.702660	4320.948333	309.054688	156.857224
9916.702660	4320.948333	307.759766	171.992783
9916.702660	4320.948333	306.464844	74.093300
9916.702660	4320.948333	305.168945	21.140842
9916.702660	4320.948333	303.873047	158.030090
9916.702660	4320.948333	302.577148	6.704846
9916.702660	4320.948333	301.281250	79.751312
9916.702660	4320.948333	299.984375	134.895187
