#X		#Y		#Wave		#Intensity
10102.280851	4193.635000	1999.946289	-45.704025
10102.280851	4193.635000	1998.981445	37.909031
10102.280851	4193.635000	1998.017578	1.290338
10102.280851	4193.635000	1997.052734	1.812269
10102.280851	4193.635000	1996.088867	41.935104
10102.280851	4193.635000	1995.124023	-24.516916
10102.280851	4193.635000	1994.159180	0.656844
10102.280851	4193.635000	1993.193359	92.643517
10102.280851	4193.635000	1992.228516	162.280914
10102.280851	4193.635000	1991.262695	-40.429455
10102.280851	4193.635000	1990.296875	-55.002846
10102.280851	4193.635000	1989.331055	-86.920319
10102.280851	4193.635000	1988.365234	-14.945210
10102.280851	4193.635000	1987.398438	116.341560
10102.280851	4193.635000	1986.432617	-44.263138
10102.280851	4193.635000	1985.465820	173.476929
10102.280851	4193.635000	1984.499023	17.822277
10102.280851	4193.635000	1983.532227	87.130447
10102.280851	4193.635000	1982.565430	171.223755
10102.280851	4193.635000	1981.597656	52.665939
10102.280851	4193.635000	1980.629883	166.347321
10102.280851	4193.635000	1979.662109	0.880617
10102.280851	4193.635000	1978.694336	171.301865
10102.280851	4193.635000	1977.726563	42.908253
10102.280851	4193.635000	1976.758789	-92.851173
10102.280851	4193.635000	1975.790039	-63.212307
10102.280851	4193.635000	1974.821289	156.411789
10102.280851	4193.635000	1973.852539	77.429977
10102.280851	4193.635000	1972.883789	-6.460317
10102.280851	4193.635000	1971.915039	109.439240
10102.280851	4193.635000	1970.945313	232.689438
10102.280851	4193.635000	1969.975586	-58.272346
10102.280851	4193.635000	1969.005859	74.821930
10102.280851	4193.635000	1968.036133	27.969799
10102.280851	4193.635000	1967.066406	-4.079296
10102.280851	4193.635000	1966.096680	47.642799
10102.280851	4193.635000	1965.125977	-85.375092
10102.280851	4193.635000	1964.155273	94.400864
10102.280851	4193.635000	1963.184570	-11.483646
10102.280851	4193.635000	1962.213867	10.680140
10102.280851	4193.635000	1961.242188	42.686119
10102.280851	4193.635000	1960.271484	84.531616
10102.280851	4193.635000	1959.299805	-11.404830
10102.280851	4193.635000	1958.328125	69.806877
10102.280851	4193.635000	1957.356445	-104.771149
10102.280851	4193.635000	1956.384766	131.355316
10102.280851	4193.635000	1955.412109	69.936584
10102.280851	4193.635000	1954.439453	-8.654504
10102.280851	4193.635000	1953.467773	-6.106257
10102.280851	4193.635000	1952.495117	-23.204731
10102.280851	4193.635000	1951.521484	-57.481194
10102.280851	4193.635000	1950.548828	11.425446
10102.280851	4193.635000	1949.575195	4.193489
10102.280851	4193.635000	1948.601563	95.185265
10102.280851	4193.635000	1947.627930	31.508539
10102.280851	4193.635000	1946.654297	-73.853477
10102.280851	4193.635000	1945.680664	-14.754986
10102.280851	4193.635000	1944.706055	12.441427
10102.280851	4193.635000	1943.732422	-36.396679
10102.280851	4193.635000	1942.757813	-26.343403
10102.280851	4193.635000	1941.783203	-87.386765
10102.280851	4193.635000	1940.807617	33.022240
10102.280851	4193.635000	1939.833008	-15.722667
10102.280851	4193.635000	1938.857422	50.745869
10102.280851	4193.635000	1937.881836	-56.757099
10102.280851	4193.635000	1936.906250	191.006317
10102.280851	4193.635000	1935.930664	201.114807
10102.280851	4193.635000	1934.955078	120.629478
10102.280851	4193.635000	1933.978516	72.018265
10102.280851	4193.635000	1933.001953	47.920746
10102.280851	4193.635000	1932.025391	-52.021950
10102.280851	4193.635000	1931.048828	129.492416
10102.280851	4193.635000	1930.072266	7.585878
10102.280851	4193.635000	1929.094727	154.808914
10102.280851	4193.635000	1928.118164	140.582916
10102.280851	4193.635000	1927.140625	121.487854
10102.280851	4193.635000	1926.163086	-105.384285
10102.280851	4193.635000	1925.184570	-51.067505
10102.280851	4193.635000	1924.207031	-143.381805
10102.280851	4193.635000	1923.228516	-15.745679
10102.280851	4193.635000	1922.250000	55.671986
10102.280851	4193.635000	1921.271484	-100.066956
10102.280851	4193.635000	1920.292969	-43.280548
10102.280851	4193.635000	1919.314453	-3.590550
10102.280851	4193.635000	1918.334961	82.479309
10102.280851	4193.635000	1917.355469	85.551010
10102.280851	4193.635000	1916.375977	-138.297531
10102.280851	4193.635000	1915.396484	-71.724266
10102.280851	4193.635000	1914.416992	36.305725
10102.280851	4193.635000	1913.436523	49.195972
10102.280851	4193.635000	1912.457031	76.726059
10102.280851	4193.635000	1911.476563	128.637375
10102.280851	4193.635000	1910.496094	-51.012218
10102.280851	4193.635000	1909.515625	81.349724
10102.280851	4193.635000	1908.534180	21.190243
10102.280851	4193.635000	1907.552734	-58.423126
10102.280851	4193.635000	1906.572266	69.032173
10102.280851	4193.635000	1905.590820	-8.101275
10102.280851	4193.635000	1904.608398	-206.929245
10102.280851	4193.635000	1903.626953	-62.444439
10102.280851	4193.635000	1902.644531	11.417439
10102.280851	4193.635000	1901.663086	92.562553
10102.280851	4193.635000	1900.680664	73.939018
10102.280851	4193.635000	1899.698242	215.871552
10102.280851	4193.635000	1898.714844	92.676331
10102.280851	4193.635000	1897.732422	76.522598
10102.280851	4193.635000	1896.749023	-95.204475
10102.280851	4193.635000	1895.765625	70.994576
10102.280851	4193.635000	1894.782227	-18.026659
10102.280851	4193.635000	1893.798828	-17.107935
10102.280851	4193.635000	1892.814453	-89.060493
10102.280851	4193.635000	1891.831055	77.041603
10102.280851	4193.635000	1890.846680	87.674423
10102.280851	4193.635000	1889.862305	8.477477
10102.280851	4193.635000	1888.877930	-53.692242
10102.280851	4193.635000	1887.892578	-64.868134
10102.280851	4193.635000	1886.908203	115.658852
10102.280851	4193.635000	1885.922852	65.647064
10102.280851	4193.635000	1884.937500	20.508909
10102.280851	4193.635000	1883.952148	4.492468
10102.280851	4193.635000	1882.965820	-57.585064
10102.280851	4193.635000	1881.980469	-32.363808
10102.280851	4193.635000	1880.994141	82.528854
10102.280851	4193.635000	1880.007813	117.410576
10102.280851	4193.635000	1879.021484	-0.361688
10102.280851	4193.635000	1878.035156	-149.580383
10102.280851	4193.635000	1877.047852	98.458885
10102.280851	4193.635000	1876.061523	145.419189
10102.280851	4193.635000	1875.074219	-90.903023
10102.280851	4193.635000	1874.086914	6.905581
10102.280851	4193.635000	1873.098633	0.608472
10102.280851	4193.635000	1872.111328	-51.663013
10102.280851	4193.635000	1871.123047	-19.243788
10102.280851	4193.635000	1870.135742	-88.429260
10102.280851	4193.635000	1869.147461	-43.930820
10102.280851	4193.635000	1868.158203	-6.707441
10102.280851	4193.635000	1867.169922	54.671562
10102.280851	4193.635000	1866.180664	2.424464
10102.280851	4193.635000	1865.192383	39.602573
10102.280851	4193.635000	1864.203125	74.344559
10102.280851	4193.635000	1863.213867	208.107239
10102.280851	4193.635000	1862.223633	-30.122812
10102.280851	4193.635000	1861.234375	96.350281
10102.280851	4193.635000	1860.244141	-23.486710
10102.280851	4193.635000	1859.253906	-53.976250
10102.280851	4193.635000	1858.263672	19.310398
10102.280851	4193.635000	1857.273438	53.954323
10102.280851	4193.635000	1856.282227	16.201324
10102.280851	4193.635000	1855.291992	-38.431313
10102.280851	4193.635000	1854.300781	-107.523811
10102.280851	4193.635000	1853.309570	37.984745
10102.280851	4193.635000	1852.317383	12.271761
10102.280851	4193.635000	1851.326172	95.014771
10102.280851	4193.635000	1850.333984	28.310722
10102.280851	4193.635000	1849.342773	161.588669
10102.280851	4193.635000	1848.350586	244.217484
10102.280851	4193.635000	1847.357422	-60.946865
10102.280851	4193.635000	1846.365234	69.822624
10102.280851	4193.635000	1845.372070	70.524628
10102.280851	4193.635000	1844.379883	119.351540
10102.280851	4193.635000	1843.386719	184.989975
10102.280851	4193.635000	1842.393555	144.718796
10102.280851	4193.635000	1841.399414	-95.223190
10102.280851	4193.635000	1840.406250	-154.701584
10102.280851	4193.635000	1839.412109	35.918400
10102.280851	4193.635000	1838.417969	-38.023788
10102.280851	4193.635000	1837.423828	214.966095
10102.280851	4193.635000	1836.429688	47.248978
10102.280851	4193.635000	1835.434570	54.989861
10102.280851	4193.635000	1834.440430	38.683731
10102.280851	4193.635000	1833.445313	-78.521652
10102.280851	4193.635000	1832.450195	-17.986387
10102.280851	4193.635000	1831.454102	49.707874
10102.280851	4193.635000	1830.458984	-43.488625
10102.280851	4193.635000	1829.462891	62.546345
10102.280851	4193.635000	1828.466797	14.934217
10102.280851	4193.635000	1827.470703	29.700029
10102.280851	4193.635000	1826.474609	56.432297
10102.280851	4193.635000	1825.478516	-34.390808
10102.280851	4193.635000	1824.481445	-31.683083
10102.280851	4193.635000	1823.484375	107.657997
10102.280851	4193.635000	1822.487305	-86.268280
10102.280851	4193.635000	1821.490234	76.948387
10102.280851	4193.635000	1820.493164	139.440018
10102.280851	4193.635000	1819.495117	233.026596
10102.280851	4193.635000	1818.498047	120.562286
10102.280851	4193.635000	1817.500000	-11.044544
10102.280851	4193.635000	1816.500977	123.143227
10102.280851	4193.635000	1815.502930	56.168388
10102.280851	4193.635000	1814.504883	29.880701
10102.280851	4193.635000	1813.505859	-29.926802
10102.280851	4193.635000	1812.506836	101.664154
10102.280851	4193.635000	1811.507813	87.260704
10102.280851	4193.635000	1810.508789	106.317673
10102.280851	4193.635000	1809.508789	120.555740
10102.280851	4193.635000	1808.508789	51.084702
10102.280851	4193.635000	1807.508789	12.685072
10102.280851	4193.635000	1806.508789	36.406410
10102.280851	4193.635000	1805.508789	-45.042538
10102.280851	4193.635000	1804.508789	21.623154
10102.280851	4193.635000	1803.507813	30.909187
10102.280851	4193.635000	1802.506836	102.250275
10102.280851	4193.635000	1801.505859	27.892775
10102.280851	4193.635000	1800.504883	10.823788
10102.280851	4193.635000	1799.502930	19.982523
10102.280851	4193.635000	1798.501953	91.150078
10102.280851	4193.635000	1797.500000	85.913567
10102.280851	4193.635000	1796.498047	40.098026
10102.280851	4193.635000	1795.496094	-79.662437
10102.280851	4193.635000	1794.493164	89.102509
10102.280851	4193.635000	1793.491211	140.959457
10102.280851	4193.635000	1792.488281	87.889275
10102.280851	4193.635000	1791.485352	-41.450764
10102.280851	4193.635000	1790.482422	-27.818144
10102.280851	4193.635000	1789.478516	50.092808
10102.280851	4193.635000	1788.475586	63.638069
10102.280851	4193.635000	1787.471680	-60.969334
10102.280851	4193.635000	1786.467773	240.600403
10102.280851	4193.635000	1785.463867	13.585934
10102.280851	4193.635000	1784.459961	103.150230
10102.280851	4193.635000	1783.455078	145.056320
10102.280851	4193.635000	1782.450195	65.584373
10102.280851	4193.635000	1781.445313	64.600983
10102.280851	4193.635000	1780.440430	-60.076565
10102.280851	4193.635000	1779.435547	-13.550396
10102.280851	4193.635000	1778.429688	35.298851
10102.280851	4193.635000	1777.424805	0.911888
10102.280851	4193.635000	1776.418945	-28.745459
10102.280851	4193.635000	1775.413086	126.888962
10102.280851	4193.635000	1774.406250	244.421707
10102.280851	4193.635000	1773.400391	133.884094
10102.280851	4193.635000	1772.393555	99.335480
10102.280851	4193.635000	1771.386719	24.406525
10102.280851	4193.635000	1770.379883	44.415066
10102.280851	4193.635000	1769.373047	-68.513916
10102.280851	4193.635000	1768.365234	77.184959
10102.280851	4193.635000	1767.358398	-52.382324
10102.280851	4193.635000	1766.350586	133.508743
10102.280851	4193.635000	1765.342773	56.077431
10102.280851	4193.635000	1764.334961	196.760757
10102.280851	4193.635000	1763.326172	48.162071
10102.280851	4193.635000	1762.318359	-12.723153
10102.280851	4193.635000	1761.309570	-61.775177
10102.280851	4193.635000	1760.300781	-30.295050
10102.280851	4193.635000	1759.291016	10.610016
10102.280851	4193.635000	1758.282227	15.945060
10102.280851	4193.635000	1757.272461	-99.512703
10102.280851	4193.635000	1756.262695	-4.274614
10102.280851	4193.635000	1755.252930	-32.181927
10102.280851	4193.635000	1754.243164	114.997849
10102.280851	4193.635000	1753.233398	23.129539
10102.280851	4193.635000	1752.222656	37.704861
10102.280851	4193.635000	1751.211914	-122.770737
10102.280851	4193.635000	1750.201172	-112.971001
10102.280851	4193.635000	1749.190430	19.724295
10102.280851	4193.635000	1748.179688	22.333307
10102.280851	4193.635000	1747.167969	86.347633
10102.280851	4193.635000	1746.156250	-3.275916
10102.280851	4193.635000	1745.144531	-109.435181
10102.280851	4193.635000	1744.132813	20.597990
10102.280851	4193.635000	1743.121094	79.705559
10102.280851	4193.635000	1742.108398	-12.348047
10102.280851	4193.635000	1741.095703	-47.747456
10102.280851	4193.635000	1740.083008	-52.486656
10102.280851	4193.635000	1739.070313	51.285088
10102.280851	4193.635000	1738.057617	-83.290962
10102.280851	4193.635000	1737.043945	55.758476
10102.280851	4193.635000	1736.030273	-114.210510
10102.280851	4193.635000	1735.016602	-20.072748
10102.280851	4193.635000	1734.002930	-34.441833
10102.280851	4193.635000	1732.989258	-81.834671
10102.280851	4193.635000	1731.974609	68.696983
10102.280851	4193.635000	1730.959961	-42.377323
10102.280851	4193.635000	1729.945313	-101.619400
10102.280851	4193.635000	1728.930664	86.415771
10102.280851	4193.635000	1727.916016	-5.856565
10102.280851	4193.635000	1726.900391	54.895027
10102.280851	4193.635000	1725.885742	-91.535172
10102.280851	4193.635000	1724.870117	-75.565575
10102.280851	4193.635000	1723.853516	13.301512
10102.280851	4193.635000	1722.837891	-133.133102
10102.280851	4193.635000	1721.822266	-105.496986
10102.280851	4193.635000	1720.805664	-30.875366
10102.280851	4193.635000	1719.789063	22.528337
10102.280851	4193.635000	1718.772461	-81.608871
10102.280851	4193.635000	1717.754883	70.427536
10102.280851	4193.635000	1716.738281	-19.639400
10102.280851	4193.635000	1715.720703	-58.021515
10102.280851	4193.635000	1714.703125	152.555939
10102.280851	4193.635000	1713.685547	13.118640
10102.280851	4193.635000	1712.667969	122.585297
10102.280851	4193.635000	1711.649414	13.663977
10102.280851	4193.635000	1710.630859	50.270660
10102.280851	4193.635000	1709.612305	-2.332648
10102.280851	4193.635000	1708.593750	-17.405914
10102.280851	4193.635000	1707.575195	-65.339470
10102.280851	4193.635000	1706.555664	-82.797920
10102.280851	4193.635000	1705.536133	148.268661
10102.280851	4193.635000	1704.516602	-66.198524
10102.280851	4193.635000	1703.497070	-27.472591
10102.280851	4193.635000	1702.477539	-7.534187
10102.280851	4193.635000	1701.457031	-15.748697
10102.280851	4193.635000	1700.437500	20.527187
10102.280851	4193.635000	1699.416992	131.705933
10102.280851	4193.635000	1698.395508	-120.136520
10102.280851	4193.635000	1697.375000	65.895226
10102.280851	4193.635000	1696.354492	36.486061
10102.280851	4193.635000	1695.333008	-23.362314
10102.280851	4193.635000	1694.311523	40.798737
10102.280851	4193.635000	1693.290039	90.875809
10102.280851	4193.635000	1692.267578	105.823181
10102.280851	4193.635000	1691.246094	1.486236
10102.280851	4193.635000	1690.223633	-2.302988
10102.280851	4193.635000	1689.201172	-29.487825
10102.280851	4193.635000	1688.178711	62.509228
10102.280851	4193.635000	1687.155273	-182.033401
10102.280851	4193.635000	1686.132813	-17.660759
10102.280851	4193.635000	1685.109375	13.485392
10102.280851	4193.635000	1684.085938	72.623444
10102.280851	4193.635000	1683.062500	66.343613
10102.280851	4193.635000	1682.039063	-110.365448
10102.280851	4193.635000	1681.014648	-23.291803
10102.280851	4193.635000	1679.990234	10.059389
10102.280851	4193.635000	1678.965820	78.375511
10102.280851	4193.635000	1677.941406	74.337135
10102.280851	4193.635000	1676.916992	25.971483
10102.280851	4193.635000	1675.891602	70.871796
10102.280851	4193.635000	1674.866211	-47.450897
10102.280851	4193.635000	1673.840820	69.669327
10102.280851	4193.635000	1672.815430	9.620055
10102.280851	4193.635000	1671.790039	-8.482096
10102.280851	4193.635000	1670.763672	33.968746
10102.280851	4193.635000	1669.737305	-121.578323
10102.280851	4193.635000	1668.710938	-32.578960
10102.280851	4193.635000	1667.684570	-76.331100
10102.280851	4193.635000	1666.658203	-13.006707
10102.280851	4193.635000	1665.630859	-45.140572
10102.280851	4193.635000	1664.603516	106.540688
10102.280851	4193.635000	1663.576172	104.613647
10102.280851	4193.635000	1662.548828	39.877060
10102.280851	4193.635000	1661.520508	7.704792
10102.280851	4193.635000	1660.493164	-70.960701
10102.280851	4193.635000	1659.464844	99.113739
10102.280851	4193.635000	1658.436523	1.843165
10102.280851	4193.635000	1657.408203	176.464798
10102.280851	4193.635000	1656.378906	165.150345
10102.280851	4193.635000	1655.350586	46.990761
10102.280851	4193.635000	1654.321289	-17.724207
10102.280851	4193.635000	1653.291992	29.025991
10102.280851	4193.635000	1652.261719	87.351997
10102.280851	4193.635000	1651.232422	43.532333
10102.280851	4193.635000	1650.202148	-53.653561
10102.280851	4193.635000	1649.171875	37.115196
10102.280851	4193.635000	1648.141602	273.976227
10102.280851	4193.635000	1647.111328	304.337189
10102.280851	4193.635000	1646.080078	70.345329
10102.280851	4193.635000	1645.049805	195.771393
10102.280851	4193.635000	1644.018555	191.343536
10102.280851	4193.635000	1642.987305	145.201492
10102.280851	4193.635000	1641.955078	163.941727
10102.280851	4193.635000	1640.923828	196.575241
10102.280851	4193.635000	1639.891602	175.920975
10102.280851	4193.635000	1638.859375	273.365295
10102.280851	4193.635000	1637.827148	271.220612
10102.280851	4193.635000	1636.794922	-8.682558
10102.280851	4193.635000	1635.761719	292.381653
10102.280851	4193.635000	1634.729492	257.839264
10102.280851	4193.635000	1633.696289	107.640625
10102.280851	4193.635000	1632.662109	163.339371
10102.280851	4193.635000	1631.628906	355.454285
10102.280851	4193.635000	1630.594727	288.551453
10102.280851	4193.635000	1629.561523	263.288788
10102.280851	4193.635000	1628.527344	305.053650
10102.280851	4193.635000	1627.493164	168.888153
10102.280851	4193.635000	1626.458008	284.580627
10102.280851	4193.635000	1625.423828	250.105453
10102.280851	4193.635000	1624.388672	259.518921
10102.280851	4193.635000	1623.353516	292.020813
10102.280851	4193.635000	1622.318359	236.797089
10102.280851	4193.635000	1621.282227	84.662079
10102.280851	4193.635000	1620.247070	345.633942
10102.280851	4193.635000	1619.210938	509.610413
10102.280851	4193.635000	1618.174805	475.164764
10102.280851	4193.635000	1617.137695	394.611328
10102.280851	4193.635000	1616.101563	438.608337
10102.280851	4193.635000	1615.064453	341.972046
10102.280851	4193.635000	1614.027344	365.230286
10102.280851	4193.635000	1612.990234	547.485962
10102.280851	4193.635000	1611.953125	506.203918
10102.280851	4193.635000	1610.916016	416.575470
10102.280851	4193.635000	1609.877930	375.349060
10102.280851	4193.635000	1608.839844	334.149200
10102.280851	4193.635000	1607.801758	612.965454
10102.280851	4193.635000	1606.763672	481.993195
10102.280851	4193.635000	1605.724609	443.126373
10102.280851	4193.635000	1604.685547	438.797485
10102.280851	4193.635000	1603.646484	496.590942
10102.280851	4193.635000	1602.607422	496.878235
10102.280851	4193.635000	1601.568359	504.076782
10102.280851	4193.635000	1600.528320	550.363342
10102.280851	4193.635000	1599.489258	654.113159
10102.280851	4193.635000	1598.449219	592.372742
10102.280851	4193.635000	1597.408203	613.379822
10102.280851	4193.635000	1596.368164	744.662354
10102.280851	4193.635000	1595.327148	402.783569
10102.280851	4193.635000	1594.287109	329.720978
10102.280851	4193.635000	1593.246094	463.321167
10102.280851	4193.635000	1592.204102	388.003967
10102.280851	4193.635000	1591.163086	372.405518
10102.280851	4193.635000	1590.121094	558.738647
10102.280851	4193.635000	1589.079102	589.024475
10102.280851	4193.635000	1588.037109	568.858582
10102.280851	4193.635000	1586.995117	342.339539
10102.280851	4193.635000	1585.953125	489.632233
10102.280851	4193.635000	1584.910156	462.674011
10102.280851	4193.635000	1583.867188	509.083496
10102.280851	4193.635000	1582.824219	287.410370
10102.280851	4193.635000	1581.781250	400.312256
10102.280851	4193.635000	1580.737305	352.856934
10102.280851	4193.635000	1579.693359	369.561340
10102.280851	4193.635000	1578.649414	503.046997
10102.280851	4193.635000	1577.605469	290.851807
10102.280851	4193.635000	1576.561523	449.520569
10102.280851	4193.635000	1575.516602	319.835083
10102.280851	4193.635000	1574.472656	270.299286
10102.280851	4193.635000	1573.427734	339.740509
10102.280851	4193.635000	1572.381836	349.717316
10102.280851	4193.635000	1571.336914	236.254028
10102.280851	4193.635000	1570.291016	330.876373
10102.280851	4193.635000	1569.246094	482.628082
10102.280851	4193.635000	1568.200195	387.557465
10102.280851	4193.635000	1567.153320	290.261566
10102.280851	4193.635000	1566.107422	183.897324
10102.280851	4193.635000	1565.060547	328.804626
10102.280851	4193.635000	1564.013672	327.553802
10102.280851	4193.635000	1562.966797	298.937592
10102.280851	4193.635000	1561.919922	277.207367
10102.280851	4193.635000	1560.872070	234.972794
10102.280851	4193.635000	1559.825195	398.117981
10102.280851	4193.635000	1558.777344	358.214569
10102.280851	4193.635000	1557.729492	188.363983
10102.280851	4193.635000	1556.680664	365.182831
10102.280851	4193.635000	1555.632813	311.719513
10102.280851	4193.635000	1554.583984	126.109390
10102.280851	4193.635000	1553.535156	193.545044
10102.280851	4193.635000	1552.486328	226.810913
10102.280851	4193.635000	1551.436523	351.205444
10102.280851	4193.635000	1550.387695	309.334351
10102.280851	4193.635000	1549.337891	-1.175033
10102.280851	4193.635000	1548.288086	196.134811
10102.280851	4193.635000	1547.238281	331.945313
10102.280851	4193.635000	1546.187500	344.847534
10102.280851	4193.635000	1545.136719	369.153351
10102.280851	4193.635000	1544.086914	272.925537
10102.280851	4193.635000	1543.035156	308.670776
10102.280851	4193.635000	1541.984375	110.233498
10102.280851	4193.635000	1540.933594	214.269714
10102.280851	4193.635000	1539.881836	231.923920
10102.280851	4193.635000	1538.830078	151.888641
10102.280851	4193.635000	1537.778320	392.277893
10102.280851	4193.635000	1536.725586	316.852448
10102.280851	4193.635000	1535.673828	298.274139
10102.280851	4193.635000	1534.621094	286.547729
10102.280851	4193.635000	1533.568359	399.725861
10102.280851	4193.635000	1532.515625	428.912781
10102.280851	4193.635000	1531.461914	419.542816
10102.280851	4193.635000	1530.409180	237.778824
10102.280851	4193.635000	1529.355469	287.503845
10102.280851	4193.635000	1528.301758	344.050140
10102.280851	4193.635000	1527.247070	368.862885
10102.280851	4193.635000	1526.193359	19.633001
10102.280851	4193.635000	1525.138672	103.508904
10102.280851	4193.635000	1524.083984	28.754856
10102.280851	4193.635000	1523.029297	160.253860
10102.280851	4193.635000	1521.974609	246.433380
10102.280851	4193.635000	1520.918945	17.796829
10102.280851	4193.635000	1519.863281	235.382248
10102.280851	4193.635000	1518.807617	43.141006
10102.280851	4193.635000	1517.751953	68.313995
10102.280851	4193.635000	1516.696289	23.360865
10102.280851	4193.635000	1515.639648	170.787186
10102.280851	4193.635000	1514.583008	148.531647
10102.280851	4193.635000	1513.526367	-18.426556
10102.280851	4193.635000	1512.469727	47.635376
10102.280851	4193.635000	1511.412109	75.274910
10102.280851	4193.635000	1510.355469	84.863480
10102.280851	4193.635000	1509.297852	146.466064
10102.280851	4193.635000	1508.240234	239.718399
10102.280851	4193.635000	1507.181641	41.555027
10102.280851	4193.635000	1506.124023	96.478394
10102.280851	4193.635000	1505.065430	234.970795
10102.280851	4193.635000	1504.006836	215.410934
10102.280851	4193.635000	1502.948242	78.523537
10102.280851	4193.635000	1501.888672	158.384476
10102.280851	4193.635000	1500.830078	166.054352
10102.280851	4193.635000	1499.770508	45.175026
10102.280851	4193.635000	1498.710938	140.911118
10102.280851	4193.635000	1497.650391	83.309334
10102.280851	4193.635000	1496.590820	129.485107
10102.280851	4193.635000	1495.530273	58.469795
10102.280851	4193.635000	1494.469727	50.628494
10102.280851	4193.635000	1493.409180	69.872932
10102.280851	4193.635000	1492.348633	107.175354
10102.280851	4193.635000	1491.287109	137.748245
10102.280851	4193.635000	1490.225586	44.498997
10102.280851	4193.635000	1489.164063	-91.446800
10102.280851	4193.635000	1488.102539	15.812777
10102.280851	4193.635000	1487.041016	-2.957061
10102.280851	4193.635000	1485.978516	0.824986
10102.280851	4193.635000	1484.916016	-76.327927
10102.280851	4193.635000	1483.853516	13.015408
10102.280851	4193.635000	1482.791016	147.351151
10102.280851	4193.635000	1481.727539	149.029297
10102.280851	4193.635000	1480.664063	-150.447433
10102.280851	4193.635000	1479.600586	-96.944214
10102.280851	4193.635000	1478.537109	-59.115311
10102.280851	4193.635000	1477.473633	-133.565674
10102.280851	4193.635000	1476.409180	-88.925072
10102.280851	4193.635000	1475.344727	-93.735458
10102.280851	4193.635000	1474.280273	65.513947
10102.280851	4193.635000	1473.215820	38.344151
10102.280851	4193.635000	1472.151367	76.314255
10102.280851	4193.635000	1471.085938	4.404055
10102.280851	4193.635000	1470.020508	-29.216227
10102.280851	4193.635000	1468.955078	-33.574413
10102.280851	4193.635000	1467.888672	-31.329277
10102.280851	4193.635000	1466.823242	-60.297012
10102.280851	4193.635000	1465.756836	-29.041224
10102.280851	4193.635000	1464.690430	-33.060371
10102.280851	4193.635000	1463.624023	-6.083954
10102.280851	4193.635000	1462.556641	184.632278
10102.280851	4193.635000	1461.490234	48.041225
10102.280851	4193.635000	1460.422852	138.013275
10102.280851	4193.635000	1459.355469	124.851013
10102.280851	4193.635000	1458.287109	64.884300
10102.280851	4193.635000	1457.219727	66.124748
10102.280851	4193.635000	1456.151367	117.753632
10102.280851	4193.635000	1455.083008	201.190536
10102.280851	4193.635000	1454.014648	-59.500629
10102.280851	4193.635000	1452.945313	253.437943
10102.280851	4193.635000	1451.876953	73.310379
10102.280851	4193.635000	1450.807617	-19.311501
10102.280851	4193.635000	1449.738281	70.670860
10102.280851	4193.635000	1448.668945	109.065018
10102.280851	4193.635000	1447.598633	1.885296
10102.280851	4193.635000	1446.528320	210.920059
10102.280851	4193.635000	1445.458008	-26.255583
10102.280851	4193.635000	1444.387695	-34.179775
10102.280851	4193.635000	1443.317383	98.077087
10102.280851	4193.635000	1442.246094	152.189178
10102.280851	4193.635000	1441.174805	60.870930
10102.280851	4193.635000	1440.103516	92.779938
10102.280851	4193.635000	1439.032227	131.400513
10102.280851	4193.635000	1437.960938	7.058698
10102.280851	4193.635000	1436.888672	162.012878
10102.280851	4193.635000	1435.816406	117.212097
10102.280851	4193.635000	1434.744141	-71.616219
10102.280851	4193.635000	1433.670898	117.740997
10102.280851	4193.635000	1432.598633	179.056046
10102.280851	4193.635000	1431.525391	37.021828
10102.280851	4193.635000	1430.452148	20.742411
10102.280851	4193.635000	1429.378906	95.679108
10102.280851	4193.635000	1428.304688	-176.533432
10102.280851	4193.635000	1427.231445	128.656448
10102.280851	4193.635000	1426.157227	18.981083
10102.280851	4193.635000	1425.083008	-79.682701
10102.280851	4193.635000	1424.007813	-151.580490
10102.280851	4193.635000	1422.933594	-87.686829
10102.280851	4193.635000	1421.858398	-99.624535
10102.280851	4193.635000	1420.783203	-197.865112
10102.280851	4193.635000	1419.708008	84.118126
10102.280851	4193.635000	1418.631836	57.245831
10102.280851	4193.635000	1417.555664	18.228970
10102.280851	4193.635000	1416.479492	-9.467763
10102.280851	4193.635000	1415.403320	-13.977344
10102.280851	4193.635000	1414.327148	86.377312
10102.280851	4193.635000	1413.250000	-74.720795
10102.280851	4193.635000	1412.173828	-92.147903
10102.280851	4193.635000	1411.096680	-68.165237
10102.280851	4193.635000	1410.018555	-100.847084
10102.280851	4193.635000	1408.941406	-65.999115
10102.280851	4193.635000	1407.863281	-26.044945
10102.280851	4193.635000	1406.785156	-2.377025
10102.280851	4193.635000	1405.707031	68.210510
10102.280851	4193.635000	1404.628906	-74.649712
10102.280851	4193.635000	1403.549805	-47.233356
10102.280851	4193.635000	1402.470703	-88.253838
10102.280851	4193.635000	1401.391602	40.912178
10102.280851	4193.635000	1400.312500	-27.618320
10102.280851	4193.635000	1399.233398	131.398117
10102.280851	4193.635000	1398.153320	34.322723
10102.280851	4193.635000	1397.073242	105.692368
10102.280851	4193.635000	1395.993164	125.789551
10102.280851	4193.635000	1394.913086	-54.582710
10102.280851	4193.635000	1393.832031	17.238701
10102.280851	4193.635000	1392.750977	119.241669
10102.280851	4193.635000	1391.669922	-113.265907
10102.280851	4193.635000	1390.588867	-15.814540
10102.280851	4193.635000	1389.506836	10.402590
10102.280851	4193.635000	1388.425781	15.905015
10102.280851	4193.635000	1387.343750	-16.206579
10102.280851	4193.635000	1386.261719	-48.251663
10102.280851	4193.635000	1385.178711	-78.200157
10102.280851	4193.635000	1384.096680	148.415436
10102.280851	4193.635000	1383.013672	47.648708
10102.280851	4193.635000	1381.930664	116.499855
10102.280851	4193.635000	1380.846680	-28.665453
10102.280851	4193.635000	1379.763672	36.359245
10102.280851	4193.635000	1378.679688	-13.395149
10102.280851	4193.635000	1377.595703	75.738914
10102.280851	4193.635000	1376.511719	45.956493
10102.280851	4193.635000	1375.427734	-97.984360
10102.280851	4193.635000	1374.342773	73.065887
10102.280851	4193.635000	1373.257813	61.066635
10102.280851	4193.635000	1372.172852	-89.781204
10102.280851	4193.635000	1371.087891	239.740860
10102.280851	4193.635000	1370.001953	19.936291
10102.280851	4193.635000	1368.916992	21.975246
10102.280851	4193.635000	1367.831055	15.459563
10102.280851	4193.635000	1366.744141	132.508209
10102.280851	4193.635000	1365.658203	73.803360
10102.280851	4193.635000	1364.571289	157.275635
10102.280851	4193.635000	1363.484375	126.750862
10102.280851	4193.635000	1362.397461	175.213120
10102.280851	4193.635000	1361.310547	99.408226
10102.280851	4193.635000	1360.222656	-29.157463
10102.280851	4193.635000	1359.135742	-25.433962
10102.280851	4193.635000	1358.047852	68.001877
10102.280851	4193.635000	1356.958984	16.783659
10102.280851	4193.635000	1355.871094	175.892334
10102.280851	4193.635000	1354.782227	153.785385
10102.280851	4193.635000	1353.693359	231.283005
10102.280851	4193.635000	1352.604492	153.636826
10102.280851	4193.635000	1351.515625	244.135651
10102.280851	4193.635000	1350.425781	182.330978
10102.280851	4193.635000	1349.335938	240.884628
10102.280851	4193.635000	1348.246094	95.124947
10102.280851	4193.635000	1347.156250	67.287956
10102.280851	4193.635000	1346.066406	143.695648
10102.280851	4193.635000	1344.975586	193.854218
10102.280851	4193.635000	1343.884766	189.946869
10102.280851	4193.635000	1342.793945	193.089020
10102.280851	4193.635000	1341.702148	304.750366
10102.280851	4193.635000	1340.611328	404.303131
10102.280851	4193.635000	1339.519531	403.179260
10102.280851	4193.635000	1338.427734	141.832245
10102.280851	4193.635000	1337.334961	107.382263
10102.280851	4193.635000	1336.243164	159.857162
10102.280851	4193.635000	1335.150391	200.189972
10102.280851	4193.635000	1334.057617	157.445465
10102.280851	4193.635000	1332.964844	154.628235
10102.280851	4193.635000	1331.871094	149.941544
10102.280851	4193.635000	1330.778320	295.882751
10102.280851	4193.635000	1329.684570	236.314758
10102.280851	4193.635000	1328.590820	201.227066
10102.280851	4193.635000	1327.496094	118.330360
10102.280851	4193.635000	1326.402344	130.230194
10102.280851	4193.635000	1325.307617	171.834595
10102.280851	4193.635000	1324.212891	152.454727
10102.280851	4193.635000	1323.117188	122.199287
10102.280851	4193.635000	1322.022461	98.691765
10102.280851	4193.635000	1320.926758	103.497559
10102.280851	4193.635000	1319.831055	274.419922
10102.280851	4193.635000	1318.735352	50.467854
10102.280851	4193.635000	1317.638672	47.269176
10102.280851	4193.635000	1316.542969	94.034081
10102.280851	4193.635000	1315.446289	84.426315
10102.280851	4193.635000	1314.349609	129.639191
10102.280851	4193.635000	1313.251953	90.163895
10102.280851	4193.635000	1312.155273	65.694847
10102.280851	4193.635000	1311.057617	51.456486
10102.280851	4193.635000	1309.959961	65.318794
10102.280851	4193.635000	1308.862305	-37.846947
10102.280851	4193.635000	1307.763672	81.998878
10102.280851	4193.635000	1306.665039	92.067032
10102.280851	4193.635000	1305.566406	91.850861
10102.280851	4193.635000	1304.467773	50.395947
10102.280851	4193.635000	1303.369141	12.974439
10102.280851	4193.635000	1302.269531	49.105045
10102.280851	4193.635000	1301.169922	45.450111
10102.280851	4193.635000	1300.070313	166.151901
10102.280851	4193.635000	1298.970703	102.958145
10102.280851	4193.635000	1297.870117	112.275307
10102.280851	4193.635000	1296.769531	33.368706
10102.280851	4193.635000	1295.668945	85.009995
10102.280851	4193.635000	1294.568359	-74.531113
10102.280851	4193.635000	1293.466797	34.751991
10102.280851	4193.635000	1292.366211	22.934040
10102.280851	4193.635000	1291.264648	168.356705
10102.280851	4193.635000	1290.162109	74.922058
10102.280851	4193.635000	1289.060547	55.172039
10102.280851	4193.635000	1287.958008	-85.570160
10102.280851	4193.635000	1286.855469	88.204803
10102.280851	4193.635000	1285.752930	88.913597
10102.280851	4193.635000	1284.650391	74.405060
10102.280851	4193.635000	1283.546875	-31.088518
10102.280851	4193.635000	1282.444336	18.822334
10102.280851	4193.635000	1281.339844	44.632542
10102.280851	4193.635000	1280.236328	8.539931
10102.280851	4193.635000	1279.132813	69.199188
10102.280851	4193.635000	1278.028320	71.366592
10102.280851	4193.635000	1276.923828	187.923950
10102.280851	4193.635000	1275.819336	159.650269
10102.280851	4193.635000	1274.713867	106.749100
10102.280851	4193.635000	1273.608398	41.062214
10102.280851	4193.635000	1272.503906	145.726227
10102.280851	4193.635000	1271.397461	77.946266
10102.280851	4193.635000	1270.291992	3.367208
10102.280851	4193.635000	1269.185547	-58.732841
10102.280851	4193.635000	1268.080078	8.516331
10102.280851	4193.635000	1266.972656	-38.699100
10102.280851	4193.635000	1265.866211	13.726583
10102.280851	4193.635000	1264.759766	-59.660702
10102.280851	4193.635000	1263.652344	-100.127510
10102.280851	4193.635000	1262.544922	-22.829239
10102.280851	4193.635000	1261.436523	-108.708702
10102.280851	4193.635000	1260.329102	-36.777122
10102.280851	4193.635000	1259.220703	49.111420
10102.280851	4193.635000	1258.112305	46.229729
10102.280851	4193.635000	1257.003906	-46.231552
10102.280851	4193.635000	1255.895508	-94.484619
10102.280851	4193.635000	1254.786133	-125.701263
10102.280851	4193.635000	1253.676758	-41.161911
10102.280851	4193.635000	1252.567383	-105.032845
10102.280851	4193.635000	1251.458008	-147.375381
10102.280851	4193.635000	1250.347656	-161.194778
10102.280851	4193.635000	1249.237305	-85.915039
10102.280851	4193.635000	1248.126953	-207.122360
10102.280851	4193.635000	1247.016602	-125.341423
10102.280851	4193.635000	1245.905273	-108.257172
10102.280851	4193.635000	1244.793945	-155.026016
10102.280851	4193.635000	1243.682617	-95.417763
10102.280851	4193.635000	1242.571289	-65.511772
10102.280851	4193.635000	1241.459961	16.505667
10102.280851	4193.635000	1240.347656	-78.645599
10102.280851	4193.635000	1239.235352	-92.476463
10102.280851	4193.635000	1238.123047	-22.238171
10102.280851	4193.635000	1237.009766	-43.977940
10102.280851	4193.635000	1235.897461	-13.173381
10102.280851	4193.635000	1234.784180	-37.554424
10102.280851	4193.635000	1233.670898	90.078972
10102.280851	4193.635000	1232.556641	7.031138
10102.280851	4193.635000	1231.443359	-45.878635
10102.280851	4193.635000	1230.329102	7.838466
10102.280851	4193.635000	1229.214844	34.961102
10102.280851	4193.635000	1228.099609	-77.070641
10102.280851	4193.635000	1226.985352	31.032259
10102.280851	4193.635000	1225.870117	68.135567
10102.280851	4193.635000	1224.754883	-72.548439
10102.280851	4193.635000	1223.639648	85.285164
10102.280851	4193.635000	1222.523438	67.707817
10102.280851	4193.635000	1221.408203	200.096466
10102.280851	4193.635000	1220.291992	185.255341
10102.280851	4193.635000	1219.174805	230.704697
10102.280851	4193.635000	1218.058594	73.225327
10102.280851	4193.635000	1216.941406	169.832855
10102.280851	4193.635000	1215.824219	243.619492
10102.280851	4193.635000	1214.707031	234.860397
10102.280851	4193.635000	1213.589844	126.616379
10102.280851	4193.635000	1212.471680	145.838257
10102.280851	4193.635000	1211.353516	75.672424
10102.280851	4193.635000	1210.235352	87.331085
10102.280851	4193.635000	1209.117188	92.340874
10102.280851	4193.635000	1207.998047	129.490494
10102.280851	4193.635000	1206.878906	-49.611721
10102.280851	4193.635000	1205.759766	-14.187162
10102.280851	4193.635000	1204.640625	-36.934761
10102.280851	4193.635000	1203.520508	72.361397
10102.280851	4193.635000	1202.401367	52.204918
10102.280851	4193.635000	1201.281250	39.915516
10102.280851	4193.635000	1200.160156	29.250311
10102.280851	4193.635000	1199.040039	33.866749
10102.280851	4193.635000	1197.918945	73.596733
10102.280851	4193.635000	1196.797852	94.850929
10102.280851	4193.635000	1195.676758	86.074471
10102.280851	4193.635000	1194.555664	64.600174
10102.280851	4193.635000	1193.433594	26.514038
10102.280851	4193.635000	1192.311523	-20.145798
10102.280851	4193.635000	1191.189453	110.675179
10102.280851	4193.635000	1190.066406	8.943803
10102.280851	4193.635000	1188.944336	66.113571
10102.280851	4193.635000	1187.821289	-100.903648
10102.280851	4193.635000	1186.698242	-107.024734
10102.280851	4193.635000	1185.574219	-9.361019
10102.280851	4193.635000	1184.451172	-98.379814
10102.280851	4193.635000	1183.327148	-75.382202
10102.280851	4193.635000	1182.203125	-37.550655
10102.280851	4193.635000	1181.078125	-180.224548
10102.280851	4193.635000	1179.954102	-57.919933
10102.280851	4193.635000	1178.829102	-115.336418
10102.280851	4193.635000	1177.704102	-87.588051
10102.280851	4193.635000	1176.579102	-74.796082
10102.280851	4193.635000	1175.453125	-116.225204
10102.280851	4193.635000	1174.327148	-39.736031
10102.280851	4193.635000	1173.201172	-38.200287
10102.280851	4193.635000	1172.075195	-113.179626
10102.280851	4193.635000	1170.949219	-101.646362
10102.280851	4193.635000	1169.822266	-80.426262
10102.280851	4193.635000	1168.695313	-59.858887
10102.280851	4193.635000	1167.568359	-64.146996
10102.280851	4193.635000	1166.440430	-45.649590
10102.280851	4193.635000	1165.313477	-93.566055
10102.280851	4193.635000	1164.185547	-23.286631
10102.280851	4193.635000	1163.057617	-75.525810
10102.280851	4193.635000	1161.928711	12.470161
10102.280851	4193.635000	1160.800781	-11.156684
10102.280851	4193.635000	1159.671875	-11.586228
10102.280851	4193.635000	1158.541992	55.743393
10102.280851	4193.635000	1157.413086	-21.055496
10102.280851	4193.635000	1156.283203	-84.246338
10102.280851	4193.635000	1155.154297	20.946325
10102.280851	4193.635000	1154.023438	54.177845
10102.280851	4193.635000	1152.893555	74.157898
10102.280851	4193.635000	1151.763672	9.520563
10102.280851	4193.635000	1150.632813	-80.980499
10102.280851	4193.635000	1149.501953	20.309040
10102.280851	4193.635000	1148.370117	34.119381
10102.280851	4193.635000	1147.239258	-2.021391
10102.280851	4193.635000	1146.107422	62.327187
10102.280851	4193.635000	1144.975586	67.985031
10102.280851	4193.635000	1143.843750	-16.420982
10102.280851	4193.635000	1142.710938	10.771418
10102.280851	4193.635000	1141.578125	90.322136
10102.280851	4193.635000	1140.445313	144.581192
10102.280851	4193.635000	1139.312500	109.098320
10102.280851	4193.635000	1138.178711	44.270123
10102.280851	4193.635000	1137.045898	-30.096739
10102.280851	4193.635000	1135.912109	64.059570
10102.280851	4193.635000	1134.777344	31.418631
10102.280851	4193.635000	1133.643555	65.745674
10102.280851	4193.635000	1132.508789	-2.197330
10102.280851	4193.635000	1131.374023	54.608925
10102.280851	4193.635000	1130.239258	165.389481
10102.280851	4193.635000	1129.104492	138.277100
10102.280851	4193.635000	1127.968750	60.069164
10102.280851	4193.635000	1126.833008	167.908112
10102.280851	4193.635000	1125.697266	-143.074783
10102.280851	4193.635000	1124.560547	14.498916
10102.280851	4193.635000	1123.424805	-68.820160
10102.280851	4193.635000	1122.288086	66.821045
10102.280851	4193.635000	1121.151367	131.522064
10102.280851	4193.635000	1120.013672	60.127068
10102.280851	4193.635000	1118.876953	37.638004
10102.280851	4193.635000	1117.739258	60.434677
10102.280851	4193.635000	1116.601563	88.278786
10102.280851	4193.635000	1115.462891	67.099922
10102.280851	4193.635000	1114.324219	124.085106
10102.280851	4193.635000	1113.186523	105.315956
10102.280851	4193.635000	1112.046875	25.695473
10102.280851	4193.635000	1110.908203	19.197077
10102.280851	4193.635000	1109.769531	34.380219
10102.280851	4193.635000	1108.629883	-45.661037
10102.280851	4193.635000	1107.490234	-56.360657
10102.280851	4193.635000	1106.349609	159.840729
10102.280851	4193.635000	1105.209961	-14.965233
10102.280851	4193.635000	1104.069336	-13.451782
10102.280851	4193.635000	1102.928711	-61.398041
10102.280851	4193.635000	1101.787109	23.167425
10102.280851	4193.635000	1100.646484	59.475540
10102.280851	4193.635000	1099.504883	90.928642
10102.280851	4193.635000	1098.363281	88.289673
10102.280851	4193.635000	1097.221680	23.914576
10102.280851	4193.635000	1096.079102	193.025711
10102.280851	4193.635000	1094.936523	44.067204
10102.280851	4193.635000	1093.793945	94.031738
10102.280851	4193.635000	1092.651367	197.822159
10102.280851	4193.635000	1091.507813	111.268669
10102.280851	4193.635000	1090.364258	57.293980
10102.280851	4193.635000	1089.220703	61.221840
10102.280851	4193.635000	1088.077148	60.723152
10102.280851	4193.635000	1086.933594	85.989349
10102.280851	4193.635000	1085.789063	239.681137
10102.280851	4193.635000	1084.644531	44.812622
10102.280851	4193.635000	1083.499023	34.693413
10102.280851	4193.635000	1082.354492	-48.670673
10102.280851	4193.635000	1081.208984	87.612030
10102.280851	4193.635000	1080.063477	94.995613
10102.280851	4193.635000	1078.917969	77.908340
10102.280851	4193.635000	1077.771484	86.689537
10102.280851	4193.635000	1076.625977	137.370560
10102.280851	4193.635000	1075.479492	104.267265
10102.280851	4193.635000	1074.332031	33.610107
10102.280851	4193.635000	1073.185547	209.672699
10102.280851	4193.635000	1072.038086	-105.349281
10102.280851	4193.635000	1070.890625	82.633621
10102.280851	4193.635000	1069.743164	60.488636
10102.280851	4193.635000	1068.594727	-55.776047
10102.280851	4193.635000	1067.447266	-43.838810
10102.280851	4193.635000	1066.298828	24.887964
10102.280851	4193.635000	1065.149414	69.672829
10102.280851	4193.635000	1064.000977	42.655846
10102.280851	4193.635000	1062.851563	120.756584
10102.280851	4193.635000	1061.702148	185.145691
10102.280851	4193.635000	1060.552734	112.156723
10102.280851	4193.635000	1059.402344	176.643936
10102.280851	4193.635000	1058.252930	119.568359
10102.280851	4193.635000	1057.102539	244.605759
10102.280851	4193.635000	1055.951172	151.465637
10102.280851	4193.635000	1054.800781	-2.311350
10102.280851	4193.635000	1053.649414	-30.140295
10102.280851	4193.635000	1052.498047	182.235016
10102.280851	4193.635000	1051.346680	70.553391
10102.280851	4193.635000	1050.194336	59.283283
10102.280851	4193.635000	1049.042969	221.905930
10102.280851	4193.635000	1047.890625	262.823975
10102.280851	4193.635000	1046.738281	232.411865
10102.280851	4193.635000	1045.584961	178.504181
10102.280851	4193.635000	1044.431641	104.318207
10102.280851	4193.635000	1043.278320	246.426239
10102.280851	4193.635000	1042.125000	180.815170
10102.280851	4193.635000	1040.971680	195.788284
10102.280851	4193.635000	1039.817383	146.390564
10102.280851	4193.635000	1038.663086	101.748039
10102.280851	4193.635000	1037.508789	219.266998
10102.280851	4193.635000	1036.353516	213.354721
10102.280851	4193.635000	1035.198242	122.537148
10102.280851	4193.635000	1034.042969	168.429581
10102.280851	4193.635000	1032.887695	151.616074
10102.280851	4193.635000	1031.732422	180.452637
10102.280851	4193.635000	1030.576172	232.982239
10102.280851	4193.635000	1029.419922	117.788010
10102.280851	4193.635000	1028.263672	153.653717
10102.280851	4193.635000	1027.106445	41.403015
10102.280851	4193.635000	1025.949219	3.332478
10102.280851	4193.635000	1024.792969	119.682556
10102.280851	4193.635000	1023.634766	-10.110604
10102.280851	4193.635000	1022.477539	15.031639
10102.280851	4193.635000	1021.319336	182.128067
10102.280851	4193.635000	1020.161133	154.275101
10102.280851	4193.635000	1019.002930	219.883942
10102.280851	4193.635000	1017.843750	95.880707
10102.280851	4193.635000	1016.684570	93.888725
10102.280851	4193.635000	1015.525391	-6.487442
10102.280851	4193.635000	1014.366211	34.756176
10102.280851	4193.635000	1013.207031	80.199242
10102.280851	4193.635000	1012.046875	-14.250241
10102.280851	4193.635000	1010.886719	15.627775
10102.280851	4193.635000	1009.726563	3.682974
10102.280851	4193.635000	1008.565430	-58.672287
10102.280851	4193.635000	1007.404297	102.886574
10102.280851	4193.635000	1006.243164	-35.415276
10102.280851	4193.635000	1005.082031	90.251823
10102.280851	4193.635000	1003.920898	-67.356194
10102.280851	4193.635000	1002.758789	122.883430
10102.280851	4193.635000	1001.596680	-36.804295
10102.280851	4193.635000	1000.433594	-23.655998
10102.280851	4193.635000	999.271484	37.119675
10102.280851	4193.635000	998.108398	-11.617640
10102.280851	4193.635000	996.945313	44.310257
10102.280851	4193.635000	995.782227	82.766708
10102.280851	4193.635000	994.618164	123.064339
10102.280851	4193.635000	993.454102	51.072285
10102.280851	4193.635000	992.290039	131.402435
10102.280851	4193.635000	991.125977	115.981613
10102.280851	4193.635000	989.960938	114.495934
10102.280851	4193.635000	988.796875	40.645634
10102.280851	4193.635000	987.630859	117.673935
10102.280851	4193.635000	986.465820	134.728867
10102.280851	4193.635000	985.300781	142.871017
10102.280851	4193.635000	984.134766	8.893900
10102.280851	4193.635000	982.968750	221.897186
10102.280851	4193.635000	981.801758	178.512741
10102.280851	4193.635000	980.635742	244.140121
10102.280851	4193.635000	979.468750	2.805654
10102.280851	4193.635000	978.301758	94.545097
10102.280851	4193.635000	977.133789	-21.785149
10102.280851	4193.635000	975.966797	-59.459724
10102.280851	4193.635000	974.798828	-51.120384
10102.280851	4193.635000	973.630859	82.956177
10102.280851	4193.635000	972.461914	40.484230
10102.280851	4193.635000	971.293945	40.410889
10102.280851	4193.635000	970.125000	-104.621506
10102.280851	4193.635000	968.956055	-34.077606
10102.280851	4193.635000	967.786133	5.716795
10102.280851	4193.635000	966.617188	5.526248
10102.280851	4193.635000	965.447266	-65.664200
10102.280851	4193.635000	964.276367	-101.638710
10102.280851	4193.635000	963.106445	-13.331394
10102.280851	4193.635000	961.935547	-50.950630
10102.280851	4193.635000	960.764648	44.706474
10102.280851	4193.635000	959.593750	-41.346851
10102.280851	4193.635000	958.422852	-51.483604
10102.280851	4193.635000	957.250977	-28.017473
10102.280851	4193.635000	956.079102	-96.046318
10102.280851	4193.635000	954.907227	-4.647726
10102.280851	4193.635000	953.734375	-202.804855
10102.280851	4193.635000	952.562500	-52.504402
10102.280851	4193.635000	951.389648	42.845867
10102.280851	4193.635000	950.215820	-150.919067
10102.280851	4193.635000	949.042969	-32.872307
10102.280851	4193.635000	947.869141	66.911850
10102.280851	4193.635000	946.695313	-2.726902
10102.280851	4193.635000	945.521484	-118.185989
10102.280851	4193.635000	944.346680	11.472740
10102.280851	4193.635000	943.172852	-0.777323
10102.280851	4193.635000	941.998047	-64.283058
10102.280851	4193.635000	940.822266	104.735336
10102.280851	4193.635000	939.647461	43.864067
10102.280851	4193.635000	938.471680	1.681023
10102.280851	4193.635000	937.295898	-130.125412
10102.280851	4193.635000	936.119141	-126.685501
10102.280851	4193.635000	934.943359	-35.887089
10102.280851	4193.635000	933.766602	-108.114761
10102.280851	4193.635000	932.589844	69.610413
10102.280851	4193.635000	931.413086	-23.159296
10102.280851	4193.635000	930.235352	133.792969
10102.280851	4193.635000	929.057617	43.264030
10102.280851	4193.635000	927.879883	-1.391597
10102.280851	4193.635000	926.702148	29.551683
10102.280851	4193.635000	925.523438	-31.182480
10102.280851	4193.635000	924.344727	91.358047
10102.280851	4193.635000	923.166016	-72.404366
10102.280851	4193.635000	921.987305	-7.168440
10102.280851	4193.635000	920.807617	110.682983
10102.280851	4193.635000	919.627930	113.001480
10102.280851	4193.635000	919.497070	96.000244
10102.280851	4193.635000	918.331055	-3.630644
10102.280851	4193.635000	917.165039	139.259979
10102.280851	4193.635000	915.999023	62.513897
10102.280851	4193.635000	914.833008	42.957771
10102.280851	4193.635000	913.666016	34.833702
10102.280851	4193.635000	912.499023	-60.156590
10102.280851	4193.635000	911.332031	-97.984306
10102.280851	4193.635000	910.165039	-140.376038
10102.280851	4193.635000	908.997070	91.368324
10102.280851	4193.635000	907.830078	-12.729083
10102.280851	4193.635000	906.661133	-4.900551
10102.280851	4193.635000	905.493164	18.894300
10102.280851	4193.635000	904.325195	-18.957951
10102.280851	4193.635000	903.156250	-24.853962
10102.280851	4193.635000	901.987305	21.719564
10102.280851	4193.635000	900.818359	6.674228
10102.280851	4193.635000	899.648438	18.995174
10102.280851	4193.635000	898.478516	-62.186604
10102.280851	4193.635000	897.308594	-63.554726
10102.280851	4193.635000	896.138672	149.319977
10102.280851	4193.635000	894.968750	-50.366245
10102.280851	4193.635000	893.797852	-24.422720
10102.280851	4193.635000	892.626953	63.002766
10102.280851	4193.635000	891.456055	66.118187
10102.280851	4193.635000	890.284180	137.533112
10102.280851	4193.635000	889.113281	236.224564
10102.280851	4193.635000	887.941406	191.478119
10102.280851	4193.635000	886.768555	180.875244
10102.280851	4193.635000	885.596680	31.483828
10102.280851	4193.635000	884.423828	39.094765
10102.280851	4193.635000	883.250977	180.867462
10102.280851	4193.635000	882.078125	163.412704
10102.280851	4193.635000	880.905273	186.873505
10102.280851	4193.635000	879.731445	187.587860
10102.280851	4193.635000	878.557617	133.756714
10102.280851	4193.635000	877.383789	245.780396
10102.280851	4193.635000	876.209961	32.942047
10102.280851	4193.635000	875.035156	219.860870
10102.280851	4193.635000	873.860352	84.289604
10102.280851	4193.635000	872.685547	-12.647317
10102.280851	4193.635000	871.510742	53.849358
10102.280851	4193.635000	870.334961	-88.442520
10102.280851	4193.635000	869.159180	-112.721367
10102.280851	4193.635000	867.983398	-28.131783
10102.280851	4193.635000	866.807617	-84.182632
10102.280851	4193.635000	865.630859	-110.746498
10102.280851	4193.635000	864.454102	-28.508091
10102.280851	4193.635000	863.277344	-104.953331
10102.280851	4193.635000	862.100586	-47.697052
10102.280851	4193.635000	860.922852	82.016548
10102.280851	4193.635000	859.745117	-35.205227
10102.280851	4193.635000	858.567383	-122.953773
10102.280851	4193.635000	857.389648	63.258137
10102.280851	4193.635000	856.210938	-19.970009
10102.280851	4193.635000	855.032227	7.710831
10102.280851	4193.635000	853.853516	-111.696991
10102.280851	4193.635000	852.674805	-47.839565
10102.280851	4193.635000	851.495117	72.520744
10102.280851	4193.635000	850.315430	50.366795
10102.280851	4193.635000	849.135742	136.721924
10102.280851	4193.635000	847.956055	-25.595583
10102.280851	4193.635000	846.775391	96.871559
10102.280851	4193.635000	845.595703	36.271420
10102.280851	4193.635000	844.415039	47.966942
10102.280851	4193.635000	843.233398	98.038071
10102.280851	4193.635000	842.052734	32.921009
10102.280851	4193.635000	840.871094	69.402954
10102.280851	4193.635000	839.689453	22.348206
10102.280851	4193.635000	838.506836	-11.160050
10102.280851	4193.635000	837.325195	36.547890
10102.280851	4193.635000	836.142578	39.111649
10102.280851	4193.635000	834.959961	-129.728455
10102.280851	4193.635000	833.777344	-43.737179
10102.280851	4193.635000	832.593750	-54.724957
10102.280851	4193.635000	831.410156	64.993385
10102.280851	4193.635000	830.226563	51.705818
10102.280851	4193.635000	829.042969	110.498161
10102.280851	4193.635000	827.858398	22.851437
10102.280851	4193.635000	826.673828	92.856621
10102.280851	4193.635000	825.489258	-10.540116
10102.280851	4193.635000	824.304688	88.674286
10102.280851	4193.635000	823.120117	-10.208311
10102.280851	4193.635000	821.934570	-28.064852
10102.280851	4193.635000	820.749023	-115.665146
10102.280851	4193.635000	819.562500	-72.797798
10102.280851	4193.635000	818.376953	46.488029
10102.280851	4193.635000	817.190430	69.039558
10102.280851	4193.635000	816.003906	60.097279
10102.280851	4193.635000	814.817383	-54.476627
10102.280851	4193.635000	813.629883	37.682972
10102.280851	4193.635000	812.442383	105.078331
10102.280851	4193.635000	811.254883	33.187824
10102.280851	4193.635000	810.067383	6.217379
10102.280851	4193.635000	808.878906	15.160490
10102.280851	4193.635000	807.690430	-14.072826
10102.280851	4193.635000	806.501953	39.716026
10102.280851	4193.635000	805.313477	46.350639
10102.280851	4193.635000	804.124023	26.049549
10102.280851	4193.635000	802.934570	-61.538403
10102.280851	4193.635000	801.745117	-63.907501
10102.280851	4193.635000	800.555664	-10.252211
10102.280851	4193.635000	799.365234	16.468687
10102.280851	4193.635000	798.175781	25.233839
10102.280851	4193.635000	796.985352	42.938316
10102.280851	4193.635000	795.793945	-114.086525
10102.280851	4193.635000	794.603516	80.509148
10102.280851	4193.635000	793.412109	42.163765
10102.280851	4193.635000	792.220703	-112.582100
10102.280851	4193.635000	791.028320	48.267265
10102.280851	4193.635000	789.836914	30.031536
10102.280851	4193.635000	788.644531	34.154388
10102.280851	4193.635000	787.452148	-89.227348
10102.280851	4193.635000	786.258789	-44.870964
10102.280851	4193.635000	785.066406	-51.973251
10102.280851	4193.635000	783.873047	-128.381668
10102.280851	4193.635000	782.679688	79.027473
10102.280851	4193.635000	781.485352	158.978775
10102.280851	4193.635000	780.291992	-22.474937
10102.280851	4193.635000	779.097656	-38.609463
10102.280851	4193.635000	777.903320	34.555408
10102.280851	4193.635000	776.708008	-68.688423
10102.280851	4193.635000	775.512695	-55.851437
10102.280851	4193.635000	774.318359	-89.902512
10102.280851	4193.635000	773.122070	14.361347
10102.280851	4193.635000	771.926758	24.877487
10102.280851	4193.635000	770.730469	68.818581
10102.280851	4193.635000	769.534180	-63.419014
10102.280851	4193.635000	768.337891	0.540058
10102.280851	4193.635000	767.141602	66.678574
10102.280851	4193.635000	765.944336	148.364441
10102.280851	4193.635000	764.747070	283.459900
10102.280851	4193.635000	763.549805	255.884766
10102.280851	4193.635000	762.351563	328.504425
10102.280851	4193.635000	761.154297	334.280548
10102.280851	4193.635000	759.956055	446.873230
10102.280851	4193.635000	758.757813	258.963196
10102.280851	4193.635000	757.558594	224.630173
10102.280851	4193.635000	756.359375	150.246780
10102.280851	4193.635000	755.160156	180.400284
10102.280851	4193.635000	753.960938	159.374756
10102.280851	4193.635000	752.761719	158.341461
10102.280851	4193.635000	751.561523	41.706665
10102.280851	4193.635000	750.361328	62.871914
10102.280851	4193.635000	749.160156	175.093536
10102.280851	4193.635000	747.959961	89.551880
10102.280851	4193.635000	746.758789	152.814362
10102.280851	4193.635000	745.557617	162.737228
10102.280851	4193.635000	744.356445	-47.136189
10102.280851	4193.635000	743.154297	142.545578
10102.280851	4193.635000	741.952148	252.240356
10102.280851	4193.635000	740.750000	115.613113
10102.280851	4193.635000	739.547852	156.458145
10102.280851	4193.635000	738.344727	259.351471
10102.280851	4193.635000	737.142578	51.783806
10102.280851	4193.635000	735.939453	143.521011
10102.280851	4193.635000	734.735352	146.546799
10102.280851	4193.635000	733.532227	87.505875
10102.280851	4193.635000	732.328125	139.224487
10102.280851	4193.635000	731.124023	42.504944
10102.280851	4193.635000	729.918945	180.515854
10102.280851	4193.635000	728.714844	61.636497
10102.280851	4193.635000	727.509766	104.356026
10102.280851	4193.635000	726.303711	180.224594
10102.280851	4193.635000	725.098633	123.287132
10102.280851	4193.635000	723.892578	33.165974
10102.280851	4193.635000	722.686523	20.459005
10102.280851	4193.635000	721.480469	76.272598
10102.280851	4193.635000	720.274414	185.090073
10102.280851	4193.635000	719.067383	37.457317
10102.280851	4193.635000	717.860352	115.245750
10102.280851	4193.635000	716.653320	-38.993916
10102.280851	4193.635000	715.445313	-67.297882
10102.280851	4193.635000	714.238281	-104.450882
10102.280851	4193.635000	713.030273	8.515246
10102.280851	4193.635000	711.821289	6.622366
10102.280851	4193.635000	710.613281	-127.711487
10102.280851	4193.635000	709.404297	-52.405964
10102.280851	4193.635000	708.195313	-74.223236
10102.280851	4193.635000	706.986328	23.037819
10102.280851	4193.635000	705.776367	-73.815887
10102.280851	4193.635000	704.566406	-122.156326
10102.280851	4193.635000	703.356445	8.029663
10102.280851	4193.635000	702.146484	49.985207
10102.280851	4193.635000	700.935547	-5.046827
10102.280851	4193.635000	699.724609	-20.435373
10102.280851	4193.635000	698.513672	17.008512
10102.280851	4193.635000	697.302734	43.398586
10102.280851	4193.635000	696.090820	10.311623
10102.280851	4193.635000	694.878906	80.651245
10102.280851	4193.635000	693.666992	80.519020
10102.280851	4193.635000	692.455078	31.958887
10102.280851	4193.635000	691.242188	11.982113
10102.280851	4193.635000	690.029297	22.771729
10102.280851	4193.635000	688.816406	35.726669
10102.280851	4193.635000	687.602539	86.013420
10102.280851	4193.635000	686.389648	107.682335
10102.280851	4193.635000	685.175781	120.522896
10102.280851	4193.635000	683.960938	71.819244
10102.280851	4193.635000	682.747070	-64.741898
10102.280851	4193.635000	681.532227	24.892017
10102.280851	4193.635000	680.317383	28.840755
10102.280851	4193.635000	679.102539	-19.918592
10102.280851	4193.635000	677.886719	36.645058
10102.280851	4193.635000	676.670898	11.979182
10102.280851	4193.635000	675.455078	70.647804
10102.280851	4193.635000	674.239258	61.278908
10102.280851	4193.635000	673.022461	-51.166813
10102.280851	4193.635000	671.805664	7.390069
10102.280851	4193.635000	670.588867	98.768471
10102.280851	4193.635000	669.372070	21.358599
10102.280851	4193.635000	668.154297	108.255363
10102.280851	4193.635000	666.936523	109.666702
10102.280851	4193.635000	665.718750	152.655197
10102.280851	4193.635000	664.500977	-67.122787
10102.280851	4193.635000	663.282227	54.625801
10102.280851	4193.635000	662.063477	112.831192
10102.280851	4193.635000	660.844727	-60.939133
10102.280851	4193.635000	659.625000	-33.416561
10102.280851	4193.635000	658.405273	64.050880
10102.280851	4193.635000	657.185547	139.583435
10102.280851	4193.635000	655.965820	147.287170
10102.280851	4193.635000	654.745117	-151.030777
10102.280851	4193.635000	653.525391	186.637268
10102.280851	4193.635000	652.303711	76.265610
10102.280851	4193.635000	651.083008	94.785500
10102.280851	4193.635000	649.861328	65.225525
10102.280851	4193.635000	648.640625	20.368965
10102.280851	4193.635000	647.417969	252.725510
10102.280851	4193.635000	646.196289	238.346313
10102.280851	4193.635000	644.973633	71.208549
10102.280851	4193.635000	643.750977	82.996727
10102.280851	4193.635000	642.528320	99.115311
10102.280851	4193.635000	641.305664	-22.174292
10102.280851	4193.635000	640.082031	122.531036
10102.280851	4193.635000	638.858398	-64.155388
10102.280851	4193.635000	637.634766	43.400414
10102.280851	4193.635000	636.410156	68.091263
10102.280851	4193.635000	635.185547	27.399206
10102.280851	4193.635000	633.960938	28.076881
10102.280851	4193.635000	632.736328	41.792957
10102.280851	4193.635000	631.510742	46.769291
10102.280851	4193.635000	630.285156	-65.807877
10102.280851	4193.635000	629.059570	82.752113
10102.280851	4193.635000	627.833984	122.450943
10102.280851	4193.635000	626.607422	-40.171223
10102.280851	4193.635000	625.380859	-24.433910
10102.280851	4193.635000	624.154297	49.974155
10102.280851	4193.635000	622.927734	52.596668
10102.280851	4193.635000	621.700195	174.717880
10102.280851	4193.635000	620.472656	18.656059
10102.280851	4193.635000	619.245117	-15.715504
10102.280851	4193.635000	618.016602	-52.269329
10102.280851	4193.635000	616.788086	-36.717857
10102.280851	4193.635000	615.559570	-177.497833
10102.280851	4193.635000	614.331055	-27.404408
10102.280851	4193.635000	613.101563	-24.955647
10102.280851	4193.635000	611.872070	-85.443993
10102.280851	4193.635000	610.642578	-104.716331
10102.280851	4193.635000	609.413086	-173.878342
10102.280851	4193.635000	608.182617	-104.274307
10102.280851	4193.635000	606.952148	-36.888012
10102.280851	4193.635000	605.721680	-69.240631
10102.280851	4193.635000	604.491211	-92.932457
10102.280851	4193.635000	603.259766	-42.983128
10102.280851	4193.635000	602.028320	-110.027206
10102.280851	4193.635000	600.796875	32.977112
10102.280851	4193.635000	599.564453	39.511631
10102.280851	4193.635000	598.332031	37.367611
10102.280851	4193.635000	597.099609	-12.400436
10102.280851	4193.635000	595.867188	43.846973
10102.280851	4193.635000	594.633789	-36.221382
10102.280851	4193.635000	593.400391	32.945580
10102.280851	4193.635000	592.166992	-47.119587
10102.280851	4193.635000	590.933594	-6.113812
10102.280851	4193.635000	589.699219	41.339157
10102.280851	4193.635000	588.464844	80.113716
10102.280851	4193.635000	587.230469	71.329819
10102.280851	4193.635000	585.995117	125.167419
10102.280851	4193.635000	584.760742	96.913628
10102.280851	4193.635000	583.525391	72.973404
10102.280851	4193.635000	582.289063	46.868053
10102.280851	4193.635000	581.053711	79.028313
10102.280851	4193.635000	579.817383	-24.764940
10102.280851	4193.635000	578.581055	31.095688
10102.280851	4193.635000	577.343750	93.386765
10102.280851	4193.635000	576.107422	95.269577
10102.280851	4193.635000	574.870117	10.910178
10102.280851	4193.635000	573.631836	12.781075
10102.280851	4193.635000	572.394531	141.773087
10102.280851	4193.635000	571.156250	85.427223
10102.280851	4193.635000	569.917969	57.094120
10102.280851	4193.635000	568.679688	50.297070
10102.280851	4193.635000	567.440430	-57.697174
10102.280851	4193.635000	566.202148	81.880692
10102.280851	4193.635000	564.961914	182.648560
10102.280851	4193.635000	563.722656	162.880829
10102.280851	4193.635000	562.482422	117.297653
10102.280851	4193.635000	561.243164	254.530670
10102.280851	4193.635000	560.001953	94.970154
10102.280851	4193.635000	558.761719	139.693817
10102.280851	4193.635000	557.520508	-140.146149
10102.280851	4193.635000	556.279297	44.262867
10102.280851	4193.635000	555.038086	61.017864
10102.280851	4193.635000	553.795898	26.207800
10102.280851	4193.635000	552.554688	105.222176
10102.280851	4193.635000	551.311523	98.313492
10102.280851	4193.635000	550.069336	84.966232
10102.280851	4193.635000	548.826172	-72.166962
10102.280851	4193.635000	547.583984	-66.171188
10102.280851	4193.635000	546.339844	-8.705615
10102.280851	4193.635000	545.096680	5.841209
10102.280851	4193.635000	543.852539	93.278137
10102.280851	4193.635000	542.608398	-83.004608
10102.280851	4193.635000	541.364258	-89.896873
10102.280851	4193.635000	540.119141	-118.219437
10102.280851	4193.635000	538.875000	-35.127235
10102.280851	4193.635000	537.628906	116.462196
10102.280851	4193.635000	536.383789	133.076813
10102.280851	4193.635000	535.137695	25.503920
10102.280851	4193.635000	533.892578	-105.567680
10102.280851	4193.635000	532.645508	-73.945206
10102.280851	4193.635000	531.399414	-74.428368
10102.280851	4193.635000	530.152344	72.685654
10102.280851	4193.635000	528.905273	-98.927361
10102.280851	4193.635000	527.658203	-58.782818
10102.280851	4193.635000	526.410156	6.995211
10102.280851	4193.635000	525.163086	74.884499
10102.280851	4193.635000	523.914063	-30.344549
10102.280851	4193.635000	522.666016	-101.342827
10102.280851	4193.635000	521.416992	41.279934
10102.280851	4193.635000	520.167969	-130.071548
10102.280851	4193.635000	518.918945	-77.172501
10102.280851	4193.635000	517.669922	-131.022324
10102.280851	4193.635000	516.419922	-127.230026
10102.280851	4193.635000	515.169922	4.580243
10102.280851	4193.635000	513.919922	12.610734
10102.280851	4193.635000	512.668945	50.495075
10102.280851	4193.635000	511.417969	26.529476
10102.280851	4193.635000	510.166992	-148.782593
10102.280851	4193.635000	508.916016	-176.954758
10102.280851	4193.635000	507.664063	59.114334
10102.280851	4193.635000	506.412109	84.171021
10102.280851	4193.635000	505.160156	77.269485
10102.280851	4193.635000	503.907227	63.981262
10102.280851	4193.635000	502.655273	63.477654
10102.280851	4193.635000	501.402344	-69.000145
10102.280851	4193.635000	500.148438	-50.323780
10102.280851	4193.635000	498.895508	51.327869
10102.280851	4193.635000	497.641602	-30.006670
10102.280851	4193.635000	496.387695	129.019836
10102.280851	4193.635000	495.132813	183.786926
10102.280851	4193.635000	493.878906	79.095596
10102.280851	4193.635000	492.624023	-99.941956
10102.280851	4193.635000	491.368164	-11.162391
10102.280851	4193.635000	490.113281	-179.480103
10102.280851	4193.635000	488.857422	87.696053
10102.280851	4193.635000	487.601563	-120.921143
10102.280851	4193.635000	486.344727	-229.665695
10102.280851	4193.635000	485.088867	-53.927216
10102.280851	4193.635000	483.832031	5.010834
10102.280851	4193.635000	482.575195	49.070118
10102.280851	4193.635000	481.317383	-49.019993
10102.280851	4193.635000	480.059570	-43.150883
10102.280851	4193.635000	478.801758	5.120334
10102.280851	4193.635000	477.543945	-12.350414
10102.280851	4193.635000	476.285156	122.779892
10102.280851	4193.635000	475.027344	-79.069016
10102.280851	4193.635000	473.767578	-66.870499
10102.280851	4193.635000	472.508789	4.625896
10102.280851	4193.635000	471.249023	27.377096
10102.280851	4193.635000	469.989258	7.767368
10102.280851	4193.635000	468.729492	-85.926682
10102.280851	4193.635000	467.469727	48.966049
10102.280851	4193.635000	466.208984	82.229683
10102.280851	4193.635000	464.948242	66.815742
10102.280851	4193.635000	463.686523	-20.511284
10102.280851	4193.635000	462.425781	-52.835320
10102.280851	4193.635000	461.164063	138.918350
10102.280851	4193.635000	459.901367	195.307770
10102.280851	4193.635000	458.639648	74.163979
10102.280851	4193.635000	457.376953	43.895012
10102.280851	4193.635000	456.114258	-34.957996
10102.280851	4193.635000	454.851563	42.468529
10102.280851	4193.635000	453.587891	-21.613089
10102.280851	4193.635000	452.324219	19.849905
10102.280851	4193.635000	451.060547	90.816658
10102.280851	4193.635000	449.796875	-28.158035
10102.280851	4193.635000	448.532227	91.252151
10102.280851	4193.635000	447.267578	3.907460
10102.280851	4193.635000	446.002930	102.118889
10102.280851	4193.635000	444.737305	54.800934
10102.280851	4193.635000	443.471680	-15.711662
10102.280851	4193.635000	442.206055	111.842148
10102.280851	4193.635000	440.940430	91.839066
10102.280851	4193.635000	439.673828	160.265533
10102.280851	4193.635000	438.407227	-47.229378
10102.280851	4193.635000	437.140625	225.331467
10102.280851	4193.635000	435.873047	38.874176
10102.280851	4193.635000	434.605469	208.093643
10102.280851	4193.635000	433.337891	122.617676
10102.280851	4193.635000	432.070313	47.647289
10102.280851	4193.635000	430.801758	29.436821
10102.280851	4193.635000	429.533203	72.154671
10102.280851	4193.635000	428.264648	194.677917
10102.280851	4193.635000	426.996094	218.312790
10102.280851	4193.635000	425.726563	50.664738
10102.280851	4193.635000	424.457031	162.424026
10102.280851	4193.635000	423.186523	150.148529
10102.280851	4193.635000	421.916992	79.018349
10102.280851	4193.635000	420.646484	146.402573
10102.280851	4193.635000	419.375977	91.946442
10102.280851	4193.635000	418.104492	159.143341
10102.280851	4193.635000	416.833008	320.641418
10102.280851	4193.635000	415.561523	26.816992
10102.280851	4193.635000	414.290039	81.151352
10102.280851	4193.635000	413.017578	64.083107
10102.280851	4193.635000	411.746094	51.125206
10102.280851	4193.635000	410.472656	21.302618
10102.280851	4193.635000	409.200195	108.732010
10102.280851	4193.635000	407.926758	237.912247
10102.280851	4193.635000	406.653320	-5.868567
10102.280851	4193.635000	405.379883	-8.854853
10102.280851	4193.635000	404.105469	155.517807
10102.280851	4193.635000	402.831055	112.492065
10102.280851	4193.635000	401.556641	-8.062502
10102.280851	4193.635000	400.282227	-185.178787
10102.280851	4193.635000	399.006836	-19.325375
10102.280851	4193.635000	397.731445	62.672527
10102.280851	4193.635000	396.456055	138.221680
10102.280851	4193.635000	395.179688	44.275726
10102.280851	4193.635000	393.903320	92.328300
10102.280851	4193.635000	392.626953	129.758987
10102.280851	4193.635000	391.350586	41.678253
10102.280851	4193.635000	390.073242	-2.676000
10102.280851	4193.635000	388.795898	80.187431
10102.280851	4193.635000	387.518555	-89.754150
10102.280851	4193.635000	386.240234	-7.269410
10102.280851	4193.635000	384.961914	79.167053
10102.280851	4193.635000	383.683594	111.133766
10102.280851	4193.635000	382.405273	111.602699
10102.280851	4193.635000	381.125977	72.241608
10102.280851	4193.635000	379.846680	32.688290
10102.280851	4193.635000	378.567383	11.696576
10102.280851	4193.635000	377.287109	32.163834
10102.280851	4193.635000	376.006836	35.726479
10102.280851	4193.635000	374.726563	43.219490
10102.280851	4193.635000	373.446289	129.605652
10102.280851	4193.635000	372.165039	7.487148
10102.280851	4193.635000	370.883789	12.148011
10102.280851	4193.635000	369.602539	12.383135
10102.280851	4193.635000	368.320313	49.793697
10102.280851	4193.635000	367.039063	74.438713
10102.280851	4193.635000	365.755859	-3.141567
10102.280851	4193.635000	364.473633	95.778160
10102.280851	4193.635000	363.190430	179.793289
10102.280851	4193.635000	361.907227	47.301506
10102.280851	4193.635000	360.624023	14.297380
10102.280851	4193.635000	359.340820	224.060959
10102.280851	4193.635000	358.056641	-73.428726
10102.280851	4193.635000	356.772461	44.205303
10102.280851	4193.635000	355.487305	-85.643250
10102.280851	4193.635000	354.202148	-16.520081
10102.280851	4193.635000	352.916992	-165.704056
10102.280851	4193.635000	351.631836	70.725517
10102.280851	4193.635000	350.346680	68.107597
10102.280851	4193.635000	349.060547	-78.021355
10102.280851	4193.635000	347.774414	-15.068330
10102.280851	4193.635000	346.487305	-76.955856
10102.280851	4193.635000	345.200195	53.509392
10102.280851	4193.635000	343.913086	55.006798
10102.280851	4193.635000	342.625977	10.478757
10102.280851	4193.635000	341.338867	-111.124718
10102.280851	4193.635000	340.050781	-98.557373
10102.280851	4193.635000	338.762695	-132.023621
10102.280851	4193.635000	337.473633	34.797340
10102.280851	4193.635000	336.184570	-51.430939
10102.280851	4193.635000	334.895508	-26.412254
10102.280851	4193.635000	333.606445	55.987282
10102.280851	4193.635000	332.317383	-100.019035
10102.280851	4193.635000	331.027344	-153.145126
10102.280851	4193.635000	329.736328	-35.254562
10102.280851	4193.635000	328.446289	55.156727
10102.280851	4193.635000	327.155273	-49.311935
10102.280851	4193.635000	325.864258	-38.653721
10102.280851	4193.635000	324.573242	-20.356348
10102.280851	4193.635000	323.281250	-139.004440
10102.280851	4193.635000	321.989258	-2.252161
10102.280851	4193.635000	320.697266	75.986809
10102.280851	4193.635000	319.405273	-77.603798
10102.280851	4193.635000	318.112305	-79.167686
10102.280851	4193.635000	316.819336	-130.941040
10102.280851	4193.635000	315.526367	0.126361
10102.280851	4193.635000	314.232422	-34.565178
10102.280851	4193.635000	312.938477	-22.583527
10102.280851	4193.635000	311.644531	-42.288422
10102.280851	4193.635000	310.349609	-5.102823
10102.280851	4193.635000	309.054688	14.785177
10102.280851	4193.635000	307.759766	23.547779
10102.280851	4193.635000	306.464844	105.598137
10102.280851	4193.635000	305.168945	1.456554
10102.280851	4193.635000	303.873047	67.317101
10102.280851	4193.635000	302.577148	91.105301
10102.280851	4193.635000	301.281250	58.430000
10102.280851	4193.635000	299.984375	304.541107
