#X		#Y		#Wave		#Intensity
9334.278723	5080.490000	1999.946289	33.801613
9334.278723	5080.490000	1998.981445	-56.072296
9334.278723	5080.490000	1998.017578	-12.654401
9334.278723	5080.490000	1997.052734	23.319563
9334.278723	5080.490000	1996.088867	54.333157
9334.278723	5080.490000	1995.124023	11.026175
9334.278723	5080.490000	1994.159180	-27.304241
9334.278723	5080.490000	1993.193359	-28.469812
9334.278723	5080.490000	1992.228516	-24.675758
9334.278723	5080.490000	1991.262695	-20.876472
9334.278723	5080.490000	1990.296875	96.773254
9334.278723	5080.490000	1989.331055	63.445442
9334.278723	5080.490000	1988.365234	104.355804
9334.278723	5080.490000	1987.398438	120.522003
9334.278723	5080.490000	1986.432617	-33.952183
9334.278723	5080.490000	1985.465820	53.951828
9334.278723	5080.490000	1984.499023	50.359966
9334.278723	5080.490000	1983.532227	27.002350
9334.278723	5080.490000	1982.565430	58.026089
9334.278723	5080.490000	1981.597656	-4.845061
9334.278723	5080.490000	1980.629883	58.298244
9334.278723	5080.490000	1979.662109	27.569912
9334.278723	5080.490000	1978.694336	-45.121231
9334.278723	5080.490000	1977.726563	-6.677880
9334.278723	5080.490000	1976.758789	-32.423874
9334.278723	5080.490000	1975.790039	28.225168
9334.278723	5080.490000	1974.821289	113.532562
9334.278723	5080.490000	1973.852539	-8.422953
9334.278723	5080.490000	1972.883789	5.336792
9334.278723	5080.490000	1971.915039	98.014320
9334.278723	5080.490000	1970.945313	-9.062057
9334.278723	5080.490000	1969.975586	-44.600990
9334.278723	5080.490000	1969.005859	-23.431929
9334.278723	5080.490000	1968.036133	37.163517
9334.278723	5080.490000	1967.066406	23.824152
9334.278723	5080.490000	1966.096680	-14.140807
9334.278723	5080.490000	1965.125977	16.875782
9334.278723	5080.490000	1964.155273	119.297813
9334.278723	5080.490000	1963.184570	17.334400
9334.278723	5080.490000	1962.213867	-13.200600
9334.278723	5080.490000	1961.242188	-33.876545
9334.278723	5080.490000	1960.271484	-0.405641
9334.278723	5080.490000	1959.299805	-97.336395
9334.278723	5080.490000	1958.328125	-26.962959
9334.278723	5080.490000	1957.356445	-18.095503
9334.278723	5080.490000	1956.384766	-75.617439
9334.278723	5080.490000	1955.412109	9.472207
9334.278723	5080.490000	1954.439453	3.588991
9334.278723	5080.490000	1953.467773	-21.948715
9334.278723	5080.490000	1952.495117	48.349442
9334.278723	5080.490000	1951.521484	32.643761
9334.278723	5080.490000	1950.548828	134.840378
9334.278723	5080.490000	1949.575195	-30.666035
9334.278723	5080.490000	1948.601563	118.157242
9334.278723	5080.490000	1947.627930	80.366737
9334.278723	5080.490000	1946.654297	62.226738
9334.278723	5080.490000	1945.680664	-44.242840
9334.278723	5080.490000	1944.706055	57.865742
9334.278723	5080.490000	1943.732422	103.521332
9334.278723	5080.490000	1942.757813	-42.131119
9334.278723	5080.490000	1941.783203	-16.087477
9334.278723	5080.490000	1940.807617	63.881794
9334.278723	5080.490000	1939.833008	48.230141
9334.278723	5080.490000	1938.857422	25.233139
9334.278723	5080.490000	1937.881836	68.400543
9334.278723	5080.490000	1936.906250	-79.525566
9334.278723	5080.490000	1935.930664	10.183206
9334.278723	5080.490000	1934.955078	-2.990824
9334.278723	5080.490000	1933.978516	91.568115
9334.278723	5080.490000	1933.001953	34.322399
9334.278723	5080.490000	1932.025391	221.842728
9334.278723	5080.490000	1931.048828	30.010332
9334.278723	5080.490000	1930.072266	19.292879
9334.278723	5080.490000	1929.094727	-15.881604
9334.278723	5080.490000	1928.118164	-73.053337
9334.278723	5080.490000	1927.140625	-5.500673
9334.278723	5080.490000	1926.163086	8.242671
9334.278723	5080.490000	1925.184570	9.759024
9334.278723	5080.490000	1924.207031	128.577011
9334.278723	5080.490000	1923.228516	3.015450
9334.278723	5080.490000	1922.250000	53.388039
9334.278723	5080.490000	1921.271484	50.007412
9334.278723	5080.490000	1920.292969	34.417168
9334.278723	5080.490000	1919.314453	62.779068
9334.278723	5080.490000	1918.334961	10.573876
9334.278723	5080.490000	1917.355469	38.926815
9334.278723	5080.490000	1916.375977	-37.658554
9334.278723	5080.490000	1915.396484	66.320839
9334.278723	5080.490000	1914.416992	40.979877
9334.278723	5080.490000	1913.436523	66.861099
9334.278723	5080.490000	1912.457031	-31.623804
9334.278723	5080.490000	1911.476563	-81.316666
9334.278723	5080.490000	1910.496094	29.876987
9334.278723	5080.490000	1909.515625	-17.375711
9334.278723	5080.490000	1908.534180	-30.502209
9334.278723	5080.490000	1907.552734	56.252132
9334.278723	5080.490000	1906.572266	57.726189
9334.278723	5080.490000	1905.590820	15.364230
9334.278723	5080.490000	1904.608398	-34.289173
9334.278723	5080.490000	1903.626953	-3.596199
9334.278723	5080.490000	1902.644531	78.191360
9334.278723	5080.490000	1901.663086	-153.953201
9334.278723	5080.490000	1900.680664	37.305458
9334.278723	5080.490000	1899.698242	-68.265541
9334.278723	5080.490000	1898.714844	11.028654
9334.278723	5080.490000	1897.732422	-11.833045
9334.278723	5080.490000	1896.749023	150.070160
9334.278723	5080.490000	1895.765625	102.877937
9334.278723	5080.490000	1894.782227	38.688843
9334.278723	5080.490000	1893.798828	-6.042386
9334.278723	5080.490000	1892.814453	36.691341
9334.278723	5080.490000	1891.831055	16.257412
9334.278723	5080.490000	1890.846680	5.540203
9334.278723	5080.490000	1889.862305	-2.749287
9334.278723	5080.490000	1888.877930	8.379821
9334.278723	5080.490000	1887.892578	14.646024
9334.278723	5080.490000	1886.908203	30.612066
9334.278723	5080.490000	1885.922852	7.750668
9334.278723	5080.490000	1884.937500	-15.106789
9334.278723	5080.490000	1883.952148	102.698303
9334.278723	5080.490000	1882.965820	72.548004
9334.278723	5080.490000	1881.980469	6.040977
9334.278723	5080.490000	1880.994141	121.337662
9334.278723	5080.490000	1880.007813	-3.323311
9334.278723	5080.490000	1879.021484	-64.947884
9334.278723	5080.490000	1878.035156	84.196289
9334.278723	5080.490000	1877.047852	46.787384
9334.278723	5080.490000	1876.061523	67.504204
9334.278723	5080.490000	1875.074219	71.260071
9334.278723	5080.490000	1874.086914	-9.712215
9334.278723	5080.490000	1873.098633	100.532104
9334.278723	5080.490000	1872.111328	38.931400
9334.278723	5080.490000	1871.123047	-3.298309
9334.278723	5080.490000	1870.135742	80.259888
9334.278723	5080.490000	1869.147461	-27.268360
9334.278723	5080.490000	1868.158203	-25.957840
9334.278723	5080.490000	1867.169922	38.200195
9334.278723	5080.490000	1866.180664	124.080391
9334.278723	5080.490000	1865.192383	122.928093
9334.278723	5080.490000	1864.203125	-15.946767
9334.278723	5080.490000	1863.213867	38.473835
9334.278723	5080.490000	1862.223633	-8.569488
9334.278723	5080.490000	1861.234375	127.916946
9334.278723	5080.490000	1860.244141	78.447365
9334.278723	5080.490000	1859.253906	67.610634
9334.278723	5080.490000	1858.263672	35.051456
9334.278723	5080.490000	1857.273438	33.865482
9334.278723	5080.490000	1856.282227	-54.175217
9334.278723	5080.490000	1855.291992	-2.293432
9334.278723	5080.490000	1854.300781	27.857519
9334.278723	5080.490000	1853.309570	152.022781
9334.278723	5080.490000	1852.317383	47.123589
9334.278723	5080.490000	1851.326172	86.868340
9334.278723	5080.490000	1850.333984	-27.631916
9334.278723	5080.490000	1849.342773	79.557587
9334.278723	5080.490000	1848.350586	10.854993
9334.278723	5080.490000	1847.357422	108.347878
9334.278723	5080.490000	1846.365234	30.019634
9334.278723	5080.490000	1845.372070	115.420204
9334.278723	5080.490000	1844.379883	-6.220651
9334.278723	5080.490000	1843.386719	76.733414
9334.278723	5080.490000	1842.393555	-40.057823
9334.278723	5080.490000	1841.399414	98.185684
9334.278723	5080.490000	1840.406250	-13.770119
9334.278723	5080.490000	1839.412109	119.591682
9334.278723	5080.490000	1838.417969	7.657950
9334.278723	5080.490000	1837.423828	-82.607002
9334.278723	5080.490000	1836.429688	77.106850
9334.278723	5080.490000	1835.434570	181.484543
9334.278723	5080.490000	1834.440430	52.774765
9334.278723	5080.490000	1833.445313	63.422832
9334.278723	5080.490000	1832.450195	62.051006
9334.278723	5080.490000	1831.454102	55.868710
9334.278723	5080.490000	1830.458984	100.095657
9334.278723	5080.490000	1829.462891	69.890472
9334.278723	5080.490000	1828.466797	70.885460
9334.278723	5080.490000	1827.470703	83.868439
9334.278723	5080.490000	1826.474609	130.422623
9334.278723	5080.490000	1825.478516	-2.930033
9334.278723	5080.490000	1824.481445	67.585274
9334.278723	5080.490000	1823.484375	114.090889
9334.278723	5080.490000	1822.487305	112.629265
9334.278723	5080.490000	1821.490234	82.400818
9334.278723	5080.490000	1820.493164	-125.139885
9334.278723	5080.490000	1819.495117	38.722115
9334.278723	5080.490000	1818.498047	37.242622
9334.278723	5080.490000	1817.500000	78.860611
9334.278723	5080.490000	1816.500977	130.031113
9334.278723	5080.490000	1815.502930	135.690872
9334.278723	5080.490000	1814.504883	43.208912
9334.278723	5080.490000	1813.505859	130.226425
9334.278723	5080.490000	1812.506836	109.538429
9334.278723	5080.490000	1811.507813	33.831951
9334.278723	5080.490000	1810.508789	87.293495
9334.278723	5080.490000	1809.508789	152.681412
9334.278723	5080.490000	1808.508789	122.406982
9334.278723	5080.490000	1807.508789	77.793457
9334.278723	5080.490000	1806.508789	23.628902
9334.278723	5080.490000	1805.508789	79.387436
9334.278723	5080.490000	1804.508789	-5.830107
9334.278723	5080.490000	1803.507813	131.102737
9334.278723	5080.490000	1802.506836	141.410065
9334.278723	5080.490000	1801.505859	94.403389
9334.278723	5080.490000	1800.504883	16.372995
9334.278723	5080.490000	1799.502930	98.269066
9334.278723	5080.490000	1798.501953	101.381668
9334.278723	5080.490000	1797.500000	68.696846
9334.278723	5080.490000	1796.498047	52.712662
9334.278723	5080.490000	1795.496094	3.338062
9334.278723	5080.490000	1794.493164	97.036865
9334.278723	5080.490000	1793.491211	66.726654
9334.278723	5080.490000	1792.488281	-25.552881
9334.278723	5080.490000	1791.485352	8.495687
9334.278723	5080.490000	1790.482422	13.931695
9334.278723	5080.490000	1789.478516	76.527031
9334.278723	5080.490000	1788.475586	103.365875
9334.278723	5080.490000	1787.471680	146.853561
9334.278723	5080.490000	1786.467773	11.756306
9334.278723	5080.490000	1785.463867	31.423986
9334.278723	5080.490000	1784.459961	-34.600658
9334.278723	5080.490000	1783.455078	44.536251
9334.278723	5080.490000	1782.450195	42.748432
9334.278723	5080.490000	1781.445313	59.981220
9334.278723	5080.490000	1780.440430	84.333267
9334.278723	5080.490000	1779.435547	-31.613131
9334.278723	5080.490000	1778.429688	-102.358856
9334.278723	5080.490000	1777.424805	31.314230
9334.278723	5080.490000	1776.418945	122.153595
9334.278723	5080.490000	1775.413086	51.393578
9334.278723	5080.490000	1774.406250	-92.986275
9334.278723	5080.490000	1773.400391	-23.574629
9334.278723	5080.490000	1772.393555	19.681583
9334.278723	5080.490000	1771.386719	-20.177849
9334.278723	5080.490000	1770.379883	-7.811825
9334.278723	5080.490000	1769.373047	149.301651
9334.278723	5080.490000	1768.365234	83.314468
9334.278723	5080.490000	1767.358398	0.739857
9334.278723	5080.490000	1766.350586	17.801449
9334.278723	5080.490000	1765.342773	-3.092744
9334.278723	5080.490000	1764.334961	-26.358213
9334.278723	5080.490000	1763.326172	142.380035
9334.278723	5080.490000	1762.318359	-4.159131
9334.278723	5080.490000	1761.309570	8.106024
9334.278723	5080.490000	1760.300781	-62.558788
9334.278723	5080.490000	1759.291016	25.491169
9334.278723	5080.490000	1758.282227	42.456039
9334.278723	5080.490000	1757.272461	-51.877670
9334.278723	5080.490000	1756.262695	26.627125
9334.278723	5080.490000	1755.252930	83.792732
9334.278723	5080.490000	1754.243164	39.175114
9334.278723	5080.490000	1753.233398	44.250874
9334.278723	5080.490000	1752.222656	39.853680
9334.278723	5080.490000	1751.211914	66.195610
9334.278723	5080.490000	1750.201172	75.967873
9334.278723	5080.490000	1749.190430	116.462265
9334.278723	5080.490000	1748.179688	-117.251076
9334.278723	5080.490000	1747.167969	-24.760899
9334.278723	5080.490000	1746.156250	51.146877
9334.278723	5080.490000	1745.144531	79.772354
9334.278723	5080.490000	1744.132813	54.056747
9334.278723	5080.490000	1743.121094	-80.281380
9334.278723	5080.490000	1742.108398	-18.617397
9334.278723	5080.490000	1741.095703	-32.520164
9334.278723	5080.490000	1740.083008	-46.424927
9334.278723	5080.490000	1739.070313	52.929615
9334.278723	5080.490000	1738.057617	-24.697453
9334.278723	5080.490000	1737.043945	-78.716438
9334.278723	5080.490000	1736.030273	77.163208
9334.278723	5080.490000	1735.016602	37.278717
9334.278723	5080.490000	1734.002930	23.333275
9334.278723	5080.490000	1732.989258	-68.391563
9334.278723	5080.490000	1731.974609	-46.979465
9334.278723	5080.490000	1730.959961	-2.021930
9334.278723	5080.490000	1729.945313	-67.799652
9334.278723	5080.490000	1728.930664	-6.382865
9334.278723	5080.490000	1727.916016	66.777565
9334.278723	5080.490000	1726.900391	71.629921
9334.278723	5080.490000	1725.885742	-3.552232
9334.278723	5080.490000	1724.870117	-29.293543
9334.278723	5080.490000	1723.853516	-45.621544
9334.278723	5080.490000	1722.837891	22.738829
9334.278723	5080.490000	1721.822266	4.044446
9334.278723	5080.490000	1720.805664	72.355621
9334.278723	5080.490000	1719.789063	60.698856
9334.278723	5080.490000	1718.772461	37.287849
9334.278723	5080.490000	1717.754883	-30.774622
9334.278723	5080.490000	1716.738281	-37.722698
9334.278723	5080.490000	1715.720703	-63.469303
9334.278723	5080.490000	1714.703125	-39.886593
9334.278723	5080.490000	1713.685547	11.861694
9334.278723	5080.490000	1712.667969	-25.635492
9334.278723	5080.490000	1711.649414	-9.133546
9334.278723	5080.490000	1710.630859	-39.583218
9334.278723	5080.490000	1709.612305	2.716752
9334.278723	5080.490000	1708.593750	-53.540928
9334.278723	5080.490000	1707.575195	2.809350
9334.278723	5080.490000	1706.555664	12.227515
9334.278723	5080.490000	1705.536133	143.564590
9334.278723	5080.490000	1704.516602	-1.781370
9334.278723	5080.490000	1703.497070	54.495125
9334.278723	5080.490000	1702.477539	-29.858765
9334.278723	5080.490000	1701.457031	-1.724434
9334.278723	5080.490000	1700.437500	28.738813
9334.278723	5080.490000	1699.416992	106.025902
9334.278723	5080.490000	1698.395508	103.662544
9334.278723	5080.490000	1697.375000	98.956505
9334.278723	5080.490000	1696.354492	73.181892
9334.278723	5080.490000	1695.333008	12.307637
9334.278723	5080.490000	1694.311523	33.346195
9334.278723	5080.490000	1693.290039	117.535690
9334.278723	5080.490000	1692.267578	185.315262
9334.278723	5080.490000	1691.246094	103.405312
9334.278723	5080.490000	1690.223633	23.859789
9334.278723	5080.490000	1689.201172	63.556889
9334.278723	5080.490000	1688.178711	297.215942
9334.278723	5080.490000	1687.155273	131.210892
9334.278723	5080.490000	1686.132813	117.122025
9334.278723	5080.490000	1685.109375	156.756699
9334.278723	5080.490000	1684.085938	222.061478
9334.278723	5080.490000	1683.062500	147.246414
9334.278723	5080.490000	1682.039063	214.856766
9334.278723	5080.490000	1681.014648	140.064835
9334.278723	5080.490000	1679.990234	118.970001
9334.278723	5080.490000	1678.965820	53.552845
9334.278723	5080.490000	1677.941406	118.784897
9334.278723	5080.490000	1676.916992	123.353271
9334.278723	5080.490000	1675.891602	15.993473
9334.278723	5080.490000	1674.866211	53.211891
9334.278723	5080.490000	1673.840820	-19.134674
9334.278723	5080.490000	1672.815430	71.670914
9334.278723	5080.490000	1671.790039	45.943462
9334.278723	5080.490000	1670.763672	-3.071773
9334.278723	5080.490000	1669.737305	50.407253
9334.278723	5080.490000	1668.710938	115.507103
9334.278723	5080.490000	1667.684570	145.658554
9334.278723	5080.490000	1666.658203	112.949837
9334.278723	5080.490000	1665.630859	24.397707
9334.278723	5080.490000	1664.603516	14.989038
9334.278723	5080.490000	1663.576172	-33.964298
9334.278723	5080.490000	1662.548828	119.451622
9334.278723	5080.490000	1661.520508	-59.730091
9334.278723	5080.490000	1660.493164	-64.468155
9334.278723	5080.490000	1659.464844	-20.391541
9334.278723	5080.490000	1658.436523	7.399243
9334.278723	5080.490000	1657.408203	-76.355469
9334.278723	5080.490000	1656.378906	2.543206
9334.278723	5080.490000	1655.350586	48.894848
9334.278723	5080.490000	1654.321289	58.070255
9334.278723	5080.490000	1653.291992	44.023842
9334.278723	5080.490000	1652.261719	18.374657
9334.278723	5080.490000	1651.232422	71.649323
9334.278723	5080.490000	1650.202148	117.940826
9334.278723	5080.490000	1649.171875	69.093208
9334.278723	5080.490000	1648.141602	8.667377
9334.278723	5080.490000	1647.111328	31.754503
9334.278723	5080.490000	1646.080078	43.238785
9334.278723	5080.490000	1645.049805	52.402935
9334.278723	5080.490000	1644.018555	105.601173
9334.278723	5080.490000	1642.987305	33.643379
9334.278723	5080.490000	1641.955078	93.776299
9334.278723	5080.490000	1640.923828	7.952799
9334.278723	5080.490000	1639.891602	77.334251
9334.278723	5080.490000	1638.859375	292.570099
9334.278723	5080.490000	1637.827148	192.870941
9334.278723	5080.490000	1636.794922	183.483429
9334.278723	5080.490000	1635.761719	162.529099
9334.278723	5080.490000	1634.729492	264.215424
9334.278723	5080.490000	1633.696289	365.863007
9334.278723	5080.490000	1632.662109	273.191895
9334.278723	5080.490000	1631.628906	518.172058
9334.278723	5080.490000	1630.594727	457.879883
9334.278723	5080.490000	1629.561523	298.220367
9334.278723	5080.490000	1628.527344	365.107849
9334.278723	5080.490000	1627.493164	406.555542
9334.278723	5080.490000	1626.458008	468.779999
9334.278723	5080.490000	1625.423828	410.879944
9334.278723	5080.490000	1624.388672	523.889404
9334.278723	5080.490000	1623.353516	560.667297
9334.278723	5080.490000	1622.318359	583.584534
9334.278723	5080.490000	1621.282227	502.638031
9334.278723	5080.490000	1620.247070	421.728394
9334.278723	5080.490000	1619.210938	486.194702
9334.278723	5080.490000	1618.174805	552.946594
9334.278723	5080.490000	1617.137695	384.450073
9334.278723	5080.490000	1616.101563	451.203583
9334.278723	5080.490000	1615.064453	370.399384
9334.278723	5080.490000	1614.027344	474.013275
9334.278723	5080.490000	1612.990234	485.417908
9334.278723	5080.490000	1611.953125	531.380737
9334.278723	5080.490000	1610.916016	356.201172
9334.278723	5080.490000	1609.877930	388.361450
9334.278723	5080.490000	1608.839844	374.463287
9334.278723	5080.490000	1607.801758	330.648438
9334.278723	5080.490000	1606.763672	342.094940
9334.278723	5080.490000	1605.724609	286.806549
9334.278723	5080.490000	1604.685547	279.860321
9334.278723	5080.490000	1603.646484	254.519775
9334.278723	5080.490000	1602.607422	252.193237
9334.278723	5080.490000	1601.568359	408.531433
9334.278723	5080.490000	1600.528320	353.309845
9334.278723	5080.490000	1599.489258	463.608948
9334.278723	5080.490000	1598.449219	433.688568
9334.278723	5080.490000	1597.408203	346.344482
9334.278723	5080.490000	1596.368164	325.659576
9334.278723	5080.490000	1595.327148	171.778976
9334.278723	5080.490000	1594.287109	291.220093
9334.278723	5080.490000	1593.246094	362.407837
9334.278723	5080.490000	1592.204102	385.370728
9334.278723	5080.490000	1591.163086	419.806976
9334.278723	5080.490000	1590.121094	337.218018
9334.278723	5080.490000	1589.079102	348.722778
9334.278723	5080.490000	1588.037109	357.936127
9334.278723	5080.490000	1586.995117	419.895050
9334.278723	5080.490000	1585.953125	406.178711
9334.278723	5080.490000	1584.910156	449.779236
9334.278723	5080.490000	1583.867188	335.238190
9334.278723	5080.490000	1582.824219	447.590088
9334.278723	5080.490000	1581.781250	443.071320
9334.278723	5080.490000	1580.737305	525.596436
9334.278723	5080.490000	1579.693359	493.598785
9334.278723	5080.490000	1578.649414	347.145355
9334.278723	5080.490000	1577.605469	505.204254
9334.278723	5080.490000	1576.561523	516.737732
9334.278723	5080.490000	1575.516602	349.795074
9334.278723	5080.490000	1574.472656	384.248199
9334.278723	5080.490000	1573.427734	491.888062
9334.278723	5080.490000	1572.381836	558.329468
9334.278723	5080.490000	1571.336914	590.459412
9334.278723	5080.490000	1570.291016	439.709198
9334.278723	5080.490000	1569.246094	419.300995
9334.278723	5080.490000	1568.200195	433.184296
9334.278723	5080.490000	1567.153320	394.524231
9334.278723	5080.490000	1566.107422	419.845795
9334.278723	5080.490000	1565.060547	445.165466
9334.278723	5080.490000	1564.013672	356.322205
9334.278723	5080.490000	1562.966797	310.896393
9334.278723	5080.490000	1561.919922	333.968475
9334.278723	5080.490000	1560.872070	391.268280
9334.278723	5080.490000	1559.825195	370.987274
9334.278723	5080.490000	1558.777344	314.226898
9334.278723	5080.490000	1557.729492	236.973572
9334.278723	5080.490000	1556.680664	296.566071
9334.278723	5080.490000	1555.632813	324.231110
9334.278723	5080.490000	1554.583984	267.563446
9334.278723	5080.490000	1553.535156	354.490540
9334.278723	5080.490000	1552.486328	277.355072
9334.278723	5080.490000	1551.436523	266.317352
9334.278723	5080.490000	1550.387695	280.347412
9334.278723	5080.490000	1549.337891	230.626083
9334.278723	5080.490000	1548.288086	265.166718
9334.278723	5080.490000	1547.238281	224.593857
9334.278723	5080.490000	1546.187500	284.174683
9334.278723	5080.490000	1545.136719	189.030655
9334.278723	5080.490000	1544.086914	228.145248
9334.278723	5080.490000	1543.035156	201.299515
9334.278723	5080.490000	1541.984375	156.286041
9334.278723	5080.490000	1540.933594	161.315842
9334.278723	5080.490000	1539.881836	157.262543
9334.278723	5080.490000	1538.830078	266.846893
9334.278723	5080.490000	1537.778320	249.165207
9334.278723	5080.490000	1536.725586	142.908737
9334.278723	5080.490000	1535.673828	227.483444
9334.278723	5080.490000	1534.621094	132.650543
9334.278723	5080.490000	1533.568359	249.000122
9334.278723	5080.490000	1532.515625	260.904785
9334.278723	5080.490000	1531.461914	182.041763
9334.278723	5080.490000	1530.409180	277.928680
9334.278723	5080.490000	1529.355469	244.486771
9334.278723	5080.490000	1528.301758	222.410538
9334.278723	5080.490000	1527.247070	381.759552
9334.278723	5080.490000	1526.193359	368.758179
9334.278723	5080.490000	1525.138672	253.773514
9334.278723	5080.490000	1524.083984	288.417267
9334.278723	5080.490000	1523.029297	311.730988
9334.278723	5080.490000	1521.974609	185.537003
9334.278723	5080.490000	1520.918945	290.422302
9334.278723	5080.490000	1519.863281	225.446777
9334.278723	5080.490000	1518.807617	232.957153
9334.278723	5080.490000	1517.751953	294.802155
9334.278723	5080.490000	1516.696289	121.275246
9334.278723	5080.490000	1515.639648	194.456650
9334.278723	5080.490000	1514.583008	208.805359
9334.278723	5080.490000	1513.526367	200.544083
9334.278723	5080.490000	1512.469727	142.551041
9334.278723	5080.490000	1511.412109	222.505127
9334.278723	5080.490000	1510.355469	110.308022
9334.278723	5080.490000	1509.297852	52.406788
9334.278723	5080.490000	1508.240234	132.371674
9334.278723	5080.490000	1507.181641	130.991959
9334.278723	5080.490000	1506.124023	138.661407
9334.278723	5080.490000	1505.065430	107.952446
9334.278723	5080.490000	1504.006836	25.341988
9334.278723	5080.490000	1502.948242	75.956543
9334.278723	5080.490000	1501.888672	79.171150
9334.278723	5080.490000	1500.830078	-3.342727
9334.278723	5080.490000	1499.770508	-22.644878
9334.278723	5080.490000	1498.710938	50.548935
9334.278723	5080.490000	1497.650391	53.821793
9334.278723	5080.490000	1496.590820	77.399017
9334.278723	5080.490000	1495.530273	-11.725864
9334.278723	5080.490000	1494.469727	-154.889267
9334.278723	5080.490000	1493.409180	-124.482773
9334.278723	5080.490000	1492.348633	-51.270985
9334.278723	5080.490000	1491.287109	-52.401455
9334.278723	5080.490000	1490.225586	7.283711
9334.278723	5080.490000	1489.164063	-81.635132
9334.278723	5080.490000	1488.102539	-12.934805
9334.278723	5080.490000	1487.041016	8.491163
9334.278723	5080.490000	1485.978516	41.173508
9334.278723	5080.490000	1484.916016	-2.627409
9334.278723	5080.490000	1483.853516	-55.398861
9334.278723	5080.490000	1482.791016	-105.880325
9334.278723	5080.490000	1481.727539	57.254639
9334.278723	5080.490000	1480.664063	51.764137
9334.278723	5080.490000	1479.600586	53.017826
9334.278723	5080.490000	1478.537109	85.748878
9334.278723	5080.490000	1477.473633	-67.952599
9334.278723	5080.490000	1476.409180	5.252599
9334.278723	5080.490000	1475.344727	-42.824516
9334.278723	5080.490000	1474.280273	176.231354
9334.278723	5080.490000	1473.215820	85.608704
9334.278723	5080.490000	1472.151367	26.392029
9334.278723	5080.490000	1471.085938	34.437431
9334.278723	5080.490000	1470.020508	-26.941460
9334.278723	5080.490000	1468.955078	23.885494
9334.278723	5080.490000	1467.888672	32.100124
9334.278723	5080.490000	1466.823242	36.028759
9334.278723	5080.490000	1465.756836	5.904202
9334.278723	5080.490000	1464.690430	74.521935
9334.278723	5080.490000	1463.624023	98.357559
9334.278723	5080.490000	1462.556641	3.698438
9334.278723	5080.490000	1461.490234	25.266010
9334.278723	5080.490000	1460.422852	181.194107
9334.278723	5080.490000	1459.355469	142.554245
9334.278723	5080.490000	1458.287109	77.131409
9334.278723	5080.490000	1457.219727	134.314896
9334.278723	5080.490000	1456.151367	51.193478
9334.278723	5080.490000	1455.083008	150.826401
9334.278723	5080.490000	1454.014648	181.546204
9334.278723	5080.490000	1452.945313	205.729218
9334.278723	5080.490000	1451.876953	231.234085
9334.278723	5080.490000	1450.807617	241.816711
9334.278723	5080.490000	1449.738281	165.627563
9334.278723	5080.490000	1448.668945	40.038727
9334.278723	5080.490000	1447.598633	112.896835
9334.278723	5080.490000	1446.528320	136.672882
9334.278723	5080.490000	1445.458008	236.065857
9334.278723	5080.490000	1444.387695	90.030556
9334.278723	5080.490000	1443.317383	-21.182772
9334.278723	5080.490000	1442.246094	168.351181
9334.278723	5080.490000	1441.174805	113.566498
9334.278723	5080.490000	1440.103516	72.677010
9334.278723	5080.490000	1439.032227	127.539162
9334.278723	5080.490000	1437.960938	138.292328
9334.278723	5080.490000	1436.888672	69.851410
9334.278723	5080.490000	1435.816406	187.408188
9334.278723	5080.490000	1434.744141	84.591324
9334.278723	5080.490000	1433.670898	131.097229
9334.278723	5080.490000	1432.598633	295.033020
9334.278723	5080.490000	1431.525391	207.391174
9334.278723	5080.490000	1430.452148	314.805786
9334.278723	5080.490000	1429.378906	155.604752
9334.278723	5080.490000	1428.304688	188.109528
9334.278723	5080.490000	1427.231445	74.778877
9334.278723	5080.490000	1426.157227	184.906464
9334.278723	5080.490000	1425.083008	134.186615
9334.278723	5080.490000	1424.007813	99.159378
9334.278723	5080.490000	1422.933594	151.535126
9334.278723	5080.490000	1421.858398	136.009186
9334.278723	5080.490000	1420.783203	138.675781
9334.278723	5080.490000	1419.708008	211.896912
9334.278723	5080.490000	1418.631836	155.700485
9334.278723	5080.490000	1417.555664	108.913048
9334.278723	5080.490000	1416.479492	134.313873
9334.278723	5080.490000	1415.403320	67.805756
9334.278723	5080.490000	1414.327148	179.121567
9334.278723	5080.490000	1413.250000	166.420609
9334.278723	5080.490000	1412.173828	155.850967
9334.278723	5080.490000	1411.096680	243.380005
9334.278723	5080.490000	1410.018555	77.050667
9334.278723	5080.490000	1408.941406	183.937714
9334.278723	5080.490000	1407.863281	229.081345
9334.278723	5080.490000	1406.785156	144.699539
9334.278723	5080.490000	1405.707031	82.554741
9334.278723	5080.490000	1404.628906	-46.965675
9334.278723	5080.490000	1403.549805	144.486206
9334.278723	5080.490000	1402.470703	137.851242
9334.278723	5080.490000	1401.391602	193.367401
9334.278723	5080.490000	1400.312500	186.495117
9334.278723	5080.490000	1399.233398	127.294853
9334.278723	5080.490000	1398.153320	22.571627
9334.278723	5080.490000	1397.073242	181.740829
9334.278723	5080.490000	1395.993164	146.388077
9334.278723	5080.490000	1394.913086	17.909348
9334.278723	5080.490000	1393.832031	128.364304
9334.278723	5080.490000	1392.750977	298.669495
9334.278723	5080.490000	1391.669922	168.622742
9334.278723	5080.490000	1390.588867	281.145355
9334.278723	5080.490000	1389.506836	323.313416
9334.278723	5080.490000	1388.425781	400.616699
9334.278723	5080.490000	1387.343750	361.047516
9334.278723	5080.490000	1386.261719	394.621735
9334.278723	5080.490000	1385.178711	313.181580
9334.278723	5080.490000	1384.096680	454.395447
9334.278723	5080.490000	1383.013672	323.285980
9334.278723	5080.490000	1381.930664	358.240814
9334.278723	5080.490000	1380.846680	239.694077
9334.278723	5080.490000	1379.763672	270.116211
9334.278723	5080.490000	1378.679688	225.059616
9334.278723	5080.490000	1377.595703	337.272919
9334.278723	5080.490000	1376.511719	258.207916
9334.278723	5080.490000	1375.427734	133.910965
9334.278723	5080.490000	1374.342773	184.296936
9334.278723	5080.490000	1373.257813	132.994781
9334.278723	5080.490000	1372.172852	38.309616
9334.278723	5080.490000	1371.087891	93.394928
9334.278723	5080.490000	1370.001953	102.238388
9334.278723	5080.490000	1368.916992	63.064163
9334.278723	5080.490000	1367.831055	0.362810
9334.278723	5080.490000	1366.744141	136.746109
9334.278723	5080.490000	1365.658203	107.884445
9334.278723	5080.490000	1364.571289	-20.463737
9334.278723	5080.490000	1363.484375	188.949310
9334.278723	5080.490000	1362.397461	127.403046
9334.278723	5080.490000	1361.310547	257.960876
9334.278723	5080.490000	1360.222656	170.636932
9334.278723	5080.490000	1359.135742	172.557281
9334.278723	5080.490000	1358.047852	193.184586
9334.278723	5080.490000	1356.958984	167.173096
9334.278723	5080.490000	1355.871094	155.977417
9334.278723	5080.490000	1354.782227	48.750000
9334.278723	5080.490000	1353.693359	112.231880
9334.278723	5080.490000	1352.604492	141.383667
9334.278723	5080.490000	1351.515625	141.213593
9334.278723	5080.490000	1350.425781	318.964142
9334.278723	5080.490000	1349.335938	321.203217
9334.278723	5080.490000	1348.246094	253.829437
9334.278723	5080.490000	1347.156250	226.629074
9334.278723	5080.490000	1346.066406	220.913086
9334.278723	5080.490000	1344.975586	295.348572
9334.278723	5080.490000	1343.884766	269.698944
9334.278723	5080.490000	1342.793945	248.935318
9334.278723	5080.490000	1341.702148	169.005569
9334.278723	5080.490000	1340.611328	127.606689
9334.278723	5080.490000	1339.519531	83.769081
9334.278723	5080.490000	1338.427734	171.045639
9334.278723	5080.490000	1337.334961	161.578903
9334.278723	5080.490000	1336.243164	67.692932
9334.278723	5080.490000	1335.150391	131.481461
9334.278723	5080.490000	1334.057617	148.595993
9334.278723	5080.490000	1332.964844	192.563278
9334.278723	5080.490000	1331.871094	133.381821
9334.278723	5080.490000	1330.778320	160.257233
9334.278723	5080.490000	1329.684570	120.125114
9334.278723	5080.490000	1328.590820	72.787781
9334.278723	5080.490000	1327.496094	102.320930
9334.278723	5080.490000	1326.402344	59.978180
9334.278723	5080.490000	1325.307617	85.935188
9334.278723	5080.490000	1324.212891	17.790138
9334.278723	5080.490000	1323.117188	40.463493
9334.278723	5080.490000	1322.022461	106.202446
9334.278723	5080.490000	1320.926758	99.130959
9334.278723	5080.490000	1319.831055	25.136007
9334.278723	5080.490000	1318.735352	126.457977
9334.278723	5080.490000	1317.638672	-41.359844
9334.278723	5080.490000	1316.542969	57.116673
9334.278723	5080.490000	1315.446289	34.592384
9334.278723	5080.490000	1314.349609	50.705441
9334.278723	5080.490000	1313.251953	141.460831
9334.278723	5080.490000	1312.155273	46.895412
9334.278723	5080.490000	1311.057617	29.938944
9334.278723	5080.490000	1309.959961	45.646538
9334.278723	5080.490000	1308.862305	100.668732
9334.278723	5080.490000	1307.763672	73.294983
9334.278723	5080.490000	1306.665039	76.724655
9334.278723	5080.490000	1305.566406	-1.154889
9334.278723	5080.490000	1304.467773	112.959465
9334.278723	5080.490000	1303.369141	-21.967791
9334.278723	5080.490000	1302.269531	5.138491
9334.278723	5080.490000	1301.169922	-17.769918
9334.278723	5080.490000	1300.070313	75.011467
9334.278723	5080.490000	1298.970703	38.833130
9334.278723	5080.490000	1297.870117	105.405243
9334.278723	5080.490000	1296.769531	20.208124
9334.278723	5080.490000	1295.668945	173.008255
9334.278723	5080.490000	1294.568359	113.253311
9334.278723	5080.490000	1293.466797	95.036034
9334.278723	5080.490000	1292.366211	-16.447071
9334.278723	5080.490000	1291.264648	81.729622
9334.278723	5080.490000	1290.162109	-6.588277
9334.278723	5080.490000	1289.060547	67.367226
9334.278723	5080.490000	1287.958008	24.080637
9334.278723	5080.490000	1286.855469	26.685524
9334.278723	5080.490000	1285.752930	64.457901
9334.278723	5080.490000	1284.650391	131.038300
9334.278723	5080.490000	1283.546875	72.776115
9334.278723	5080.490000	1282.444336	22.282541
9334.278723	5080.490000	1281.339844	46.636288
9334.278723	5080.490000	1280.236328	46.265022
9334.278723	5080.490000	1279.132813	28.583336
9334.278723	5080.490000	1278.028320	9.991696
9334.278723	5080.490000	1276.923828	39.228844
9334.278723	5080.490000	1275.819336	96.432373
9334.278723	5080.490000	1274.713867	29.912666
9334.278723	5080.490000	1273.608398	18.606207
9334.278723	5080.490000	1272.503906	64.026855
9334.278723	5080.490000	1271.397461	130.898483
9334.278723	5080.490000	1270.291992	102.245064
9334.278723	5080.490000	1269.185547	107.559074
9334.278723	5080.490000	1268.080078	95.104164
9334.278723	5080.490000	1266.972656	7.736569
9334.278723	5080.490000	1265.866211	7.590077
9334.278723	5080.490000	1264.759766	83.056641
9334.278723	5080.490000	1263.652344	12.478420
9334.278723	5080.490000	1262.544922	-30.307259
9334.278723	5080.490000	1261.436523	-17.057833
9334.278723	5080.490000	1260.329102	-66.671585
9334.278723	5080.490000	1259.220703	45.755428
9334.278723	5080.490000	1258.112305	-38.799603
9334.278723	5080.490000	1257.003906	-50.798447
9334.278723	5080.490000	1255.895508	5.406008
9334.278723	5080.490000	1254.786133	84.038277
9334.278723	5080.490000	1253.676758	16.232531
9334.278723	5080.490000	1252.567383	-45.584824
9334.278723	5080.490000	1251.458008	-26.325262
9334.278723	5080.490000	1250.347656	-60.399025
9334.278723	5080.490000	1249.237305	-46.758625
9334.278723	5080.490000	1248.126953	-38.965202
9334.278723	5080.490000	1247.016602	-55.351131
9334.278723	5080.490000	1245.905273	23.540794
9334.278723	5080.490000	1244.793945	31.686760
9334.278723	5080.490000	1243.682617	-74.497566
9334.278723	5080.490000	1242.571289	79.955734
9334.278723	5080.490000	1241.459961	-28.495434
9334.278723	5080.490000	1240.347656	-86.927788
9334.278723	5080.490000	1239.235352	-61.776039
9334.278723	5080.490000	1238.123047	-17.343027
9334.278723	5080.490000	1237.009766	-49.302135
9334.278723	5080.490000	1235.897461	-93.093025
9334.278723	5080.490000	1234.784180	0.041153
9334.278723	5080.490000	1233.670898	-70.100197
9334.278723	5080.490000	1232.556641	-42.589634
9334.278723	5080.490000	1231.443359	36.971809
9334.278723	5080.490000	1230.329102	-79.142906
9334.278723	5080.490000	1229.214844	-27.207125
9334.278723	5080.490000	1228.099609	-102.456482
9334.278723	5080.490000	1226.985352	-63.149746
9334.278723	5080.490000	1225.870117	-13.627709
9334.278723	5080.490000	1224.754883	31.580908
9334.278723	5080.490000	1223.639648	-8.715887
9334.278723	5080.490000	1222.523438	29.020933
9334.278723	5080.490000	1221.408203	-21.253040
9334.278723	5080.490000	1220.291992	57.765202
9334.278723	5080.490000	1219.174805	107.307495
9334.278723	5080.490000	1218.058594	101.758385
9334.278723	5080.490000	1216.941406	48.752426
9334.278723	5080.490000	1215.824219	106.880768
9334.278723	5080.490000	1214.707031	108.470222
9334.278723	5080.490000	1213.589844	87.105415
9334.278723	5080.490000	1212.471680	51.086845
9334.278723	5080.490000	1211.353516	138.413391
9334.278723	5080.490000	1210.235352	81.148186
9334.278723	5080.490000	1209.117188	38.405640
9334.278723	5080.490000	1207.998047	46.982113
9334.278723	5080.490000	1206.878906	85.419441
9334.278723	5080.490000	1205.759766	60.617683
9334.278723	5080.490000	1204.640625	38.778652
9334.278723	5080.490000	1203.520508	18.832981
9334.278723	5080.490000	1202.401367	39.561718
9334.278723	5080.490000	1201.281250	-27.425987
9334.278723	5080.490000	1200.160156	15.683257
9334.278723	5080.490000	1199.040039	47.019135
9334.278723	5080.490000	1197.918945	-85.153442
9334.278723	5080.490000	1196.797852	-23.343643
9334.278723	5080.490000	1195.676758	-61.412888
9334.278723	5080.490000	1194.555664	-37.498219
9334.278723	5080.490000	1193.433594	16.653008
9334.278723	5080.490000	1192.311523	7.595100
9334.278723	5080.490000	1191.189453	-25.737938
9334.278723	5080.490000	1190.066406	-38.201378
9334.278723	5080.490000	1188.944336	-66.271698
9334.278723	5080.490000	1187.821289	-29.798277
9334.278723	5080.490000	1186.698242	15.362330
9334.278723	5080.490000	1185.574219	60.080433
9334.278723	5080.490000	1184.451172	4.647385
9334.278723	5080.490000	1183.327148	-76.403625
9334.278723	5080.490000	1182.203125	-24.447462
9334.278723	5080.490000	1181.078125	-83.317192
9334.278723	5080.490000	1179.954102	-19.159914
9334.278723	5080.490000	1178.829102	-64.152176
9334.278723	5080.490000	1177.704102	-5.538941
9334.278723	5080.490000	1176.579102	23.284195
9334.278723	5080.490000	1175.453125	-4.018764
9334.278723	5080.490000	1174.327148	16.288420
9334.278723	5080.490000	1173.201172	-29.050434
9334.278723	5080.490000	1172.075195	-86.062248
9334.278723	5080.490000	1170.949219	-2.289096
9334.278723	5080.490000	1169.822266	24.784334
9334.278723	5080.490000	1168.695313	35.849617
9334.278723	5080.490000	1167.568359	-43.647270
9334.278723	5080.490000	1166.440430	-41.686150
9334.278723	5080.490000	1165.313477	12.605734
9334.278723	5080.490000	1164.185547	3.043472
9334.278723	5080.490000	1163.057617	-82.092720
9334.278723	5080.490000	1161.928711	-23.491653
9334.278723	5080.490000	1160.800781	74.960663
9334.278723	5080.490000	1159.671875	-26.125288
9334.278723	5080.490000	1158.541992	2.537275
9334.278723	5080.490000	1157.413086	-17.370974
9334.278723	5080.490000	1156.283203	-52.763752
9334.278723	5080.490000	1155.154297	34.180496
9334.278723	5080.490000	1154.023438	37.515274
9334.278723	5080.490000	1152.893555	54.372013
9334.278723	5080.490000	1151.763672	8.452024
9334.278723	5080.490000	1150.632813	81.996147
9334.278723	5080.490000	1149.501953	22.240944
9334.278723	5080.490000	1148.370117	48.253433
9334.278723	5080.490000	1147.239258	28.681887
9334.278723	5080.490000	1146.107422	-19.740992
9334.278723	5080.490000	1144.975586	41.672558
9334.278723	5080.490000	1143.843750	43.869743
9334.278723	5080.490000	1142.710938	49.622883
9334.278723	5080.490000	1141.578125	30.810909
9334.278723	5080.490000	1140.445313	19.775324
9334.278723	5080.490000	1139.312500	-7.733930
9334.278723	5080.490000	1138.178711	-40.684540
9334.278723	5080.490000	1137.045898	34.801098
9334.278723	5080.490000	1135.912109	27.275198
9334.278723	5080.490000	1134.777344	68.932518
9334.278723	5080.490000	1133.643555	46.367260
9334.278723	5080.490000	1132.508789	60.500008
9334.278723	5080.490000	1131.374023	126.886505
9334.278723	5080.490000	1130.239258	5.081637
9334.278723	5080.490000	1129.104492	110.048737
9334.278723	5080.490000	1127.968750	54.219006
9334.278723	5080.490000	1126.833008	5.013928
9334.278723	5080.490000	1125.697266	77.335556
9334.278723	5080.490000	1124.560547	87.910492
9334.278723	5080.490000	1123.424805	65.894287
9334.278723	5080.490000	1122.288086	14.653762
9334.278723	5080.490000	1121.151367	61.547920
9334.278723	5080.490000	1120.013672	80.714226
9334.278723	5080.490000	1118.876953	-39.978077
9334.278723	5080.490000	1117.739258	10.606073
9334.278723	5080.490000	1116.601563	-47.578575
9334.278723	5080.490000	1115.462891	-33.183636
9334.278723	5080.490000	1114.324219	41.079140
9334.278723	5080.490000	1113.186523	6.627415
9334.278723	5080.490000	1112.046875	-19.435987
9334.278723	5080.490000	1110.908203	38.413242
9334.278723	5080.490000	1109.769531	22.429241
9334.278723	5080.490000	1108.629883	28.747238
9334.278723	5080.490000	1107.490234	41.684570
9334.278723	5080.490000	1106.349609	30.420149
9334.278723	5080.490000	1105.209961	-32.155415
9334.278723	5080.490000	1104.069336	17.852848
9334.278723	5080.490000	1102.928711	-3.328523
9334.278723	5080.490000	1101.787109	9.753052
9334.278723	5080.490000	1100.646484	-6.899469
9334.278723	5080.490000	1099.504883	-56.280075
9334.278723	5080.490000	1098.363281	59.709385
9334.278723	5080.490000	1097.221680	30.408970
9334.278723	5080.490000	1096.079102	37.530025
9334.278723	5080.490000	1094.936523	89.477119
9334.278723	5080.490000	1093.793945	12.438705
9334.278723	5080.490000	1092.651367	29.352991
9334.278723	5080.490000	1091.507813	93.100250
9334.278723	5080.490000	1090.364258	13.468852
9334.278723	5080.490000	1089.220703	49.199512
9334.278723	5080.490000	1088.077148	-59.984406
9334.278723	5080.490000	1086.933594	76.104828
9334.278723	5080.490000	1085.789063	75.822548
9334.278723	5080.490000	1084.644531	48.126854
9334.278723	5080.490000	1083.499023	-23.802713
9334.278723	5080.490000	1082.354492	-47.919052
9334.278723	5080.490000	1081.208984	51.424793
9334.278723	5080.490000	1080.063477	-25.992996
9334.278723	5080.490000	1078.917969	-63.503975
9334.278723	5080.490000	1077.771484	79.777672
9334.278723	5080.490000	1076.625977	15.597364
9334.278723	5080.490000	1075.479492	16.507992
9334.278723	5080.490000	1074.332031	87.330330
9334.278723	5080.490000	1073.185547	76.951904
9334.278723	5080.490000	1072.038086	-4.349061
9334.278723	5080.490000	1070.890625	6.466159
9334.278723	5080.490000	1069.743164	51.552834
9334.278723	5080.490000	1068.594727	37.239372
9334.278723	5080.490000	1067.447266	47.608189
9334.278723	5080.490000	1066.298828	64.644714
9334.278723	5080.490000	1065.149414	-12.198682
9334.278723	5080.490000	1064.000977	-3.904236
9334.278723	5080.490000	1062.851563	-56.386219
9334.278723	5080.490000	1061.702148	13.470583
9334.278723	5080.490000	1060.552734	69.642235
9334.278723	5080.490000	1059.402344	73.097000
9334.278723	5080.490000	1058.252930	128.231842
9334.278723	5080.490000	1057.102539	-6.104606
9334.278723	5080.490000	1055.951172	10.108620
9334.278723	5080.490000	1054.800781	11.536119
9334.278723	5080.490000	1053.649414	27.553083
9334.278723	5080.490000	1052.498047	28.838493
9334.278723	5080.490000	1051.346680	-72.238754
9334.278723	5080.490000	1050.194336	7.734628
9334.278723	5080.490000	1049.042969	3.113721
9334.278723	5080.490000	1047.890625	40.280251
9334.278723	5080.490000	1046.738281	44.695946
9334.278723	5080.490000	1045.584961	94.514793
9334.278723	5080.490000	1044.431641	39.905800
9334.278723	5080.490000	1043.278320	63.520592
9334.278723	5080.490000	1042.125000	102.474167
9334.278723	5080.490000	1040.971680	46.410332
9334.278723	5080.490000	1039.817383	7.416385
9334.278723	5080.490000	1038.663086	-32.104733
9334.278723	5080.490000	1037.508789	50.944401
9334.278723	5080.490000	1036.353516	-25.645807
9334.278723	5080.490000	1035.198242	186.564713
9334.278723	5080.490000	1034.042969	100.337692
9334.278723	5080.490000	1032.887695	101.316940
9334.278723	5080.490000	1031.732422	140.487335
9334.278723	5080.490000	1030.576172	6.329431
9334.278723	5080.490000	1029.419922	43.936176
9334.278723	5080.490000	1028.263672	-64.322792
9334.278723	5080.490000	1027.106445	34.218872
9334.278723	5080.490000	1025.949219	55.302307
9334.278723	5080.490000	1024.792969	36.299545
9334.278723	5080.490000	1023.634766	104.436844
9334.278723	5080.490000	1022.477539	-60.006897
9334.278723	5080.490000	1021.319336	15.229423
9334.278723	5080.490000	1020.161133	106.955582
9334.278723	5080.490000	1019.002930	11.729699
9334.278723	5080.490000	1017.843750	7.203185
9334.278723	5080.490000	1016.684570	-33.068558
9334.278723	5080.490000	1015.525391	1.318544
9334.278723	5080.490000	1014.366211	35.353764
9334.278723	5080.490000	1013.207031	-19.668198
9334.278723	5080.490000	1012.046875	60.019756
9334.278723	5080.490000	1010.886719	18.178629
9334.278723	5080.490000	1009.726563	63.636566
9334.278723	5080.490000	1008.565430	41.488781
9334.278723	5080.490000	1007.404297	-81.588676
9334.278723	5080.490000	1006.243164	50.326832
9334.278723	5080.490000	1005.082031	51.961887
9334.278723	5080.490000	1003.920898	-42.633198
9334.278723	5080.490000	1002.758789	-9.661335
9334.278723	5080.490000	1001.596680	-26.733545
9334.278723	5080.490000	1000.433594	-21.836197
9334.278723	5080.490000	999.271484	15.298922
9334.278723	5080.490000	998.108398	-39.571957
9334.278723	5080.490000	996.945313	25.887688
9334.278723	5080.490000	995.782227	-12.251081
9334.278723	5080.490000	994.618164	25.136179
9334.278723	5080.490000	993.454102	55.842297
9334.278723	5080.490000	992.290039	51.398552
9334.278723	5080.490000	991.125977	25.603548
9334.278723	5080.490000	989.960938	101.192543
9334.278723	5080.490000	988.796875	76.625023
9334.278723	5080.490000	987.630859	177.065445
9334.278723	5080.490000	986.465820	136.425064
9334.278723	5080.490000	985.300781	67.815636
9334.278723	5080.490000	984.134766	53.757763
9334.278723	5080.490000	982.968750	74.598541
9334.278723	5080.490000	981.801758	26.157671
9334.278723	5080.490000	980.635742	-57.624348
9334.278723	5080.490000	979.468750	-4.079579
9334.278723	5080.490000	978.301758	0.683019
9334.278723	5080.490000	977.133789	-46.592316
9334.278723	5080.490000	975.966797	-71.729431
9334.278723	5080.490000	974.798828	82.065292
9334.278723	5080.490000	973.630859	8.275199
9334.278723	5080.490000	972.461914	32.509502
9334.278723	5080.490000	971.293945	-10.642520
9334.278723	5080.490000	970.125000	-35.689053
9334.278723	5080.490000	968.956055	-12.613026
9334.278723	5080.490000	967.786133	2.100262
9334.278723	5080.490000	966.617188	20.569424
9334.278723	5080.490000	965.447266	33.725693
9334.278723	5080.490000	964.276367	82.939201
9334.278723	5080.490000	963.106445	-86.755890
9334.278723	5080.490000	961.935547	-37.313625
9334.278723	5080.490000	960.764648	2.935197
9334.278723	5080.490000	959.593750	-21.578981
9334.278723	5080.490000	958.422852	-58.639824
9334.278723	5080.490000	957.250977	18.133535
9334.278723	5080.490000	956.079102	-21.175131
9334.278723	5080.490000	954.907227	-43.641235
9334.278723	5080.490000	953.734375	105.816513
9334.278723	5080.490000	952.562500	-12.158007
9334.278723	5080.490000	951.389648	97.603622
9334.278723	5080.490000	950.215820	67.614357
9334.278723	5080.490000	949.042969	-45.840309
9334.278723	5080.490000	947.869141	-38.380302
9334.278723	5080.490000	946.695313	-130.816360
9334.278723	5080.490000	945.521484	44.068352
9334.278723	5080.490000	944.346680	-6.714013
9334.278723	5080.490000	943.172852	107.796417
9334.278723	5080.490000	941.998047	-19.850176
9334.278723	5080.490000	940.822266	-42.496319
9334.278723	5080.490000	939.647461	97.509789
9334.278723	5080.490000	938.471680	53.772480
9334.278723	5080.490000	937.295898	-17.787474
9334.278723	5080.490000	936.119141	80.357674
9334.278723	5080.490000	934.943359	50.551651
9334.278723	5080.490000	933.766602	37.010578
9334.278723	5080.490000	932.589844	86.285606
9334.278723	5080.490000	931.413086	58.815712
9334.278723	5080.490000	930.235352	112.696503
9334.278723	5080.490000	929.057617	20.166399
9334.278723	5080.490000	927.879883	25.213448
9334.278723	5080.490000	926.702148	109.262718
9334.278723	5080.490000	925.523438	5.121960
9334.278723	5080.490000	924.344727	14.821586
9334.278723	5080.490000	923.166016	17.544722
9334.278723	5080.490000	921.987305	48.129524
9334.278723	5080.490000	920.807617	-37.379475
9334.278723	5080.490000	919.627930	-36.394215
9334.278723	5080.490000	919.497070	104.721458
9334.278723	5080.490000	918.331055	77.230095
9334.278723	5080.490000	917.165039	-56.984386
9334.278723	5080.490000	915.999023	31.545319
9334.278723	5080.490000	914.833008	-0.567740
9334.278723	5080.490000	913.666016	97.180420
9334.278723	5080.490000	912.499023	46.511658
9334.278723	5080.490000	911.332031	2.812230
9334.278723	5080.490000	910.165039	35.598991
9334.278723	5080.490000	908.997070	123.974045
9334.278723	5080.490000	907.830078	15.410703
9334.278723	5080.490000	906.661133	64.373695
9334.278723	5080.490000	905.493164	57.739380
9334.278723	5080.490000	904.325195	-6.772470
9334.278723	5080.490000	903.156250	-38.858593
9334.278723	5080.490000	901.987305	-26.968967
9334.278723	5080.490000	900.818359	28.869320
9334.278723	5080.490000	899.648438	54.610142
9334.278723	5080.490000	898.478516	71.085037
9334.278723	5080.490000	897.308594	-30.372984
9334.278723	5080.490000	896.138672	-13.897214
9334.278723	5080.490000	894.968750	7.189600
9334.278723	5080.490000	893.797852	21.331545
9334.278723	5080.490000	892.626953	-33.846127
9334.278723	5080.490000	891.456055	12.626563
9334.278723	5080.490000	890.284180	-30.988934
9334.278723	5080.490000	889.113281	63.940975
9334.278723	5080.490000	887.941406	103.426254
9334.278723	5080.490000	886.768555	80.576752
9334.278723	5080.490000	885.596680	71.575890
9334.278723	5080.490000	884.423828	-2.021472
9334.278723	5080.490000	883.250977	113.542023
9334.278723	5080.490000	882.078125	97.608177
9334.278723	5080.490000	880.905273	21.730700
9334.278723	5080.490000	879.731445	77.271584
9334.278723	5080.490000	878.557617	144.308289
9334.278723	5080.490000	877.383789	-69.796417
9334.278723	5080.490000	876.209961	59.433064
9334.278723	5080.490000	875.035156	96.476387
9334.278723	5080.490000	873.860352	-13.876840
9334.278723	5080.490000	872.685547	2.436132
9334.278723	5080.490000	871.510742	-24.997061
9334.278723	5080.490000	870.334961	14.315671
9334.278723	5080.490000	869.159180	25.997210
9334.278723	5080.490000	867.983398	3.162780
9334.278723	5080.490000	866.807617	1.032346
9334.278723	5080.490000	865.630859	-21.796799
9334.278723	5080.490000	864.454102	-23.930517
9334.278723	5080.490000	863.277344	40.588699
9334.278723	5080.490000	862.100586	-32.806301
9334.278723	5080.490000	860.922852	-9.677418
9334.278723	5080.490000	859.745117	20.328480
9334.278723	5080.490000	858.567383	-18.582323
9334.278723	5080.490000	857.389648	-55.185719
9334.278723	5080.490000	856.210938	11.527418
9334.278723	5080.490000	855.032227	-48.028736
9334.278723	5080.490000	853.853516	-43.312687
9334.278723	5080.490000	852.674805	-50.075184
9334.278723	5080.490000	851.495117	78.495117
9334.278723	5080.490000	850.315430	-36.086021
9334.278723	5080.490000	849.135742	-3.881852
9334.278723	5080.490000	847.956055	-47.345028
9334.278723	5080.490000	846.775391	35.260582
9334.278723	5080.490000	845.595703	12.419929
9334.278723	5080.490000	844.415039	-14.998229
9334.278723	5080.490000	843.233398	28.595921
9334.278723	5080.490000	842.052734	-37.755520
9334.278723	5080.490000	840.871094	-30.818096
9334.278723	5080.490000	839.689453	-23.889004
9334.278723	5080.490000	838.506836	37.959263
9334.278723	5080.490000	837.325195	175.285431
9334.278723	5080.490000	836.142578	-67.205605
9334.278723	5080.490000	834.959961	88.373039
9334.278723	5080.490000	833.777344	-76.262100
9334.278723	5080.490000	832.593750	31.231974
9334.278723	5080.490000	831.410156	8.385734
9334.278723	5080.490000	830.226563	86.097588
9334.278723	5080.490000	829.042969	-7.592455
9334.278723	5080.490000	827.858398	-78.405373
9334.278723	5080.490000	826.673828	-32.714989
9334.278723	5080.490000	825.489258	19.801188
9334.278723	5080.490000	824.304688	-0.765327
9334.278723	5080.490000	823.120117	17.473618
9334.278723	5080.490000	821.934570	49.391495
9334.278723	5080.490000	820.749023	-14.535143
9334.278723	5080.490000	819.562500	-51.067604
9334.278723	5080.490000	818.376953	-62.504673
9334.278723	5080.490000	817.190430	-108.145050
9334.278723	5080.490000	816.003906	-39.788548
9334.278723	5080.490000	814.817383	-28.446423
9334.278723	5080.490000	813.629883	-19.393436
9334.278723	5080.490000	812.442383	-21.741879
9334.278723	5080.490000	811.254883	-5.872887
9334.278723	5080.490000	810.067383	-53.782108
9334.278723	5080.490000	808.878906	-31.094910
9334.278723	5080.490000	807.690430	30.275169
9334.278723	5080.490000	806.501953	16.508509
9334.278723	5080.490000	805.313477	96.034019
9334.278723	5080.490000	804.124023	79.971680
9334.278723	5080.490000	802.934570	16.145025
9334.278723	5080.490000	801.745117	59.217831
9334.278723	5080.490000	800.555664	86.350945
9334.278723	5080.490000	799.365234	95.281982
9334.278723	5080.490000	798.175781	-68.516914
9334.278723	5080.490000	796.985352	-25.488928
9334.278723	5080.490000	795.793945	-43.820400
9334.278723	5080.490000	794.603516	-9.913922
9334.278723	5080.490000	793.412109	58.033142
9334.278723	5080.490000	792.220703	-32.973732
9334.278723	5080.490000	791.028320	-30.887646
9334.278723	5080.490000	789.836914	9.768495
9334.278723	5080.490000	788.644531	23.174719
9334.278723	5080.490000	787.452148	0.274019
9334.278723	5080.490000	786.258789	34.073727
9334.278723	5080.490000	785.066406	95.061226
9334.278723	5080.490000	783.873047	56.269531
9334.278723	5080.490000	782.679688	162.542770
9334.278723	5080.490000	781.485352	19.500818
9334.278723	5080.490000	780.291992	71.349106
9334.278723	5080.490000	779.097656	23.504389
9334.278723	5080.490000	777.903320	193.075729
9334.278723	5080.490000	776.708008	43.323803
9334.278723	5080.490000	775.512695	20.392359
9334.278723	5080.490000	774.318359	119.675880
9334.278723	5080.490000	773.122070	51.467995
9334.278723	5080.490000	771.926758	57.935173
9334.278723	5080.490000	770.730469	-3.462214
9334.278723	5080.490000	769.534180	104.757973
9334.278723	5080.490000	768.337891	88.577362
9334.278723	5080.490000	767.141602	106.301575
9334.278723	5080.490000	765.944336	35.873127
9334.278723	5080.490000	764.747070	-5.161110
9334.278723	5080.490000	763.549805	8.028637
9334.278723	5080.490000	762.351563	102.511337
9334.278723	5080.490000	761.154297	25.334932
9334.278723	5080.490000	759.956055	99.439644
9334.278723	5080.490000	758.757813	74.192184
9334.278723	5080.490000	757.558594	109.876106
9334.278723	5080.490000	756.359375	152.304916
9334.278723	5080.490000	755.160156	127.036415
9334.278723	5080.490000	753.960938	92.749016
9334.278723	5080.490000	752.761719	65.231010
9334.278723	5080.490000	751.561523	154.938492
9334.278723	5080.490000	750.361328	59.787079
9334.278723	5080.490000	749.160156	30.013124
9334.278723	5080.490000	747.959961	40.794117
9334.278723	5080.490000	746.758789	121.386047
9334.278723	5080.490000	745.557617	161.400345
9334.278723	5080.490000	744.356445	73.055458
9334.278723	5080.490000	743.154297	54.518875
9334.278723	5080.490000	741.952148	98.995064
9334.278723	5080.490000	740.750000	93.942230
9334.278723	5080.490000	739.547852	66.386192
9334.278723	5080.490000	738.344727	81.565208
9334.278723	5080.490000	737.142578	65.247238
9334.278723	5080.490000	735.939453	46.678131
9334.278723	5080.490000	734.735352	158.474014
9334.278723	5080.490000	733.532227	133.132156
9334.278723	5080.490000	732.328125	35.894428
9334.278723	5080.490000	731.124023	68.972710
9334.278723	5080.490000	729.918945	140.206024
9334.278723	5080.490000	728.714844	83.414207
9334.278723	5080.490000	727.509766	96.227760
9334.278723	5080.490000	726.303711	41.692989
9334.278723	5080.490000	725.098633	-8.341168
9334.278723	5080.490000	723.892578	47.078983
9334.278723	5080.490000	722.686523	131.624603
9334.278723	5080.490000	721.480469	29.993624
9334.278723	5080.490000	720.274414	33.772202
9334.278723	5080.490000	719.067383	64.437965
9334.278723	5080.490000	717.860352	108.527100
9334.278723	5080.490000	716.653320	-19.943844
9334.278723	5080.490000	715.445313	-20.680597
9334.278723	5080.490000	714.238281	-19.187840
9334.278723	5080.490000	713.030273	-22.185110
9334.278723	5080.490000	711.821289	46.449112
9334.278723	5080.490000	710.613281	-68.498062
9334.278723	5080.490000	709.404297	-26.758654
9334.278723	5080.490000	708.195313	8.240191
9334.278723	5080.490000	706.986328	16.370510
9334.278723	5080.490000	705.776367	13.303953
9334.278723	5080.490000	704.566406	-12.131703
9334.278723	5080.490000	703.356445	31.732452
9334.278723	5080.490000	702.146484	10.751369
9334.278723	5080.490000	700.935547	12.113262
9334.278723	5080.490000	699.724609	-28.984421
9334.278723	5080.490000	698.513672	-49.973351
9334.278723	5080.490000	697.302734	-24.068398
9334.278723	5080.490000	696.090820	10.744794
9334.278723	5080.490000	694.878906	16.513073
9334.278723	5080.490000	693.666992	-31.294102
9334.278723	5080.490000	692.455078	-90.249260
9334.278723	5080.490000	691.242188	24.811815
9334.278723	5080.490000	690.029297	-60.917244
9334.278723	5080.490000	688.816406	-6.140082
9334.278723	5080.490000	687.602539	151.154434
9334.278723	5080.490000	686.389648	78.791885
9334.278723	5080.490000	685.175781	37.646095
9334.278723	5080.490000	683.960938	23.241686
9334.278723	5080.490000	682.747070	48.927727
9334.278723	5080.490000	681.532227	25.595335
9334.278723	5080.490000	680.317383	-35.590599
9334.278723	5080.490000	679.102539	136.979782
9334.278723	5080.490000	677.886719	0.100250
9334.278723	5080.490000	676.670898	63.532906
9334.278723	5080.490000	675.455078	62.410305
9334.278723	5080.490000	674.239258	74.621849
9334.278723	5080.490000	673.022461	22.326773
9334.278723	5080.490000	671.805664	45.634121
9334.278723	5080.490000	670.588867	71.143021
9334.278723	5080.490000	669.372070	94.406700
9334.278723	5080.490000	668.154297	88.763794
9334.278723	5080.490000	666.936523	-43.510338
9334.278723	5080.490000	665.718750	10.820394
9334.278723	5080.490000	664.500977	7.383683
9334.278723	5080.490000	663.282227	35.016434
9334.278723	5080.490000	662.063477	4.917138
9334.278723	5080.490000	660.844727	70.239372
9334.278723	5080.490000	659.625000	22.372274
9334.278723	5080.490000	658.405273	54.367146
9334.278723	5080.490000	657.185547	139.560913
9334.278723	5080.490000	655.965820	-3.666265
9334.278723	5080.490000	654.745117	37.144524
9334.278723	5080.490000	653.525391	66.845749
9334.278723	5080.490000	652.303711	-23.132414
9334.278723	5080.490000	651.083008	30.913700
9334.278723	5080.490000	649.861328	80.494652
9334.278723	5080.490000	648.640625	37.038670
9334.278723	5080.490000	647.417969	26.797119
9334.278723	5080.490000	646.196289	20.975729
9334.278723	5080.490000	644.973633	15.144566
9334.278723	5080.490000	643.750977	-1.758454
9334.278723	5080.490000	642.528320	1.242780
9334.278723	5080.490000	641.305664	21.923941
9334.278723	5080.490000	640.082031	35.950653
9334.278723	5080.490000	638.858398	-31.834589
9334.278723	5080.490000	637.634766	81.633446
9334.278723	5080.490000	636.410156	44.779888
9334.278723	5080.490000	635.185547	-11.952885
9334.278723	5080.490000	633.960938	6.426142
9334.278723	5080.490000	632.736328	46.868927
9334.278723	5080.490000	631.510742	-18.694063
9334.278723	5080.490000	630.285156	-6.982269
9334.278723	5080.490000	629.059570	-76.942406
9334.278723	5080.490000	627.833984	18.599646
9334.278723	5080.490000	626.607422	47.910030
9334.278723	5080.490000	625.380859	2.209286
9334.278723	5080.490000	624.154297	68.974525
9334.278723	5080.490000	622.927734	62.949234
9334.278723	5080.490000	621.700195	43.690277
9334.278723	5080.490000	620.472656	42.057896
9334.278723	5080.490000	619.245117	95.494781
9334.278723	5080.490000	618.016602	-62.562561
9334.278723	5080.490000	616.788086	-22.361782
9334.278723	5080.490000	615.559570	-6.407935
9334.278723	5080.490000	614.331055	66.762688
9334.278723	5080.490000	613.101563	40.852905
9334.278723	5080.490000	611.872070	-97.274773
9334.278723	5080.490000	610.642578	28.634375
9334.278723	5080.490000	609.413086	-6.079242
9334.278723	5080.490000	608.182617	-53.982586
9334.278723	5080.490000	606.952148	32.232674
9334.278723	5080.490000	605.721680	1.905742
9334.278723	5080.490000	604.491211	8.940516
9334.278723	5080.490000	603.259766	-1.615247
9334.278723	5080.490000	602.028320	-9.979544
9334.278723	5080.490000	600.796875	34.358219
9334.278723	5080.490000	599.564453	14.991190
9334.278723	5080.490000	598.332031	109.775131
9334.278723	5080.490000	597.099609	-91.783760
9334.278723	5080.490000	595.867188	13.935477
9334.278723	5080.490000	594.633789	58.172203
9334.278723	5080.490000	593.400391	89.221176
9334.278723	5080.490000	592.166992	52.268044
9334.278723	5080.490000	590.933594	10.936940
9334.278723	5080.490000	589.699219	123.050957
9334.278723	5080.490000	588.464844	11.576256
9334.278723	5080.490000	587.230469	68.849380
9334.278723	5080.490000	585.995117	101.992722
9334.278723	5080.490000	584.760742	-35.712795
9334.278723	5080.490000	583.525391	-6.957311
9334.278723	5080.490000	582.289063	76.505844
9334.278723	5080.490000	581.053711	-17.357780
9334.278723	5080.490000	579.817383	-17.096771
9334.278723	5080.490000	578.581055	46.601784
9334.278723	5080.490000	577.343750	-3.475209
9334.278723	5080.490000	576.107422	-38.229595
9334.278723	5080.490000	574.870117	62.576870
9334.278723	5080.490000	573.631836	54.037060
9334.278723	5080.490000	572.394531	-26.624374
9334.278723	5080.490000	571.156250	-13.306421
9334.278723	5080.490000	569.917969	17.474764
9334.278723	5080.490000	568.679688	161.805481
9334.278723	5080.490000	567.440430	30.937681
9334.278723	5080.490000	566.202148	-40.936157
9334.278723	5080.490000	564.961914	7.256485
9334.278723	5080.490000	563.722656	-99.510544
9334.278723	5080.490000	562.482422	-9.886537
9334.278723	5080.490000	561.243164	3.350793
9334.278723	5080.490000	560.001953	51.466293
9334.278723	5080.490000	558.761719	18.885284
9334.278723	5080.490000	557.520508	-33.307442
9334.278723	5080.490000	556.279297	47.457699
9334.278723	5080.490000	555.038086	14.879796
9334.278723	5080.490000	553.795898	52.018852
9334.278723	5080.490000	552.554688	-13.227006
9334.278723	5080.490000	551.311523	4.292721
9334.278723	5080.490000	550.069336	74.049324
9334.278723	5080.490000	548.826172	-32.532375
9334.278723	5080.490000	547.583984	-145.600861
9334.278723	5080.490000	546.339844	-21.483475
9334.278723	5080.490000	545.096680	135.204453
9334.278723	5080.490000	543.852539	30.854485
9334.278723	5080.490000	542.608398	-19.099745
9334.278723	5080.490000	541.364258	65.736870
9334.278723	5080.490000	540.119141	9.266316
9334.278723	5080.490000	538.875000	-23.282171
9334.278723	5080.490000	537.628906	-12.375904
9334.278723	5080.490000	536.383789	-42.743950
9334.278723	5080.490000	535.137695	-5.789465
9334.278723	5080.490000	533.892578	33.317127
9334.278723	5080.490000	532.645508	76.741287
9334.278723	5080.490000	531.399414	-16.569281
9334.278723	5080.490000	530.152344	94.096001
9334.278723	5080.490000	528.905273	68.055267
9334.278723	5080.490000	527.658203	100.575409
9334.278723	5080.490000	526.410156	5.153082
9334.278723	5080.490000	525.163086	48.503609
9334.278723	5080.490000	523.914063	33.313122
9334.278723	5080.490000	522.666016	-3.541456
9334.278723	5080.490000	521.416992	31.103748
9334.278723	5080.490000	520.167969	-55.558144
9334.278723	5080.490000	518.918945	-59.901394
9334.278723	5080.490000	517.669922	-114.040001
9334.278723	5080.490000	516.419922	-42.621181
9334.278723	5080.490000	515.169922	-18.844660
9334.278723	5080.490000	513.919922	43.861332
9334.278723	5080.490000	512.668945	-53.532284
9334.278723	5080.490000	511.417969	-44.919827
9334.278723	5080.490000	510.166992	0.441350
9334.278723	5080.490000	508.916016	-103.376785
9334.278723	5080.490000	507.664063	-49.386734
9334.278723	5080.490000	506.412109	8.897519
9334.278723	5080.490000	505.160156	-38.701332
9334.278723	5080.490000	503.907227	-43.088905
9334.278723	5080.490000	502.655273	-43.158806
9334.278723	5080.490000	501.402344	21.532429
9334.278723	5080.490000	500.148438	6.328189
9334.278723	5080.490000	498.895508	105.499405
9334.278723	5080.490000	497.641602	-86.640869
9334.278723	5080.490000	496.387695	10.339615
9334.278723	5080.490000	495.132813	-13.496096
9334.278723	5080.490000	493.878906	96.353134
9334.278723	5080.490000	492.624023	-41.750401
9334.278723	5080.490000	491.368164	9.854228
9334.278723	5080.490000	490.113281	5.409599
9334.278723	5080.490000	488.857422	16.039415
9334.278723	5080.490000	487.601563	106.348480
9334.278723	5080.490000	486.344727	88.944649
9334.278723	5080.490000	485.088867	30.638578
9334.278723	5080.490000	483.832031	-59.936588
9334.278723	5080.490000	482.575195	129.270935
9334.278723	5080.490000	481.317383	88.180916
9334.278723	5080.490000	480.059570	60.006760
9334.278723	5080.490000	478.801758	-26.227957
9334.278723	5080.490000	477.543945	12.270129
9334.278723	5080.490000	476.285156	-101.881302
9334.278723	5080.490000	475.027344	31.160854
9334.278723	5080.490000	473.767578	24.468344
9334.278723	5080.490000	472.508789	-18.749908
9334.278723	5080.490000	471.249023	-51.222630
9334.278723	5080.490000	469.989258	-60.072468
9334.278723	5080.490000	468.729492	74.907623
9334.278723	5080.490000	467.469727	25.229841
9334.278723	5080.490000	466.208984	74.270927
9334.278723	5080.490000	464.948242	41.750961
9334.278723	5080.490000	463.686523	34.969475
9334.278723	5080.490000	462.425781	51.767578
9334.278723	5080.490000	461.164063	40.669403
9334.278723	5080.490000	459.901367	98.153778
9334.278723	5080.490000	458.639648	151.312042
9334.278723	5080.490000	457.376953	37.301250
9334.278723	5080.490000	456.114258	56.138260
9334.278723	5080.490000	454.851563	107.074783
9334.278723	5080.490000	453.587891	85.165176
9334.278723	5080.490000	452.324219	16.147209
9334.278723	5080.490000	451.060547	101.243210
9334.278723	5080.490000	449.796875	55.747505
9334.278723	5080.490000	448.532227	5.968680
9334.278723	5080.490000	447.267578	93.080963
9334.278723	5080.490000	446.002930	120.253342
9334.278723	5080.490000	444.737305	4.138493
9334.278723	5080.490000	443.471680	74.016075
9334.278723	5080.490000	442.206055	39.117489
9334.278723	5080.490000	440.940430	59.758072
9334.278723	5080.490000	439.673828	-13.633586
9334.278723	5080.490000	438.407227	109.461861
9334.278723	5080.490000	437.140625	16.810583
9334.278723	5080.490000	435.873047	107.757004
9334.278723	5080.490000	434.605469	175.151962
9334.278723	5080.490000	433.337891	184.867004
9334.278723	5080.490000	432.070313	100.670586
9334.278723	5080.490000	430.801758	44.198364
9334.278723	5080.490000	429.533203	-3.759407
9334.278723	5080.490000	428.264648	52.731148
9334.278723	5080.490000	426.996094	-8.081450
9334.278723	5080.490000	425.726563	93.049255
9334.278723	5080.490000	424.457031	85.427383
9334.278723	5080.490000	423.186523	-1.057701
9334.278723	5080.490000	421.916992	80.694908
9334.278723	5080.490000	420.646484	190.038879
9334.278723	5080.490000	419.375977	109.820061
9334.278723	5080.490000	418.104492	95.557091
9334.278723	5080.490000	416.833008	64.220772
9334.278723	5080.490000	415.561523	69.005020
9334.278723	5080.490000	414.290039	154.550705
9334.278723	5080.490000	413.017578	163.440582
9334.278723	5080.490000	411.746094	31.946711
9334.278723	5080.490000	410.472656	13.092976
9334.278723	5080.490000	409.200195	79.184509
9334.278723	5080.490000	407.926758	45.315525
9334.278723	5080.490000	406.653320	75.112770
9334.278723	5080.490000	405.379883	58.099072
9334.278723	5080.490000	404.105469	47.381283
9334.278723	5080.490000	402.831055	53.569290
9334.278723	5080.490000	401.556641	108.484810
9334.278723	5080.490000	400.282227	48.708778
9334.278723	5080.490000	399.006836	54.630749
9334.278723	5080.490000	397.731445	119.844971
9334.278723	5080.490000	396.456055	81.032288
9334.278723	5080.490000	395.179688	105.736374
9334.278723	5080.490000	393.903320	49.785622
9334.278723	5080.490000	392.626953	131.497864
9334.278723	5080.490000	391.350586	-43.288624
9334.278723	5080.490000	390.073242	99.615974
9334.278723	5080.490000	388.795898	85.633308
9334.278723	5080.490000	387.518555	33.429333
9334.278723	5080.490000	386.240234	86.964836
9334.278723	5080.490000	384.961914	125.539200
9334.278723	5080.490000	383.683594	-13.764886
9334.278723	5080.490000	382.405273	5.518009
9334.278723	5080.490000	381.125977	56.378498
9334.278723	5080.490000	379.846680	85.933388
9334.278723	5080.490000	378.567383	-15.737651
9334.278723	5080.490000	377.287109	-45.653118
9334.278723	5080.490000	376.006836	65.873413
9334.278723	5080.490000	374.726563	111.704315
9334.278723	5080.490000	373.446289	41.184795
9334.278723	5080.490000	372.165039	59.221291
9334.278723	5080.490000	370.883789	39.078930
9334.278723	5080.490000	369.602539	16.662445
9334.278723	5080.490000	368.320313	27.839025
9334.278723	5080.490000	367.039063	-104.639557
9334.278723	5080.490000	365.755859	-55.845409
9334.278723	5080.490000	364.473633	26.485167
9334.278723	5080.490000	363.190430	-11.609249
9334.278723	5080.490000	361.907227	-45.672882
9334.278723	5080.490000	360.624023	19.128950
9334.278723	5080.490000	359.340820	-38.525417
9334.278723	5080.490000	358.056641	-134.299896
9334.278723	5080.490000	356.772461	33.022949
9334.278723	5080.490000	355.487305	-4.224555
9334.278723	5080.490000	354.202148	-3.795841
9334.278723	5080.490000	352.916992	15.334501
9334.278723	5080.490000	351.631836	21.582148
9334.278723	5080.490000	350.346680	-3.986222
9334.278723	5080.490000	349.060547	-82.398918
9334.278723	5080.490000	347.774414	-81.129799
9334.278723	5080.490000	346.487305	6.061696
9334.278723	5080.490000	345.200195	-14.273024
9334.278723	5080.490000	343.913086	42.874218
9334.278723	5080.490000	342.625977	-28.470953
9334.278723	5080.490000	341.338867	38.561680
9334.278723	5080.490000	340.050781	-24.970745
9334.278723	5080.490000	338.762695	-32.097233
9334.278723	5080.490000	337.473633	8.730035
9334.278723	5080.490000	336.184570	-59.935745
9334.278723	5080.490000	334.895508	-3.005842
9334.278723	5080.490000	333.606445	-80.720268
9334.278723	5080.490000	332.317383	-32.905872
9334.278723	5080.490000	331.027344	-16.944609
9334.278723	5080.490000	329.736328	-74.756989
9334.278723	5080.490000	328.446289	9.622777
9334.278723	5080.490000	327.155273	3.447319
9334.278723	5080.490000	325.864258	-26.174149
9334.278723	5080.490000	324.573242	21.314363
9334.278723	5080.490000	323.281250	43.217579
9334.278723	5080.490000	321.989258	47.930973
9334.278723	5080.490000	320.697266	115.005630
9334.278723	5080.490000	319.405273	97.883812
9334.278723	5080.490000	318.112305	30.076231
9334.278723	5080.490000	316.819336	110.363205
9334.278723	5080.490000	315.526367	106.471603
9334.278723	5080.490000	314.232422	1.701521
9334.278723	5080.490000	312.938477	-11.535638
9334.278723	5080.490000	311.644531	-23.190083
9334.278723	5080.490000	310.349609	-22.842121
9334.278723	5080.490000	309.054688	127.398193
9334.278723	5080.490000	307.759766	18.008766
9334.278723	5080.490000	306.464844	-48.036842
9334.278723	5080.490000	305.168945	121.291870
9334.278723	5080.490000	303.873047	-0.196893
9334.278723	5080.490000	302.577148	40.556953
9334.278723	5080.490000	301.281250	24.346188
9334.278723	5080.490000	299.984375	118.061943
