#X		#Y		#Wave		#Intensity
9681.334043	4781.793333	1999.946289	32.288208
9681.334043	4781.793333	1998.981445	-191.467987
9681.334043	4781.793333	1998.017578	37.670452
9681.334043	4781.793333	1997.052734	46.260571
9681.334043	4781.793333	1996.088867	32.640556
9681.334043	4781.793333	1995.124023	-32.910912
9681.334043	4781.793333	1994.159180	99.786140
9681.334043	4781.793333	1993.193359	-10.160681
9681.334043	4781.793333	1992.228516	70.654610
9681.334043	4781.793333	1991.262695	-88.592987
9681.334043	4781.793333	1990.296875	-34.863365
9681.334043	4781.793333	1989.331055	73.359558
9681.334043	4781.793333	1988.365234	8.437097
9681.334043	4781.793333	1987.398438	69.757309
9681.334043	4781.793333	1986.432617	9.946627
9681.334043	4781.793333	1985.465820	123.305664
9681.334043	4781.793333	1984.499023	78.471909
9681.334043	4781.793333	1983.532227	182.020218
9681.334043	4781.793333	1982.565430	11.286203
9681.334043	4781.793333	1981.597656	-6.137872
9681.334043	4781.793333	1980.629883	8.617734
9681.334043	4781.793333	1979.662109	38.244690
9681.334043	4781.793333	1978.694336	16.059202
9681.334043	4781.793333	1977.726563	117.382393
9681.334043	4781.793333	1976.758789	-67.621811
9681.334043	4781.793333	1975.790039	120.162758
9681.334043	4781.793333	1974.821289	-148.571075
9681.334043	4781.793333	1973.852539	-2.683755
9681.334043	4781.793333	1972.883789	-34.402836
9681.334043	4781.793333	1971.915039	79.440613
9681.334043	4781.793333	1970.945313	67.531975
9681.334043	4781.793333	1969.975586	139.489716
9681.334043	4781.793333	1969.005859	41.389595
9681.334043	4781.793333	1968.036133	81.369865
9681.334043	4781.793333	1967.066406	-11.677274
9681.334043	4781.793333	1966.096680	82.568634
9681.334043	4781.793333	1965.125977	-57.168064
9681.334043	4781.793333	1964.155273	-19.517555
9681.334043	4781.793333	1963.184570	-11.391747
9681.334043	4781.793333	1962.213867	-77.085335
9681.334043	4781.793333	1961.242188	9.866967
9681.334043	4781.793333	1960.271484	96.817123
9681.334043	4781.793333	1959.299805	-47.498814
9681.334043	4781.793333	1958.328125	24.726412
9681.334043	4781.793333	1957.356445	96.951134
9681.334043	4781.793333	1956.384766	65.902267
9681.334043	4781.793333	1955.412109	15.221172
9681.334043	4781.793333	1954.439453	-64.913361
9681.334043	4781.793333	1953.467773	31.943991
9681.334043	4781.793333	1952.495117	-92.347160
9681.334043	4781.793333	1951.521484	29.084805
9681.334043	4781.793333	1950.548828	-33.717072
9681.334043	4781.793333	1949.575195	50.861412
9681.334043	4781.793333	1948.601563	-2.065922
9681.334043	4781.793333	1947.627930	-18.136242
9681.334043	4781.793333	1946.654297	140.069458
9681.334043	4781.793333	1945.680664	133.824188
9681.334043	4781.793333	1944.706055	-2.434871
9681.334043	4781.793333	1943.732422	118.926537
9681.334043	4781.793333	1942.757813	112.726555
9681.334043	4781.793333	1941.783203	23.171316
9681.334043	4781.793333	1940.807617	56.236675
9681.334043	4781.793333	1939.833008	106.457733
9681.334043	4781.793333	1938.857422	107.655243
9681.334043	4781.793333	1937.881836	-38.150700
9681.334043	4781.793333	1936.906250	173.764740
9681.334043	4781.793333	1935.930664	20.666441
9681.334043	4781.793333	1934.955078	-2.582061
9681.334043	4781.793333	1933.978516	-35.610218
9681.334043	4781.793333	1933.001953	-68.622498
9681.334043	4781.793333	1932.025391	-8.615194
9681.334043	4781.793333	1931.048828	92.971085
9681.334043	4781.793333	1930.072266	55.069283
9681.334043	4781.793333	1929.094727	-43.969013
9681.334043	4781.793333	1928.118164	25.779036
9681.334043	4781.793333	1927.140625	-41.428028
9681.334043	4781.793333	1926.163086	155.418274
9681.334043	4781.793333	1925.184570	-41.334778
9681.334043	4781.793333	1924.207031	-20.517742
9681.334043	4781.793333	1923.228516	178.653366
9681.334043	4781.793333	1922.250000	-57.085850
9681.334043	4781.793333	1921.271484	-53.381931
9681.334043	4781.793333	1920.292969	-113.174377
9681.334043	4781.793333	1919.314453	-99.702950
9681.334043	4781.793333	1918.334961	116.366478
9681.334043	4781.793333	1917.355469	-31.299765
9681.334043	4781.793333	1916.375977	96.820305
9681.334043	4781.793333	1915.396484	68.745735
9681.334043	4781.793333	1914.416992	4.086923
9681.334043	4781.793333	1913.436523	46.751259
9681.334043	4781.793333	1912.457031	91.831299
9681.334043	4781.793333	1911.476563	44.246788
9681.334043	4781.793333	1910.496094	77.106560
9681.334043	4781.793333	1909.515625	134.314987
9681.334043	4781.793333	1908.534180	3.881529
9681.334043	4781.793333	1907.552734	56.191437
9681.334043	4781.793333	1906.572266	147.442001
9681.334043	4781.793333	1905.590820	-21.912876
9681.334043	4781.793333	1904.608398	-25.656303
9681.334043	4781.793333	1903.626953	104.473946
9681.334043	4781.793333	1902.644531	64.179283
9681.334043	4781.793333	1901.663086	89.587715
9681.334043	4781.793333	1900.680664	-23.698961
9681.334043	4781.793333	1899.698242	101.421432
9681.334043	4781.793333	1898.714844	7.604825
9681.334043	4781.793333	1897.732422	-76.462540
9681.334043	4781.793333	1896.749023	-9.787340
9681.334043	4781.793333	1895.765625	59.280056
9681.334043	4781.793333	1894.782227	-56.383186
9681.334043	4781.793333	1893.798828	-6.798330
9681.334043	4781.793333	1892.814453	50.041111
9681.334043	4781.793333	1891.831055	162.706833
9681.334043	4781.793333	1890.846680	49.480618
9681.334043	4781.793333	1889.862305	-58.862782
9681.334043	4781.793333	1888.877930	-77.366066
9681.334043	4781.793333	1887.892578	-71.609711
9681.334043	4781.793333	1886.908203	135.530411
9681.334043	4781.793333	1885.922852	78.135765
9681.334043	4781.793333	1884.937500	6.192656
9681.334043	4781.793333	1883.952148	-14.811816
9681.334043	4781.793333	1882.965820	36.914883
9681.334043	4781.793333	1881.980469	-42.302250
9681.334043	4781.793333	1880.994141	-34.251980
9681.334043	4781.793333	1880.007813	63.441734
9681.334043	4781.793333	1879.021484	49.628830
9681.334043	4781.793333	1878.035156	98.786194
9681.334043	4781.793333	1877.047852	38.918701
9681.334043	4781.793333	1876.061523	46.858421
9681.334043	4781.793333	1875.074219	151.618652
9681.334043	4781.793333	1874.086914	-12.365808
9681.334043	4781.793333	1873.098633	39.085629
9681.334043	4781.793333	1872.111328	160.670914
9681.334043	4781.793333	1871.123047	-41.987370
9681.334043	4781.793333	1870.135742	-2.708297
9681.334043	4781.793333	1869.147461	14.770776
9681.334043	4781.793333	1868.158203	90.252914
9681.334043	4781.793333	1867.169922	-63.968025
9681.334043	4781.793333	1866.180664	81.554581
9681.334043	4781.793333	1865.192383	-14.648499
9681.334043	4781.793333	1864.203125	60.704739
9681.334043	4781.793333	1863.213867	-47.576653
9681.334043	4781.793333	1862.223633	73.602829
9681.334043	4781.793333	1861.234375	-104.706367
9681.334043	4781.793333	1860.244141	139.525681
9681.334043	4781.793333	1859.253906	57.782444
9681.334043	4781.793333	1858.263672	-45.670521
9681.334043	4781.793333	1857.273438	51.166245
9681.334043	4781.793333	1856.282227	77.983841
9681.334043	4781.793333	1855.291992	-3.766627
9681.334043	4781.793333	1854.300781	-32.454365
9681.334043	4781.793333	1853.309570	25.647387
9681.334043	4781.793333	1852.317383	-29.594053
9681.334043	4781.793333	1851.326172	-186.061401
9681.334043	4781.793333	1850.333984	-48.505352
9681.334043	4781.793333	1849.342773	-2.572205
9681.334043	4781.793333	1848.350586	132.447723
9681.334043	4781.793333	1847.357422	74.725739
9681.334043	4781.793333	1846.365234	33.861755
9681.334043	4781.793333	1845.372070	91.696701
9681.334043	4781.793333	1844.379883	-14.186020
9681.334043	4781.793333	1843.386719	38.781494
9681.334043	4781.793333	1842.393555	-18.972088
9681.334043	4781.793333	1841.399414	84.452110
9681.334043	4781.793333	1840.406250	67.558563
9681.334043	4781.793333	1839.412109	9.768050
9681.334043	4781.793333	1838.417969	-74.468697
9681.334043	4781.793333	1837.423828	108.131546
9681.334043	4781.793333	1836.429688	100.774826
9681.334043	4781.793333	1835.434570	-48.374939
9681.334043	4781.793333	1834.440430	66.785118
9681.334043	4781.793333	1833.445313	54.572044
9681.334043	4781.793333	1832.450195	3.917665
9681.334043	4781.793333	1831.454102	32.496567
9681.334043	4781.793333	1830.458984	104.257965
9681.334043	4781.793333	1829.462891	19.955294
9681.334043	4781.793333	1828.466797	-21.140181
9681.334043	4781.793333	1827.470703	81.717667
9681.334043	4781.793333	1826.474609	64.572815
9681.334043	4781.793333	1825.478516	45.015141
9681.334043	4781.793333	1824.481445	30.238153
9681.334043	4781.793333	1823.484375	22.638720
9681.334043	4781.793333	1822.487305	96.521568
9681.334043	4781.793333	1821.490234	172.752457
9681.334043	4781.793333	1820.493164	52.449608
9681.334043	4781.793333	1819.495117	-192.406952
9681.334043	4781.793333	1818.498047	-109.040825
9681.334043	4781.793333	1817.500000	113.169601
9681.334043	4781.793333	1816.500977	-155.566681
9681.334043	4781.793333	1815.502930	164.677216
9681.334043	4781.793333	1814.504883	61.141052
9681.334043	4781.793333	1813.505859	-44.771389
9681.334043	4781.793333	1812.506836	76.627022
9681.334043	4781.793333	1811.507813	80.746986
9681.334043	4781.793333	1810.508789	92.019722
9681.334043	4781.793333	1809.508789	17.183897
9681.334043	4781.793333	1808.508789	28.422323
9681.334043	4781.793333	1807.508789	25.295130
9681.334043	4781.793333	1806.508789	72.335098
9681.334043	4781.793333	1805.508789	-57.476250
9681.334043	4781.793333	1804.508789	132.857239
9681.334043	4781.793333	1803.507813	115.299736
9681.334043	4781.793333	1802.506836	140.713348
9681.334043	4781.793333	1801.505859	68.207062
9681.334043	4781.793333	1800.504883	122.226250
9681.334043	4781.793333	1799.502930	-33.823586
9681.334043	4781.793333	1798.501953	72.652069
9681.334043	4781.793333	1797.500000	133.736053
9681.334043	4781.793333	1796.498047	63.585075
9681.334043	4781.793333	1795.496094	50.678699
9681.334043	4781.793333	1794.493164	-7.548862
9681.334043	4781.793333	1793.491211	51.042995
9681.334043	4781.793333	1792.488281	-76.321930
9681.334043	4781.793333	1791.485352	34.647408
9681.334043	4781.793333	1790.482422	-4.548404
9681.334043	4781.793333	1789.478516	34.860703
9681.334043	4781.793333	1788.475586	31.367558
9681.334043	4781.793333	1787.471680	-48.345226
9681.334043	4781.793333	1786.467773	10.039867
9681.334043	4781.793333	1785.463867	46.961411
9681.334043	4781.793333	1784.459961	76.710510
9681.334043	4781.793333	1783.455078	27.905783
9681.334043	4781.793333	1782.450195	43.334045
9681.334043	4781.793333	1781.445313	-29.267782
9681.334043	4781.793333	1780.440430	-47.164249
9681.334043	4781.793333	1779.435547	68.075409
9681.334043	4781.793333	1778.429688	154.724991
9681.334043	4781.793333	1777.424805	-105.676872
9681.334043	4781.793333	1776.418945	-95.104195
9681.334043	4781.793333	1775.413086	-75.049789
9681.334043	4781.793333	1774.406250	77.998352
9681.334043	4781.793333	1773.400391	-8.894651
9681.334043	4781.793333	1772.393555	37.196014
9681.334043	4781.793333	1771.386719	4.908924
9681.334043	4781.793333	1770.379883	134.020065
9681.334043	4781.793333	1769.373047	4.394292
9681.334043	4781.793333	1768.365234	-61.140053
9681.334043	4781.793333	1767.358398	60.742592
9681.334043	4781.793333	1766.350586	-16.669863
9681.334043	4781.793333	1765.342773	90.893097
9681.334043	4781.793333	1764.334961	-36.317451
9681.334043	4781.793333	1763.326172	26.134686
9681.334043	4781.793333	1762.318359	31.670433
9681.334043	4781.793333	1761.309570	94.053146
9681.334043	4781.793333	1760.300781	-52.082336
9681.334043	4781.793333	1759.291016	57.629314
9681.334043	4781.793333	1758.282227	51.246357
9681.334043	4781.793333	1757.272461	77.994431
9681.334043	4781.793333	1756.262695	-30.217138
9681.334043	4781.793333	1755.252930	24.906681
9681.334043	4781.793333	1754.243164	-83.285355
9681.334043	4781.793333	1753.233398	68.799644
9681.334043	4781.793333	1752.222656	67.052307
9681.334043	4781.793333	1751.211914	100.765816
9681.334043	4781.793333	1750.201172	2.035990
9681.334043	4781.793333	1749.190430	-9.199056
9681.334043	4781.793333	1748.179688	-100.809807
9681.334043	4781.793333	1747.167969	-83.695244
9681.334043	4781.793333	1746.156250	-40.611931
9681.334043	4781.793333	1745.144531	-151.110031
9681.334043	4781.793333	1744.132813	-115.144501
9681.334043	4781.793333	1743.121094	-65.038933
9681.334043	4781.793333	1742.108398	11.000478
9681.334043	4781.793333	1741.095703	58.670872
9681.334043	4781.793333	1740.083008	63.827835
9681.334043	4781.793333	1739.070313	50.092110
9681.334043	4781.793333	1738.057617	-53.300343
9681.334043	4781.793333	1737.043945	-78.832603
9681.334043	4781.793333	1736.030273	-17.113159
9681.334043	4781.793333	1735.016602	-54.458763
9681.334043	4781.793333	1734.002930	47.280617
9681.334043	4781.793333	1732.989258	-34.870972
9681.334043	4781.793333	1731.974609	-93.442558
9681.334043	4781.793333	1730.959961	27.051674
9681.334043	4781.793333	1729.945313	-118.691360
9681.334043	4781.793333	1728.930664	77.099457
9681.334043	4781.793333	1727.916016	23.209431
9681.334043	4781.793333	1726.900391	54.075283
9681.334043	4781.793333	1725.885742	-86.903595
9681.334043	4781.793333	1724.870117	49.845825
9681.334043	4781.793333	1723.853516	40.650795
9681.334043	4781.793333	1722.837891	-81.465210
9681.334043	4781.793333	1721.822266	-41.261276
9681.334043	4781.793333	1720.805664	-76.335884
9681.334043	4781.793333	1719.789063	-87.897919
9681.334043	4781.793333	1718.772461	95.632843
9681.334043	4781.793333	1717.754883	-49.942696
9681.334043	4781.793333	1716.738281	-49.788933
9681.334043	4781.793333	1715.720703	-28.506350
9681.334043	4781.793333	1714.703125	42.082455
9681.334043	4781.793333	1713.685547	-14.178140
9681.334043	4781.793333	1712.667969	-79.819733
9681.334043	4781.793333	1711.649414	-121.975060
9681.334043	4781.793333	1710.630859	-63.203506
9681.334043	4781.793333	1709.612305	49.505817
9681.334043	4781.793333	1708.593750	-128.755142
9681.334043	4781.793333	1707.575195	-100.539978
9681.334043	4781.793333	1706.555664	-25.444813
9681.334043	4781.793333	1705.536133	-4.317575
9681.334043	4781.793333	1704.516602	5.070399
9681.334043	4781.793333	1703.497070	-27.744123
9681.334043	4781.793333	1702.477539	54.271717
9681.334043	4781.793333	1701.457031	49.553959
9681.334043	4781.793333	1700.437500	44.832027
9681.334043	4781.793333	1699.416992	-88.713066
9681.334043	4781.793333	1698.395508	-39.573868
9681.334043	4781.793333	1697.375000	70.411217
9681.334043	4781.793333	1696.354492	-44.362320
9681.334043	4781.793333	1695.333008	119.387238
9681.334043	4781.793333	1694.311523	32.706108
9681.334043	4781.793333	1693.290039	-30.555958
9681.334043	4781.793333	1692.267578	-77.433189
9681.334043	4781.793333	1691.246094	13.673109
9681.334043	4781.793333	1690.223633	60.310528
9681.334043	4781.793333	1689.201172	127.960869
9681.334043	4781.793333	1688.178711	69.373787
9681.334043	4781.793333	1687.155273	-54.628521
9681.334043	4781.793333	1686.132813	43.354446
9681.334043	4781.793333	1685.109375	54.865356
9681.334043	4781.793333	1684.085938	14.988567
9681.334043	4781.793333	1683.062500	42.831657
9681.334043	4781.793333	1682.039063	33.306892
9681.334043	4781.793333	1681.014648	98.462509
9681.334043	4781.793333	1679.990234	67.913170
9681.334043	4781.793333	1678.965820	42.035488
9681.334043	4781.793333	1677.941406	181.777863
9681.334043	4781.793333	1676.916992	106.901199
9681.334043	4781.793333	1675.891602	41.371201
9681.334043	4781.793333	1674.866211	66.780571
9681.334043	4781.793333	1673.840820	75.858955
9681.334043	4781.793333	1672.815430	33.660717
9681.334043	4781.793333	1671.790039	114.959938
9681.334043	4781.793333	1670.763672	144.970840
9681.334043	4781.793333	1669.737305	84.133827
9681.334043	4781.793333	1668.710938	-41.884464
9681.334043	4781.793333	1667.684570	-98.014526
9681.334043	4781.793333	1666.658203	71.657372
9681.334043	4781.793333	1665.630859	-51.973888
9681.334043	4781.793333	1664.603516	19.887562
9681.334043	4781.793333	1663.576172	194.075867
9681.334043	4781.793333	1662.548828	79.785034
9681.334043	4781.793333	1661.520508	128.310822
9681.334043	4781.793333	1660.493164	144.268738
9681.334043	4781.793333	1659.464844	136.968887
9681.334043	4781.793333	1658.436523	-2.804069
9681.334043	4781.793333	1657.408203	127.015930
9681.334043	4781.793333	1656.378906	191.730499
9681.334043	4781.793333	1655.350586	137.961533
9681.334043	4781.793333	1654.321289	158.521057
9681.334043	4781.793333	1653.291992	9.576048
9681.334043	4781.793333	1652.261719	11.573640
9681.334043	4781.793333	1651.232422	176.038040
9681.334043	4781.793333	1650.202148	85.179756
9681.334043	4781.793333	1649.171875	101.076874
9681.334043	4781.793333	1648.141602	47.378994
9681.334043	4781.793333	1647.111328	67.913902
9681.334043	4781.793333	1646.080078	199.732742
9681.334043	4781.793333	1645.049805	206.318710
9681.334043	4781.793333	1644.018555	321.834473
9681.334043	4781.793333	1642.987305	261.186707
9681.334043	4781.793333	1641.955078	149.586243
9681.334043	4781.793333	1640.923828	271.994293
9681.334043	4781.793333	1639.891602	141.908005
9681.334043	4781.793333	1638.859375	176.275589
9681.334043	4781.793333	1637.827148	351.852081
9681.334043	4781.793333	1636.794922	235.714844
9681.334043	4781.793333	1635.761719	10.851996
9681.334043	4781.793333	1634.729492	15.142718
9681.334043	4781.793333	1633.696289	250.759949
9681.334043	4781.793333	1632.662109	176.360611
9681.334043	4781.793333	1631.628906	145.930771
9681.334043	4781.793333	1630.594727	99.327492
9681.334043	4781.793333	1629.561523	103.600784
9681.334043	4781.793333	1628.527344	225.734665
9681.334043	4781.793333	1627.493164	56.686611
9681.334043	4781.793333	1626.458008	271.189453
9681.334043	4781.793333	1625.423828	150.707230
9681.334043	4781.793333	1624.388672	231.176147
9681.334043	4781.793333	1623.353516	92.279755
9681.334043	4781.793333	1622.318359	271.994781
9681.334043	4781.793333	1621.282227	107.760101
9681.334043	4781.793333	1620.247070	204.340057
9681.334043	4781.793333	1619.210938	107.092751
9681.334043	4781.793333	1618.174805	148.281281
9681.334043	4781.793333	1617.137695	129.494980
9681.334043	4781.793333	1616.101563	131.474670
9681.334043	4781.793333	1615.064453	2.056534
9681.334043	4781.793333	1614.027344	209.190659
9681.334043	4781.793333	1612.990234	271.075958
9681.334043	4781.793333	1611.953125	141.720428
9681.334043	4781.793333	1610.916016	178.266800
9681.334043	4781.793333	1609.877930	171.044189
9681.334043	4781.793333	1608.839844	168.434280
9681.334043	4781.793333	1607.801758	202.664825
9681.334043	4781.793333	1606.763672	165.536743
9681.334043	4781.793333	1605.724609	225.075485
9681.334043	4781.793333	1604.685547	132.748154
9681.334043	4781.793333	1603.646484	189.982178
9681.334043	4781.793333	1602.607422	267.898834
9681.334043	4781.793333	1601.568359	364.186737
9681.334043	4781.793333	1600.528320	101.805008
9681.334043	4781.793333	1599.489258	230.280350
9681.334043	4781.793333	1598.449219	287.469696
9681.334043	4781.793333	1597.408203	206.784851
9681.334043	4781.793333	1596.368164	263.971283
9681.334043	4781.793333	1595.327148	148.887390
9681.334043	4781.793333	1594.287109	52.229305
9681.334043	4781.793333	1593.246094	231.110367
9681.334043	4781.793333	1592.204102	187.276398
9681.334043	4781.793333	1591.163086	290.345764
9681.334043	4781.793333	1590.121094	274.068146
9681.334043	4781.793333	1589.079102	156.869492
9681.334043	4781.793333	1588.037109	298.897461
9681.334043	4781.793333	1586.995117	236.792328
9681.334043	4781.793333	1585.953125	277.890747
9681.334043	4781.793333	1584.910156	302.933594
9681.334043	4781.793333	1583.867188	492.983582
9681.334043	4781.793333	1582.824219	339.270813
9681.334043	4781.793333	1581.781250	226.864334
9681.334043	4781.793333	1580.737305	245.062744
9681.334043	4781.793333	1579.693359	306.773834
9681.334043	4781.793333	1578.649414	340.996857
9681.334043	4781.793333	1577.605469	276.787109
9681.334043	4781.793333	1576.561523	423.167236
9681.334043	4781.793333	1575.516602	324.662445
9681.334043	4781.793333	1574.472656	278.828827
9681.334043	4781.793333	1573.427734	356.534485
9681.334043	4781.793333	1572.381836	427.357758
9681.334043	4781.793333	1571.336914	328.975708
9681.334043	4781.793333	1570.291016	248.928467
9681.334043	4781.793333	1569.246094	340.339783
9681.334043	4781.793333	1568.200195	166.659500
9681.334043	4781.793333	1567.153320	390.575806
9681.334043	4781.793333	1566.107422	324.333984
9681.334043	4781.793333	1565.060547	379.163208
9681.334043	4781.793333	1564.013672	347.221161
9681.334043	4781.793333	1562.966797	447.707214
9681.334043	4781.793333	1561.919922	395.249451
9681.334043	4781.793333	1560.872070	463.763885
9681.334043	4781.793333	1559.825195	493.483459
9681.334043	4781.793333	1558.777344	354.408020
9681.334043	4781.793333	1557.729492	388.723450
9681.334043	4781.793333	1556.680664	423.036743
9681.334043	4781.793333	1555.632813	309.175903
9681.334043	4781.793333	1554.583984	446.084778
9681.334043	4781.793333	1553.535156	455.344177
9681.334043	4781.793333	1552.486328	270.957703
9681.334043	4781.793333	1551.436523	385.057312
9681.334043	4781.793333	1550.387695	264.555328
9681.334043	4781.793333	1549.337891	180.545670
9681.334043	4781.793333	1548.288086	160.326828
9681.334043	4781.793333	1547.238281	256.211945
9681.334043	4781.793333	1546.187500	163.195419
9681.334043	4781.793333	1545.136719	224.943863
9681.334043	4781.793333	1544.086914	182.049606
9681.334043	4781.793333	1543.035156	173.297791
9681.334043	4781.793333	1541.984375	182.759064
9681.334043	4781.793333	1540.933594	326.363861
9681.334043	4781.793333	1539.881836	251.723862
9681.334043	4781.793333	1538.830078	152.132980
9681.334043	4781.793333	1537.778320	75.319435
9681.334043	4781.793333	1536.725586	150.747955
9681.334043	4781.793333	1535.673828	196.642365
9681.334043	4781.793333	1534.621094	138.081924
9681.334043	4781.793333	1533.568359	143.129517
9681.334043	4781.793333	1532.515625	166.351730
9681.334043	4781.793333	1531.461914	71.573723
9681.334043	4781.793333	1530.409180	158.367294
9681.334043	4781.793333	1529.355469	190.700043
9681.334043	4781.793333	1528.301758	198.090347
9681.334043	4781.793333	1527.247070	200.959167
9681.334043	4781.793333	1526.193359	285.464600
9681.334043	4781.793333	1525.138672	61.687119
9681.334043	4781.793333	1524.083984	73.704651
9681.334043	4781.793333	1523.029297	35.889893
9681.334043	4781.793333	1521.974609	102.314751
9681.334043	4781.793333	1520.918945	-32.842865
9681.334043	4781.793333	1519.863281	10.962605
9681.334043	4781.793333	1518.807617	14.019882
9681.334043	4781.793333	1517.751953	103.110352
9681.334043	4781.793333	1516.696289	-4.701393
9681.334043	4781.793333	1515.639648	-76.250542
9681.334043	4781.793333	1514.583008	8.340886
9681.334043	4781.793333	1513.526367	58.993931
9681.334043	4781.793333	1512.469727	-23.768330
9681.334043	4781.793333	1511.412109	-149.434326
9681.334043	4781.793333	1510.355469	-37.685459
9681.334043	4781.793333	1509.297852	-25.399107
9681.334043	4781.793333	1508.240234	-137.367813
9681.334043	4781.793333	1507.181641	150.579727
9681.334043	4781.793333	1506.124023	83.836151
9681.334043	4781.793333	1505.065430	-41.572414
9681.334043	4781.793333	1504.006836	-60.796524
9681.334043	4781.793333	1502.948242	-59.674923
9681.334043	4781.793333	1501.888672	74.618599
9681.334043	4781.793333	1500.830078	28.374886
9681.334043	4781.793333	1499.770508	-80.995445
9681.334043	4781.793333	1498.710938	32.992184
9681.334043	4781.793333	1497.650391	49.990242
9681.334043	4781.793333	1496.590820	-5.139808
9681.334043	4781.793333	1495.530273	5.143684
9681.334043	4781.793333	1494.469727	-27.373037
9681.334043	4781.793333	1493.409180	39.289146
9681.334043	4781.793333	1492.348633	-29.218281
9681.334043	4781.793333	1491.287109	1.426218
9681.334043	4781.793333	1490.225586	110.899422
9681.334043	4781.793333	1489.164063	152.809830
9681.334043	4781.793333	1488.102539	41.660496
9681.334043	4781.793333	1487.041016	16.100927
9681.334043	4781.793333	1485.978516	22.076319
9681.334043	4781.793333	1484.916016	43.813614
9681.334043	4781.793333	1483.853516	56.585865
9681.334043	4781.793333	1482.791016	-13.831924
9681.334043	4781.793333	1481.727539	66.432281
9681.334043	4781.793333	1480.664063	97.253769
9681.334043	4781.793333	1479.600586	49.423653
9681.334043	4781.793333	1478.537109	-99.481323
9681.334043	4781.793333	1477.473633	-43.854115
9681.334043	4781.793333	1476.409180	-24.168278
9681.334043	4781.793333	1475.344727	-105.491531
9681.334043	4781.793333	1474.280273	-76.746147
9681.334043	4781.793333	1473.215820	19.268154
9681.334043	4781.793333	1472.151367	-153.847458
9681.334043	4781.793333	1471.085938	-183.348160
9681.334043	4781.793333	1470.020508	-40.239773
9681.334043	4781.793333	1468.955078	-87.600845
9681.334043	4781.793333	1467.888672	31.060114
9681.334043	4781.793333	1466.823242	-27.581392
9681.334043	4781.793333	1465.756836	-14.476532
9681.334043	4781.793333	1464.690430	25.564032
9681.334043	4781.793333	1463.624023	99.399750
9681.334043	4781.793333	1462.556641	-14.801014
9681.334043	4781.793333	1461.490234	-3.767315
9681.334043	4781.793333	1460.422852	85.181274
9681.334043	4781.793333	1459.355469	-17.355406
9681.334043	4781.793333	1458.287109	-48.860256
9681.334043	4781.793333	1457.219727	93.892532
9681.334043	4781.793333	1456.151367	2.425874
9681.334043	4781.793333	1455.083008	40.135887
9681.334043	4781.793333	1454.014648	67.302422
9681.334043	4781.793333	1452.945313	89.936356
9681.334043	4781.793333	1451.876953	178.376495
9681.334043	4781.793333	1450.807617	72.179703
9681.334043	4781.793333	1449.738281	112.262474
9681.334043	4781.793333	1448.668945	67.612656
9681.334043	4781.793333	1447.598633	108.034698
9681.334043	4781.793333	1446.528320	132.395203
9681.334043	4781.793333	1445.458008	148.379776
9681.334043	4781.793333	1444.387695	127.659851
9681.334043	4781.793333	1443.317383	312.951294
9681.334043	4781.793333	1442.246094	76.848694
9681.334043	4781.793333	1441.174805	126.314743
9681.334043	4781.793333	1440.103516	291.654633
9681.334043	4781.793333	1439.032227	245.505142
9681.334043	4781.793333	1437.960938	190.522537
9681.334043	4781.793333	1436.888672	177.536926
9681.334043	4781.793333	1435.816406	269.632904
9681.334043	4781.793333	1434.744141	240.823639
9681.334043	4781.793333	1433.670898	123.582413
9681.334043	4781.793333	1432.598633	146.084427
9681.334043	4781.793333	1431.525391	279.003723
9681.334043	4781.793333	1430.452148	153.562866
9681.334043	4781.793333	1429.378906	136.651581
9681.334043	4781.793333	1428.304688	105.391144
9681.334043	4781.793333	1427.231445	195.144989
9681.334043	4781.793333	1426.157227	128.456055
9681.334043	4781.793333	1425.083008	202.577545
9681.334043	4781.793333	1424.007813	219.468307
9681.334043	4781.793333	1422.933594	151.282547
9681.334043	4781.793333	1421.858398	178.200592
9681.334043	4781.793333	1420.783203	179.205551
9681.334043	4781.793333	1419.708008	138.944397
9681.334043	4781.793333	1418.631836	46.461548
9681.334043	4781.793333	1417.555664	154.723404
9681.334043	4781.793333	1416.479492	252.769501
9681.334043	4781.793333	1415.403320	182.614502
9681.334043	4781.793333	1414.327148	105.581161
9681.334043	4781.793333	1413.250000	93.460587
9681.334043	4781.793333	1412.173828	235.058273
9681.334043	4781.793333	1411.096680	257.387604
9681.334043	4781.793333	1410.018555	330.052673
9681.334043	4781.793333	1408.941406	266.851501
9681.334043	4781.793333	1407.863281	408.138397
9681.334043	4781.793333	1406.785156	300.262360
9681.334043	4781.793333	1405.707031	428.862000
9681.334043	4781.793333	1404.628906	535.542786
9681.334043	4781.793333	1403.549805	646.828003
9681.334043	4781.793333	1402.470703	468.790070
9681.334043	4781.793333	1401.391602	392.621338
9681.334043	4781.793333	1400.312500	456.294006
9681.334043	4781.793333	1399.233398	464.769409
9681.334043	4781.793333	1398.153320	405.424988
9681.334043	4781.793333	1397.073242	446.118195
9681.334043	4781.793333	1395.993164	474.322113
9681.334043	4781.793333	1394.913086	499.899048
9681.334043	4781.793333	1393.832031	381.558044
9681.334043	4781.793333	1392.750977	480.729156
9681.334043	4781.793333	1391.669922	357.809357
9681.334043	4781.793333	1390.588867	292.831299
9681.334043	4781.793333	1389.506836	469.210205
9681.334043	4781.793333	1388.425781	427.126282
9681.334043	4781.793333	1387.343750	530.352844
9681.334043	4781.793333	1386.261719	607.484924
9681.334043	4781.793333	1385.178711	557.479309
9681.334043	4781.793333	1384.096680	506.747925
9681.334043	4781.793333	1383.013672	436.220551
9681.334043	4781.793333	1381.930664	499.080933
9681.334043	4781.793333	1380.846680	326.527161
9681.334043	4781.793333	1379.763672	467.052490
9681.334043	4781.793333	1378.679688	331.958557
9681.334043	4781.793333	1377.595703	309.448944
9681.334043	4781.793333	1376.511719	223.886871
9681.334043	4781.793333	1375.427734	382.949524
9681.334043	4781.793333	1374.342773	331.963562
9681.334043	4781.793333	1373.257813	282.892761
9681.334043	4781.793333	1372.172852	330.184814
9681.334043	4781.793333	1371.087891	289.429932
9681.334043	4781.793333	1370.001953	204.297714
9681.334043	4781.793333	1368.916992	378.861420
9681.334043	4781.793333	1367.831055	346.525696
9681.334043	4781.793333	1366.744141	266.886749
9681.334043	4781.793333	1365.658203	349.076721
9681.334043	4781.793333	1364.571289	271.349579
9681.334043	4781.793333	1363.484375	196.859726
9681.334043	4781.793333	1362.397461	488.846802
9681.334043	4781.793333	1361.310547	549.580261
9681.334043	4781.793333	1360.222656	497.604401
9681.334043	4781.793333	1359.135742	469.298615
9681.334043	4781.793333	1358.047852	564.984070
9681.334043	4781.793333	1356.958984	537.500061
9681.334043	4781.793333	1355.871094	403.281006
9681.334043	4781.793333	1354.782227	417.750275
9681.334043	4781.793333	1353.693359	509.137207
9681.334043	4781.793333	1352.604492	516.180969
9681.334043	4781.793333	1351.515625	364.968323
9681.334043	4781.793333	1350.425781	288.244019
9681.334043	4781.793333	1349.335938	167.499481
9681.334043	4781.793333	1348.246094	341.217041
9681.334043	4781.793333	1347.156250	298.425354
9681.334043	4781.793333	1346.066406	308.893402
9681.334043	4781.793333	1344.975586	320.452881
9681.334043	4781.793333	1343.884766	364.563354
9681.334043	4781.793333	1342.793945	315.755524
9681.334043	4781.793333	1341.702148	358.273712
9681.334043	4781.793333	1340.611328	237.496994
9681.334043	4781.793333	1339.519531	271.836670
9681.334043	4781.793333	1338.427734	307.536835
9681.334043	4781.793333	1337.334961	177.474289
9681.334043	4781.793333	1336.243164	225.692947
9681.334043	4781.793333	1335.150391	352.030029
9681.334043	4781.793333	1334.057617	271.069427
9681.334043	4781.793333	1332.964844	304.416443
9681.334043	4781.793333	1331.871094	117.553497
9681.334043	4781.793333	1330.778320	169.787872
9681.334043	4781.793333	1329.684570	352.775391
9681.334043	4781.793333	1328.590820	157.984116
9681.334043	4781.793333	1327.496094	262.016571
9681.334043	4781.793333	1326.402344	148.419693
9681.334043	4781.793333	1325.307617	133.096512
9681.334043	4781.793333	1324.212891	224.631180
9681.334043	4781.793333	1323.117188	196.478882
9681.334043	4781.793333	1322.022461	171.226868
9681.334043	4781.793333	1320.926758	265.155304
9681.334043	4781.793333	1319.831055	313.156342
9681.334043	4781.793333	1318.735352	356.256226
9681.334043	4781.793333	1317.638672	500.408264
9681.334043	4781.793333	1316.542969	432.112549
9681.334043	4781.793333	1315.446289	462.370178
9681.334043	4781.793333	1314.349609	268.993164
9681.334043	4781.793333	1313.251953	330.247833
9681.334043	4781.793333	1312.155273	345.908569
9681.334043	4781.793333	1311.057617	222.510300
9681.334043	4781.793333	1309.959961	259.727234
9681.334043	4781.793333	1308.862305	287.537659
9681.334043	4781.793333	1307.763672	288.722778
9681.334043	4781.793333	1306.665039	165.712082
9681.334043	4781.793333	1305.566406	113.638161
9681.334043	4781.793333	1304.467773	130.244522
9681.334043	4781.793333	1303.369141	28.056870
9681.334043	4781.793333	1302.269531	176.938965
9681.334043	4781.793333	1301.169922	106.655128
9681.334043	4781.793333	1300.070313	43.730595
9681.334043	4781.793333	1298.970703	97.942024
9681.334043	4781.793333	1297.870117	86.010185
9681.334043	4781.793333	1296.769531	80.771118
9681.334043	4781.793333	1295.668945	-31.272436
9681.334043	4781.793333	1294.568359	41.190857
9681.334043	4781.793333	1293.466797	12.972168
9681.334043	4781.793333	1292.366211	-0.560663
9681.334043	4781.793333	1291.264648	76.617737
9681.334043	4781.793333	1290.162109	76.658600
9681.334043	4781.793333	1289.060547	21.740202
9681.334043	4781.793333	1287.958008	-16.382002
9681.334043	4781.793333	1286.855469	-41.211510
9681.334043	4781.793333	1285.752930	50.542496
9681.334043	4781.793333	1284.650391	-63.163631
9681.334043	4781.793333	1283.546875	-35.912136
9681.334043	4781.793333	1282.444336	38.103466
9681.334043	4781.793333	1281.339844	-30.952461
9681.334043	4781.793333	1280.236328	35.902782
9681.334043	4781.793333	1279.132813	17.532768
9681.334043	4781.793333	1278.028320	-71.289200
9681.334043	4781.793333	1276.923828	19.648067
9681.334043	4781.793333	1275.819336	-23.647337
9681.334043	4781.793333	1274.713867	27.444616
9681.334043	4781.793333	1273.608398	-37.314644
9681.334043	4781.793333	1272.503906	28.716621
9681.334043	4781.793333	1271.397461	29.001530
9681.334043	4781.793333	1270.291992	58.791878
9681.334043	4781.793333	1269.185547	-29.679783
9681.334043	4781.793333	1268.080078	-50.841759
9681.334043	4781.793333	1266.972656	-7.034970
9681.334043	4781.793333	1265.866211	48.210968
9681.334043	4781.793333	1264.759766	49.131390
9681.334043	4781.793333	1263.652344	-51.741917
9681.334043	4781.793333	1262.544922	-38.770237
9681.334043	4781.793333	1261.436523	22.691515
9681.334043	4781.793333	1260.329102	50.894535
9681.334043	4781.793333	1259.220703	-55.647644
9681.334043	4781.793333	1258.112305	21.058144
9681.334043	4781.793333	1257.003906	11.510701
9681.334043	4781.793333	1255.895508	28.843111
9681.334043	4781.793333	1254.786133	9.179049
9681.334043	4781.793333	1253.676758	-90.283302
9681.334043	4781.793333	1252.567383	-21.387920
9681.334043	4781.793333	1251.458008	-18.403568
9681.334043	4781.793333	1250.347656	-20.120108
9681.334043	4781.793333	1249.237305	-55.953667
9681.334043	4781.793333	1248.126953	-68.309731
9681.334043	4781.793333	1247.016602	-79.879448
9681.334043	4781.793333	1245.905273	-24.101559
9681.334043	4781.793333	1244.793945	54.400738
9681.334043	4781.793333	1243.682617	-10.261942
9681.334043	4781.793333	1242.571289	18.038111
9681.334043	4781.793333	1241.459961	-5.773547
9681.334043	4781.793333	1240.347656	111.879036
9681.334043	4781.793333	1239.235352	55.971241
9681.334043	4781.793333	1238.123047	35.480873
9681.334043	4781.793333	1237.009766	12.657248
9681.334043	4781.793333	1235.897461	41.903412
9681.334043	4781.793333	1234.784180	26.002901
9681.334043	4781.793333	1233.670898	49.214252
9681.334043	4781.793333	1232.556641	37.726749
9681.334043	4781.793333	1231.443359	-39.952614
9681.334043	4781.793333	1230.329102	-23.486042
9681.334043	4781.793333	1229.214844	-85.499802
9681.334043	4781.793333	1228.099609	30.521599
9681.334043	4781.793333	1226.985352	58.105106
9681.334043	4781.793333	1225.870117	-47.813770
9681.334043	4781.793333	1224.754883	-76.895988
9681.334043	4781.793333	1223.639648	58.639477
9681.334043	4781.793333	1222.523438	54.120159
9681.334043	4781.793333	1221.408203	19.550968
9681.334043	4781.793333	1220.291992	-3.705278
9681.334043	4781.793333	1219.174805	-40.545761
9681.334043	4781.793333	1218.058594	-5.223904
9681.334043	4781.793333	1216.941406	108.880959
9681.334043	4781.793333	1215.824219	-35.498634
9681.334043	4781.793333	1214.707031	-30.739853
9681.334043	4781.793333	1213.589844	-48.690575
9681.334043	4781.793333	1212.471680	-6.453888
9681.334043	4781.793333	1211.353516	-2.430562
9681.334043	4781.793333	1210.235352	9.627227
9681.334043	4781.793333	1209.117188	-51.649395
9681.334043	4781.793333	1207.998047	-59.369846
9681.334043	4781.793333	1206.878906	32.354641
9681.334043	4781.793333	1205.759766	51.668865
9681.334043	4781.793333	1204.640625	67.158539
9681.334043	4781.793333	1203.520508	112.501862
9681.334043	4781.793333	1202.401367	-5.876972
9681.334043	4781.793333	1201.281250	49.690670
9681.334043	4781.793333	1200.160156	-106.502937
9681.334043	4781.793333	1199.040039	-15.800714
9681.334043	4781.793333	1197.918945	163.587082
9681.334043	4781.793333	1196.797852	81.766006
9681.334043	4781.793333	1195.676758	-38.251976
9681.334043	4781.793333	1194.555664	40.361546
9681.334043	4781.793333	1193.433594	33.857048
9681.334043	4781.793333	1192.311523	-43.386982
9681.334043	4781.793333	1191.189453	-11.669101
9681.334043	4781.793333	1190.066406	83.507759
9681.334043	4781.793333	1188.944336	86.401749
9681.334043	4781.793333	1187.821289	-36.532814
9681.334043	4781.793333	1186.698242	-61.102509
9681.334043	4781.793333	1185.574219	-26.862022
9681.334043	4781.793333	1184.451172	-9.748518
9681.334043	4781.793333	1183.327148	60.289009
9681.334043	4781.793333	1182.203125	-4.989616
9681.334043	4781.793333	1181.078125	-23.348059
9681.334043	4781.793333	1179.954102	9.889317
9681.334043	4781.793333	1178.829102	-18.158131
9681.334043	4781.793333	1177.704102	-53.268166
9681.334043	4781.793333	1176.579102	-12.888258
9681.334043	4781.793333	1175.453125	10.167143
9681.334043	4781.793333	1174.327148	41.278969
9681.334043	4781.793333	1173.201172	-77.100342
9681.334043	4781.793333	1172.075195	-97.541794
9681.334043	4781.793333	1170.949219	-19.146170
9681.334043	4781.793333	1169.822266	-44.311428
9681.334043	4781.793333	1168.695313	-39.116573
9681.334043	4781.793333	1167.568359	-32.848434
9681.334043	4781.793333	1166.440430	-54.793144
9681.334043	4781.793333	1165.313477	-100.339943
9681.334043	4781.793333	1164.185547	-235.694229
9681.334043	4781.793333	1163.057617	-98.084419
9681.334043	4781.793333	1161.928711	-24.943127
9681.334043	4781.793333	1160.800781	-21.032623
9681.334043	4781.793333	1159.671875	-162.760468
9681.334043	4781.793333	1158.541992	-36.419342
9681.334043	4781.793333	1157.413086	-35.381340
9681.334043	4781.793333	1156.283203	24.720366
9681.334043	4781.793333	1155.154297	126.307167
9681.334043	4781.793333	1154.023438	50.483799
9681.334043	4781.793333	1152.893555	-9.128280
9681.334043	4781.793333	1151.763672	184.343460
9681.334043	4781.793333	1150.632813	-2.097147
9681.334043	4781.793333	1149.501953	-11.157917
9681.334043	4781.793333	1148.370117	58.236763
9681.334043	4781.793333	1147.239258	6.330630
9681.334043	4781.793333	1146.107422	95.659370
9681.334043	4781.793333	1144.975586	65.318405
9681.334043	4781.793333	1143.843750	11.280711
9681.334043	4781.793333	1142.710938	-29.202829
9681.334043	4781.793333	1141.578125	85.089691
9681.334043	4781.793333	1140.445313	182.990143
9681.334043	4781.793333	1139.312500	128.258606
9681.334043	4781.793333	1138.178711	9.310498
9681.334043	4781.793333	1137.045898	47.332561
9681.334043	4781.793333	1135.912109	10.913111
9681.334043	4781.793333	1134.777344	-38.900669
9681.334043	4781.793333	1133.643555	-16.996220
9681.334043	4781.793333	1132.508789	154.370026
9681.334043	4781.793333	1131.374023	117.110451
9681.334043	4781.793333	1130.239258	81.675125
9681.334043	4781.793333	1129.104492	57.919849
9681.334043	4781.793333	1127.968750	167.729218
9681.334043	4781.793333	1126.833008	154.789597
9681.334043	4781.793333	1125.697266	30.956823
9681.334043	4781.793333	1124.560547	154.220428
9681.334043	4781.793333	1123.424805	219.708298
9681.334043	4781.793333	1122.288086	-17.207254
9681.334043	4781.793333	1121.151367	60.665081
9681.334043	4781.793333	1120.013672	181.066788
9681.334043	4781.793333	1118.876953	15.956856
9681.334043	4781.793333	1117.739258	183.326691
9681.334043	4781.793333	1116.601563	183.041962
9681.334043	4781.793333	1115.462891	135.803116
9681.334043	4781.793333	1114.324219	-40.547127
9681.334043	4781.793333	1113.186523	76.323769
9681.334043	4781.793333	1112.046875	4.874264
9681.334043	4781.793333	1110.908203	3.308247
9681.334043	4781.793333	1109.769531	69.474098
9681.334043	4781.793333	1108.629883	148.970154
9681.334043	4781.793333	1107.490234	161.203659
9681.334043	4781.793333	1106.349609	28.406761
9681.334043	4781.793333	1105.209961	116.857529
9681.334043	4781.793333	1104.069336	138.911423
9681.334043	4781.793333	1102.928711	27.575352
9681.334043	4781.793333	1101.787109	107.516945
9681.334043	4781.793333	1100.646484	142.011459
9681.334043	4781.793333	1099.504883	34.730175
9681.334043	4781.793333	1098.363281	178.997940
9681.334043	4781.793333	1097.221680	165.293167
9681.334043	4781.793333	1096.079102	-22.538826
9681.334043	4781.793333	1094.936523	-70.838699
9681.334043	4781.793333	1093.793945	50.895420
9681.334043	4781.793333	1092.651367	124.310394
9681.334043	4781.793333	1091.507813	178.128952
9681.334043	4781.793333	1090.364258	14.234615
9681.334043	4781.793333	1089.220703	190.575058
9681.334043	4781.793333	1088.077148	103.654076
9681.334043	4781.793333	1086.933594	177.998962
9681.334043	4781.793333	1085.789063	147.051117
9681.334043	4781.793333	1084.644531	234.703888
9681.334043	4781.793333	1083.499023	162.915298
9681.334043	4781.793333	1082.354492	-47.736271
9681.334043	4781.793333	1081.208984	-6.227825
9681.334043	4781.793333	1080.063477	49.697334
9681.334043	4781.793333	1078.917969	-48.965740
9681.334043	4781.793333	1077.771484	134.041672
9681.334043	4781.793333	1076.625977	120.301025
9681.334043	4781.793333	1075.479492	70.566170
9681.334043	4781.793333	1074.332031	107.444420
9681.334043	4781.793333	1073.185547	174.894760
9681.334043	4781.793333	1072.038086	79.872124
9681.334043	4781.793333	1070.890625	187.075226
9681.334043	4781.793333	1069.743164	59.096790
9681.334043	4781.793333	1068.594727	45.545059
9681.334043	4781.793333	1067.447266	106.926514
9681.334043	4781.793333	1066.298828	165.707214
9681.334043	4781.793333	1065.149414	-31.003550
9681.334043	4781.793333	1064.000977	-2.787596
9681.334043	4781.793333	1062.851563	117.349380
9681.334043	4781.793333	1061.702148	69.521729
9681.334043	4781.793333	1060.552734	-25.224680
9681.334043	4781.793333	1059.402344	113.997604
9681.334043	4781.793333	1058.252930	150.174789
9681.334043	4781.793333	1057.102539	116.151634
9681.334043	4781.793333	1055.951172	34.281590
9681.334043	4781.793333	1054.800781	85.957184
9681.334043	4781.793333	1053.649414	95.763351
9681.334043	4781.793333	1052.498047	106.906364
9681.334043	4781.793333	1051.346680	72.984344
9681.334043	4781.793333	1050.194336	116.622459
9681.334043	4781.793333	1049.042969	-67.961922
9681.334043	4781.793333	1047.890625	35.277935
9681.334043	4781.793333	1046.738281	76.940468
9681.334043	4781.793333	1045.584961	4.805078
9681.334043	4781.793333	1044.431641	129.200714
9681.334043	4781.793333	1043.278320	-27.132393
9681.334043	4781.793333	1042.125000	6.432699
9681.334043	4781.793333	1040.971680	19.074701
9681.334043	4781.793333	1039.817383	58.349823
9681.334043	4781.793333	1038.663086	-31.975418
9681.334043	4781.793333	1037.508789	-35.014297
9681.334043	4781.793333	1036.353516	32.610153
9681.334043	4781.793333	1035.198242	145.982376
9681.334043	4781.793333	1034.042969	5.843106
9681.334043	4781.793333	1032.887695	-38.752480
9681.334043	4781.793333	1031.732422	249.029617
9681.334043	4781.793333	1030.576172	199.725021
9681.334043	4781.793333	1029.419922	-64.015854
9681.334043	4781.793333	1028.263672	-20.415152
9681.334043	4781.793333	1027.106445	15.024126
9681.334043	4781.793333	1025.949219	162.108215
9681.334043	4781.793333	1024.792969	49.095081
9681.334043	4781.793333	1023.634766	202.241714
9681.334043	4781.793333	1022.477539	61.824368
9681.334043	4781.793333	1021.319336	92.643097
9681.334043	4781.793333	1020.161133	7.939278
9681.334043	4781.793333	1019.002930	19.521042
9681.334043	4781.793333	1017.843750	83.114304
9681.334043	4781.793333	1016.684570	124.099648
9681.334043	4781.793333	1015.525391	-31.320753
9681.334043	4781.793333	1014.366211	97.956177
9681.334043	4781.793333	1013.207031	91.461250
9681.334043	4781.793333	1012.046875	-128.784775
9681.334043	4781.793333	1010.886719	-6.282572
9681.334043	4781.793333	1009.726563	14.881953
9681.334043	4781.793333	1008.565430	49.320370
9681.334043	4781.793333	1007.404297	92.199997
9681.334043	4781.793333	1006.243164	73.386604
9681.334043	4781.793333	1005.082031	-9.653440
9681.334043	4781.793333	1003.920898	-2.679851
9681.334043	4781.793333	1002.758789	98.488220
9681.334043	4781.793333	1001.596680	34.077732
9681.334043	4781.793333	1000.433594	110.234344
9681.334043	4781.793333	999.271484	-27.713951
9681.334043	4781.793333	998.108398	35.931320
9681.334043	4781.793333	996.945313	181.016327
9681.334043	4781.793333	995.782227	64.064568
9681.334043	4781.793333	994.618164	-67.809113
9681.334043	4781.793333	993.454102	-61.654503
9681.334043	4781.793333	992.290039	-34.130711
9681.334043	4781.793333	991.125977	50.289669
9681.334043	4781.793333	989.960938	71.131126
9681.334043	4781.793333	988.796875	-4.168770
9681.334043	4781.793333	987.630859	45.333843
9681.334043	4781.793333	986.465820	70.749954
9681.334043	4781.793333	985.300781	74.804230
9681.334043	4781.793333	984.134766	-36.049717
9681.334043	4781.793333	982.968750	86.378677
9681.334043	4781.793333	981.801758	28.745649
9681.334043	4781.793333	980.635742	-54.485649
9681.334043	4781.793333	979.468750	-43.678612
9681.334043	4781.793333	978.301758	1.425240
9681.334043	4781.793333	977.133789	-109.933914
9681.334043	4781.793333	975.966797	-22.466160
9681.334043	4781.793333	974.798828	174.408859
9681.334043	4781.793333	973.630859	-25.161648
9681.334043	4781.793333	972.461914	-21.110882
9681.334043	4781.793333	971.293945	21.386805
9681.334043	4781.793333	970.125000	74.528389
9681.334043	4781.793333	968.956055	-122.959282
9681.334043	4781.793333	967.786133	-14.255062
9681.334043	4781.793333	966.617188	68.939453
9681.334043	4781.793333	965.447266	-37.990856
9681.334043	4781.793333	964.276367	-83.792999
9681.334043	4781.793333	963.106445	64.912552
9681.334043	4781.793333	961.935547	20.101435
9681.334043	4781.793333	960.764648	-7.789956
9681.334043	4781.793333	959.593750	-29.784466
9681.334043	4781.793333	958.422852	-87.672035
9681.334043	4781.793333	957.250977	116.747322
9681.334043	4781.793333	956.079102	198.830933
9681.334043	4781.793333	954.907227	60.099426
9681.334043	4781.793333	953.734375	-46.707714
9681.334043	4781.793333	952.562500	-52.020344
9681.334043	4781.793333	951.389648	-7.555379
9681.334043	4781.793333	950.215820	-96.997314
9681.334043	4781.793333	949.042969	52.878838
9681.334043	4781.793333	947.869141	85.653458
9681.334043	4781.793333	946.695313	25.305077
9681.334043	4781.793333	945.521484	-11.737494
9681.334043	4781.793333	944.346680	-63.564411
9681.334043	4781.793333	943.172852	68.733971
9681.334043	4781.793333	941.998047	165.946442
9681.334043	4781.793333	940.822266	79.142441
9681.334043	4781.793333	939.647461	120.728722
9681.334043	4781.793333	938.471680	37.028713
9681.334043	4781.793333	937.295898	66.927246
9681.334043	4781.793333	936.119141	26.928347
9681.334043	4781.793333	934.943359	100.701546
9681.334043	4781.793333	933.766602	238.652237
9681.334043	4781.793333	932.589844	175.245346
9681.334043	4781.793333	931.413086	167.179749
9681.334043	4781.793333	930.235352	153.375916
9681.334043	4781.793333	929.057617	-50.167477
9681.334043	4781.793333	927.879883	166.513046
9681.334043	4781.793333	926.702148	15.497705
9681.334043	4781.793333	925.523438	112.479874
9681.334043	4781.793333	924.344727	11.099386
9681.334043	4781.793333	923.166016	46.811916
9681.334043	4781.793333	921.987305	-95.349709
9681.334043	4781.793333	920.807617	-68.396217
9681.334043	4781.793333	919.627930	-66.755150
9681.334043	4781.793333	919.497070	40.322033
9681.334043	4781.793333	918.331055	-235.822159
9681.334043	4781.793333	917.165039	155.241699
9681.334043	4781.793333	915.999023	123.822769
9681.334043	4781.793333	914.833008	57.465599
9681.334043	4781.793333	913.666016	-90.388435
9681.334043	4781.793333	912.499023	-37.348473
9681.334043	4781.793333	911.332031	-83.282578
9681.334043	4781.793333	910.165039	-47.737995
9681.334043	4781.793333	908.997070	133.234909
9681.334043	4781.793333	907.830078	180.340195
9681.334043	4781.793333	906.661133	-16.831757
9681.334043	4781.793333	905.493164	44.808083
9681.334043	4781.793333	904.325195	1.778189
9681.334043	4781.793333	903.156250	-15.085596
9681.334043	4781.793333	901.987305	37.780983
9681.334043	4781.793333	900.818359	-118.527733
9681.334043	4781.793333	899.648438	111.484718
9681.334043	4781.793333	898.478516	71.358696
9681.334043	4781.793333	897.308594	83.497116
9681.334043	4781.793333	896.138672	34.673031
9681.334043	4781.793333	894.968750	-11.235525
9681.334043	4781.793333	893.797852	73.427551
9681.334043	4781.793333	892.626953	117.439926
9681.334043	4781.793333	891.456055	51.225533
9681.334043	4781.793333	890.284180	98.114281
9681.334043	4781.793333	889.113281	78.301598
9681.334043	4781.793333	887.941406	9.221637
9681.334043	4781.793333	886.768555	-25.061567
9681.334043	4781.793333	885.596680	120.284164
9681.334043	4781.793333	884.423828	28.050844
9681.334043	4781.793333	883.250977	121.190018
9681.334043	4781.793333	882.078125	34.774521
9681.334043	4781.793333	880.905273	75.758545
9681.334043	4781.793333	879.731445	-39.563210
9681.334043	4781.793333	878.557617	99.792557
9681.334043	4781.793333	877.383789	42.363026
9681.334043	4781.793333	876.209961	8.091160
9681.334043	4781.793333	875.035156	-147.625336
9681.334043	4781.793333	873.860352	-5.488209
9681.334043	4781.793333	872.685547	9.399092
9681.334043	4781.793333	871.510742	73.406281
9681.334043	4781.793333	870.334961	21.806530
9681.334043	4781.793333	869.159180	-18.221041
9681.334043	4781.793333	867.983398	-52.459564
9681.334043	4781.793333	866.807617	-153.104767
9681.334043	4781.793333	865.630859	-51.616405
9681.334043	4781.793333	864.454102	-59.860275
9681.334043	4781.793333	863.277344	-96.963264
9681.334043	4781.793333	862.100586	50.603508
9681.334043	4781.793333	860.922852	59.641987
9681.334043	4781.793333	859.745117	22.526609
9681.334043	4781.793333	858.567383	-109.733276
9681.334043	4781.793333	857.389648	-89.147392
9681.334043	4781.793333	856.210938	0.603790
9681.334043	4781.793333	855.032227	-56.654121
9681.334043	4781.793333	853.853516	-7.289722
9681.334043	4781.793333	852.674805	73.737076
9681.334043	4781.793333	851.495117	154.728683
9681.334043	4781.793333	850.315430	-55.134296
9681.334043	4781.793333	849.135742	-0.065204
9681.334043	4781.793333	847.956055	72.247047
9681.334043	4781.793333	846.775391	43.810898
9681.334043	4781.793333	845.595703	41.275616
9681.334043	4781.793333	844.415039	70.380188
9681.334043	4781.793333	843.233398	-35.693707
9681.334043	4781.793333	842.052734	96.917076
9681.334043	4781.793333	840.871094	-20.623199
9681.334043	4781.793333	839.689453	-11.659801
9681.334043	4781.793333	838.506836	100.742928
9681.334043	4781.793333	837.325195	66.578995
9681.334043	4781.793333	836.142578	130.084427
9681.334043	4781.793333	834.959961	64.334854
9681.334043	4781.793333	833.777344	-61.683372
9681.334043	4781.793333	832.593750	70.694382
9681.334043	4781.793333	831.410156	-112.676460
9681.334043	4781.793333	830.226563	33.998055
9681.334043	4781.793333	829.042969	28.566101
9681.334043	4781.793333	827.858398	77.629784
9681.334043	4781.793333	826.673828	34.908306
9681.334043	4781.793333	825.489258	38.073544
9681.334043	4781.793333	824.304688	110.027359
9681.334043	4781.793333	823.120117	98.841049
9681.334043	4781.793333	821.934570	27.488779
9681.334043	4781.793333	820.749023	-38.108112
9681.334043	4781.793333	819.562500	-129.455444
9681.334043	4781.793333	818.376953	-46.100178
9681.334043	4781.793333	817.190430	60.121330
9681.334043	4781.793333	816.003906	146.260300
9681.334043	4781.793333	814.817383	52.077477
9681.334043	4781.793333	813.629883	221.149033
9681.334043	4781.793333	812.442383	-116.154472
9681.334043	4781.793333	811.254883	-98.697304
9681.334043	4781.793333	810.067383	127.477058
9681.334043	4781.793333	808.878906	76.263626
9681.334043	4781.793333	807.690430	-72.107178
9681.334043	4781.793333	806.501953	-40.396599
9681.334043	4781.793333	805.313477	-40.128605
9681.334043	4781.793333	804.124023	22.977060
9681.334043	4781.793333	802.934570	37.505802
9681.334043	4781.793333	801.745117	169.085999
9681.334043	4781.793333	800.555664	40.844585
9681.334043	4781.793333	799.365234	41.082764
9681.334043	4781.793333	798.175781	38.462620
9681.334043	4781.793333	796.985352	61.516811
9681.334043	4781.793333	795.793945	-69.459793
9681.334043	4781.793333	794.603516	87.625557
9681.334043	4781.793333	793.412109	-17.649591
9681.334043	4781.793333	792.220703	-63.025990
9681.334043	4781.793333	791.028320	-54.239071
9681.334043	4781.793333	789.836914	-82.500763
9681.334043	4781.793333	788.644531	25.981794
9681.334043	4781.793333	787.452148	-7.987237
9681.334043	4781.793333	786.258789	151.682861
9681.334043	4781.793333	785.066406	9.513087
9681.334043	4781.793333	783.873047	-141.139771
9681.334043	4781.793333	782.679688	-21.392921
9681.334043	4781.793333	781.485352	189.344315
9681.334043	4781.793333	780.291992	87.092484
9681.334043	4781.793333	779.097656	-71.998703
9681.334043	4781.793333	777.903320	64.678635
9681.334043	4781.793333	776.708008	-60.236485
9681.334043	4781.793333	775.512695	-247.631775
9681.334043	4781.793333	774.318359	-88.284119
9681.334043	4781.793333	773.122070	85.199249
9681.334043	4781.793333	771.926758	105.224220
9681.334043	4781.793333	770.730469	-96.266579
9681.334043	4781.793333	769.534180	37.346943
9681.334043	4781.793333	768.337891	102.773193
9681.334043	4781.793333	767.141602	80.188828
9681.334043	4781.793333	765.944336	80.308495
9681.334043	4781.793333	764.747070	100.280609
9681.334043	4781.793333	763.549805	9.625592
9681.334043	4781.793333	762.351563	128.842239
9681.334043	4781.793333	761.154297	103.414055
9681.334043	4781.793333	759.956055	-12.712024
9681.334043	4781.793333	758.757813	-4.104359
9681.334043	4781.793333	757.558594	157.492661
9681.334043	4781.793333	756.359375	115.061462
9681.334043	4781.793333	755.160156	75.473518
9681.334043	4781.793333	753.960938	120.841011
9681.334043	4781.793333	752.761719	89.748299
9681.334043	4781.793333	751.561523	169.046158
9681.334043	4781.793333	750.361328	236.985107
9681.334043	4781.793333	749.160156	109.677162
9681.334043	4781.793333	747.959961	251.128876
9681.334043	4781.793333	746.758789	211.524338
9681.334043	4781.793333	745.557617	211.512512
9681.334043	4781.793333	744.356445	234.107437
9681.334043	4781.793333	743.154297	41.894226
9681.334043	4781.793333	741.952148	22.116083
9681.334043	4781.793333	740.750000	19.288507
9681.334043	4781.793333	739.547852	126.608139
9681.334043	4781.793333	738.344727	27.733290
9681.334043	4781.793333	737.142578	58.761452
9681.334043	4781.793333	735.939453	154.690063
9681.334043	4781.793333	734.735352	137.687393
9681.334043	4781.793333	733.532227	188.398361
9681.334043	4781.793333	732.328125	188.303238
9681.334043	4781.793333	731.124023	278.449493
9681.334043	4781.793333	729.918945	188.086716
9681.334043	4781.793333	728.714844	134.400375
9681.334043	4781.793333	727.509766	120.187561
9681.334043	4781.793333	726.303711	190.510147
9681.334043	4781.793333	725.098633	218.532150
9681.334043	4781.793333	723.892578	91.610214
9681.334043	4781.793333	722.686523	60.481792
9681.334043	4781.793333	721.480469	-66.374260
9681.334043	4781.793333	720.274414	68.608307
9681.334043	4781.793333	719.067383	138.792267
9681.334043	4781.793333	717.860352	124.521049
9681.334043	4781.793333	716.653320	84.925858
9681.334043	4781.793333	715.445313	48.148716
9681.334043	4781.793333	714.238281	-33.617382
9681.334043	4781.793333	713.030273	58.950844
9681.334043	4781.793333	711.821289	-11.561837
9681.334043	4781.793333	710.613281	106.232437
9681.334043	4781.793333	709.404297	-99.150719
9681.334043	4781.793333	708.195313	66.343620
9681.334043	4781.793333	706.986328	40.776337
9681.334043	4781.793333	705.776367	-80.262367
9681.334043	4781.793333	704.566406	-4.748293
9681.334043	4781.793333	703.356445	-16.288532
9681.334043	4781.793333	702.146484	-97.991158
9681.334043	4781.793333	700.935547	-148.810928
9681.334043	4781.793333	699.724609	41.606953
9681.334043	4781.793333	698.513672	44.035778
9681.334043	4781.793333	697.302734	80.095985
9681.334043	4781.793333	696.090820	-74.492424
9681.334043	4781.793333	694.878906	0.787021
9681.334043	4781.793333	693.666992	-89.301186
9681.334043	4781.793333	692.455078	-33.689331
9681.334043	4781.793333	691.242188	2.278567
9681.334043	4781.793333	690.029297	63.419331
9681.334043	4781.793333	688.816406	-32.263290
9681.334043	4781.793333	687.602539	-4.760316
9681.334043	4781.793333	686.389648	47.902489
9681.334043	4781.793333	685.175781	36.175358
9681.334043	4781.793333	683.960938	97.168938
9681.334043	4781.793333	682.747070	57.437630
9681.334043	4781.793333	681.532227	137.942825
9681.334043	4781.793333	680.317383	67.436485
9681.334043	4781.793333	679.102539	-22.621555
9681.334043	4781.793333	677.886719	-20.442142
9681.334043	4781.793333	676.670898	1.276061
9681.334043	4781.793333	675.455078	84.419144
9681.334043	4781.793333	674.239258	201.022110
9681.334043	4781.793333	673.022461	-11.902278
9681.334043	4781.793333	671.805664	160.466904
9681.334043	4781.793333	670.588867	42.495708
9681.334043	4781.793333	669.372070	-5.686095
9681.334043	4781.793333	668.154297	15.877054
9681.334043	4781.793333	666.936523	37.412888
9681.334043	4781.793333	665.718750	229.021362
9681.334043	4781.793333	664.500977	16.281958
9681.334043	4781.793333	663.282227	51.686802
9681.334043	4781.793333	662.063477	192.954895
9681.334043	4781.793333	660.844727	22.094431
9681.334043	4781.793333	659.625000	182.771332
9681.334043	4781.793333	658.405273	-113.376404
9681.334043	4781.793333	657.185547	-22.386974
9681.334043	4781.793333	655.965820	15.653084
9681.334043	4781.793333	654.745117	114.888657
9681.334043	4781.793333	653.525391	161.192719
9681.334043	4781.793333	652.303711	293.701263
9681.334043	4781.793333	651.083008	100.703880
9681.334043	4781.793333	649.861328	5.098282
9681.334043	4781.793333	648.640625	59.649181
9681.334043	4781.793333	647.417969	39.105202
9681.334043	4781.793333	646.196289	-0.904044
9681.334043	4781.793333	644.973633	114.680679
9681.334043	4781.793333	643.750977	110.745140
9681.334043	4781.793333	642.528320	12.361538
9681.334043	4781.793333	641.305664	100.041504
9681.334043	4781.793333	640.082031	43.302826
9681.334043	4781.793333	638.858398	230.818954
9681.334043	4781.793333	637.634766	85.236298
9681.334043	4781.793333	636.410156	133.902206
9681.334043	4781.793333	635.185547	41.061954
9681.334043	4781.793333	633.960938	45.303387
9681.334043	4781.793333	632.736328	2.387194
9681.334043	4781.793333	631.510742	98.070816
9681.334043	4781.793333	630.285156	157.663574
9681.334043	4781.793333	629.059570	128.541916
9681.334043	4781.793333	627.833984	118.802963
9681.334043	4781.793333	626.607422	136.744141
9681.334043	4781.793333	625.380859	38.353584
9681.334043	4781.793333	624.154297	-26.794514
9681.334043	4781.793333	622.927734	148.875031
9681.334043	4781.793333	621.700195	141.802170
9681.334043	4781.793333	620.472656	82.143082
9681.334043	4781.793333	619.245117	11.422668
9681.334043	4781.793333	618.016602	37.506638
9681.334043	4781.793333	616.788086	174.158157
9681.334043	4781.793333	615.559570	89.576462
9681.334043	4781.793333	614.331055	137.673187
9681.334043	4781.793333	613.101563	155.332062
9681.334043	4781.793333	611.872070	181.249924
9681.334043	4781.793333	610.642578	-33.165462
9681.334043	4781.793333	609.413086	28.638170
9681.334043	4781.793333	608.182617	13.087963
9681.334043	4781.793333	606.952148	8.564446
9681.334043	4781.793333	605.721680	-1.498245
9681.334043	4781.793333	604.491211	79.474159
9681.334043	4781.793333	603.259766	77.633362
9681.334043	4781.793333	602.028320	50.950314
9681.334043	4781.793333	600.796875	-3.316127
9681.334043	4781.793333	599.564453	19.608755
9681.334043	4781.793333	598.332031	72.820976
9681.334043	4781.793333	597.099609	1.987121
9681.334043	4781.793333	595.867188	-16.491833
9681.334043	4781.793333	594.633789	39.385345
9681.334043	4781.793333	593.400391	-28.705650
9681.334043	4781.793333	592.166992	49.135185
9681.334043	4781.793333	590.933594	146.191177
9681.334043	4781.793333	589.699219	130.348755
9681.334043	4781.793333	588.464844	-17.580545
9681.334043	4781.793333	587.230469	-66.433029
9681.334043	4781.793333	585.995117	-57.528820
9681.334043	4781.793333	584.760742	-7.401098
9681.334043	4781.793333	583.525391	34.437183
9681.334043	4781.793333	582.289063	150.448532
9681.334043	4781.793333	581.053711	87.772240
9681.334043	4781.793333	579.817383	-38.088604
9681.334043	4781.793333	578.581055	-29.320362
9681.334043	4781.793333	577.343750	-80.993225
9681.334043	4781.793333	576.107422	15.603513
9681.334043	4781.793333	574.870117	153.315140
9681.334043	4781.793333	573.631836	-24.667271
9681.334043	4781.793333	572.394531	-13.261825
9681.334043	4781.793333	571.156250	39.268787
9681.334043	4781.793333	569.917969	-23.435486
9681.334043	4781.793333	568.679688	53.718334
9681.334043	4781.793333	567.440430	-85.762375
9681.334043	4781.793333	566.202148	-33.332165
9681.334043	4781.793333	564.961914	10.835335
9681.334043	4781.793333	563.722656	172.778946
9681.334043	4781.793333	562.482422	126.455566
9681.334043	4781.793333	561.243164	-10.238172
9681.334043	4781.793333	560.001953	-42.846638
9681.334043	4781.793333	558.761719	-48.081806
9681.334043	4781.793333	557.520508	75.301704
9681.334043	4781.793333	556.279297	39.911800
9681.334043	4781.793333	555.038086	-58.399204
9681.334043	4781.793333	553.795898	-41.810043
9681.334043	4781.793333	552.554688	56.794376
9681.334043	4781.793333	551.311523	2.238624
9681.334043	4781.793333	550.069336	32.427685
9681.334043	4781.793333	548.826172	-2.998655
9681.334043	4781.793333	547.583984	21.686131
9681.334043	4781.793333	546.339844	27.222998
9681.334043	4781.793333	545.096680	30.014149
9681.334043	4781.793333	543.852539	-57.314377
9681.334043	4781.793333	542.608398	-16.315144
9681.334043	4781.793333	541.364258	-125.455627
9681.334043	4781.793333	540.119141	-8.081634
9681.334043	4781.793333	538.875000	-54.454754
9681.334043	4781.793333	537.628906	141.926529
9681.334043	4781.793333	536.383789	-35.375198
9681.334043	4781.793333	535.137695	-84.475227
9681.334043	4781.793333	533.892578	68.142754
9681.334043	4781.793333	532.645508	-136.315704
9681.334043	4781.793333	531.399414	125.210098
9681.334043	4781.793333	530.152344	86.972031
9681.334043	4781.793333	528.905273	-32.962250
9681.334043	4781.793333	527.658203	-73.891251
9681.334043	4781.793333	526.410156	-35.867374
9681.334043	4781.793333	525.163086	-8.754102
9681.334043	4781.793333	523.914063	-27.921209
9681.334043	4781.793333	522.666016	-128.701889
9681.334043	4781.793333	521.416992	-25.454243
9681.334043	4781.793333	520.167969	12.477828
9681.334043	4781.793333	518.918945	-101.863373
9681.334043	4781.793333	517.669922	39.346195
9681.334043	4781.793333	516.419922	169.616592
9681.334043	4781.793333	515.169922	101.484268
9681.334043	4781.793333	513.919922	-50.833668
9681.334043	4781.793333	512.668945	-97.174835
9681.334043	4781.793333	511.417969	8.552409
9681.334043	4781.793333	510.166992	-37.791782
9681.334043	4781.793333	508.916016	-29.838947
9681.334043	4781.793333	507.664063	-21.894997
9681.334043	4781.793333	506.412109	2.319205
9681.334043	4781.793333	505.160156	31.944071
9681.334043	4781.793333	503.907227	-87.594879
9681.334043	4781.793333	502.655273	-66.103439
9681.334043	4781.793333	501.402344	-14.808984
9681.334043	4781.793333	500.148438	-126.140953
9681.334043	4781.793333	498.895508	-47.765987
9681.334043	4781.793333	497.641602	-10.061397
9681.334043	4781.793333	496.387695	-21.123093
9681.334043	4781.793333	495.132813	-48.429424
9681.334043	4781.793333	493.878906	67.751862
9681.334043	4781.793333	492.624023	7.957475
9681.334043	4781.793333	491.368164	-0.401263
9681.334043	4781.793333	490.113281	7.476721
9681.334043	4781.793333	488.857422	110.014816
9681.334043	4781.793333	487.601563	109.750351
9681.334043	4781.793333	486.344727	22.969053
9681.334043	4781.793333	485.088867	-74.585678
9681.334043	4781.793333	483.832031	-4.549587
9681.334043	4781.793333	482.575195	-91.251122
9681.334043	4781.793333	481.317383	40.885910
9681.334043	4781.793333	480.059570	78.442200
9681.334043	4781.793333	478.801758	18.779118
9681.334043	4781.793333	477.543945	145.407928
9681.334043	4781.793333	476.285156	20.980465
9681.334043	4781.793333	475.027344	-38.631134
9681.334043	4781.793333	473.767578	52.855209
9681.334043	4781.793333	472.508789	47.204712
9681.334043	4781.793333	471.249023	-17.769789
9681.334043	4781.793333	469.989258	189.581558
9681.334043	4781.793333	468.729492	111.126801
9681.334043	4781.793333	467.469727	153.974213
9681.334043	4781.793333	466.208984	5.507846
9681.334043	4781.793333	464.948242	96.843292
9681.334043	4781.793333	463.686523	161.205872
9681.334043	4781.793333	462.425781	206.693573
9681.334043	4781.793333	461.164063	39.495003
9681.334043	4781.793333	459.901367	71.525879
9681.334043	4781.793333	458.639648	165.430954
9681.334043	4781.793333	457.376953	-9.728668
9681.334043	4781.793333	456.114258	-15.369381
9681.334043	4781.793333	454.851563	137.642670
9681.334043	4781.793333	453.587891	-40.097328
9681.334043	4781.793333	452.324219	75.213882
9681.334043	4781.793333	451.060547	15.796953
9681.334043	4781.793333	449.796875	112.229431
9681.334043	4781.793333	448.532227	20.583401
9681.334043	4781.793333	447.267578	60.562355
9681.334043	4781.793333	446.002930	92.461983
9681.334043	4781.793333	444.737305	124.338120
9681.334043	4781.793333	443.471680	-96.086334
9681.334043	4781.793333	442.206055	51.177544
9681.334043	4781.793333	440.940430	74.965302
9681.334043	4781.793333	439.673828	104.093300
9681.334043	4781.793333	438.407227	160.011810
9681.334043	4781.793333	437.140625	-3.942283
9681.334043	4781.793333	435.873047	59.986637
9681.334043	4781.793333	434.605469	72.956734
9681.334043	4781.793333	433.337891	69.829117
9681.334043	4781.793333	432.070313	133.649933
9681.334043	4781.793333	430.801758	221.523621
9681.334043	4781.793333	429.533203	167.434845
9681.334043	4781.793333	428.264648	-4.434232
9681.334043	4781.793333	426.996094	-2.295051
9681.334043	4781.793333	425.726563	203.168457
9681.334043	4781.793333	424.457031	146.354797
9681.334043	4781.793333	423.186523	266.054962
9681.334043	4781.793333	421.916992	185.127640
9681.334043	4781.793333	420.646484	141.628998
9681.334043	4781.793333	419.375977	87.423615
9681.334043	4781.793333	418.104492	67.942253
9681.334043	4781.793333	416.833008	77.818954
9681.334043	4781.793333	415.561523	71.624825
9681.334043	4781.793333	414.290039	137.493408
9681.334043	4781.793333	413.017578	75.131355
9681.334043	4781.793333	411.746094	103.507553
9681.334043	4781.793333	410.472656	142.492340
9681.334043	4781.793333	409.200195	-8.029368
9681.334043	4781.793333	407.926758	65.533745
9681.334043	4781.793333	406.653320	149.674667
9681.334043	4781.793333	405.379883	180.390091
9681.334043	4781.793333	404.105469	8.421884
9681.334043	4781.793333	402.831055	39.021168
9681.334043	4781.793333	401.556641	117.501717
9681.334043	4781.793333	400.282227	-38.566444
9681.334043	4781.793333	399.006836	-29.507517
9681.334043	4781.793333	397.731445	22.074430
9681.334043	4781.793333	396.456055	86.861885
9681.334043	4781.793333	395.179688	-29.470852
9681.334043	4781.793333	393.903320	29.795715
9681.334043	4781.793333	392.626953	67.655739
9681.334043	4781.793333	391.350586	-94.104279
9681.334043	4781.793333	390.073242	105.788330
9681.334043	4781.793333	388.795898	-13.581937
9681.334043	4781.793333	387.518555	196.618912
9681.334043	4781.793333	386.240234	7.946095
9681.334043	4781.793333	384.961914	82.293037
9681.334043	4781.793333	383.683594	132.571442
9681.334043	4781.793333	382.405273	206.599640
9681.334043	4781.793333	381.125977	97.230698
9681.334043	4781.793333	379.846680	157.677185
9681.334043	4781.793333	378.567383	125.049973
9681.334043	4781.793333	377.287109	73.703773
9681.334043	4781.793333	376.006836	-12.270555
9681.334043	4781.793333	374.726563	-98.372986
9681.334043	4781.793333	373.446289	136.278656
9681.334043	4781.793333	372.165039	12.708386
9681.334043	4781.793333	370.883789	-18.213829
9681.334043	4781.793333	369.602539	96.449356
9681.334043	4781.793333	368.320313	-19.660845
9681.334043	4781.793333	367.039063	-27.307655
9681.334043	4781.793333	365.755859	155.518799
9681.334043	4781.793333	364.473633	99.737755
9681.334043	4781.793333	363.190430	49.043484
9681.334043	4781.793333	361.907227	-7.157657
9681.334043	4781.793333	360.624023	42.271061
9681.334043	4781.793333	359.340820	-112.285774
9681.334043	4781.793333	358.056641	-84.532661
9681.334043	4781.793333	356.772461	48.718388
9681.334043	4781.793333	355.487305	17.706863
9681.334043	4781.793333	354.202148	34.002052
9681.334043	4781.793333	352.916992	-21.359215
9681.334043	4781.793333	351.631836	-26.799791
9681.334043	4781.793333	350.346680	-51.044514
9681.334043	4781.793333	349.060547	-17.508017
9681.334043	4781.793333	347.774414	-8.085413
9681.334043	4781.793333	346.487305	51.136757
9681.334043	4781.793333	345.200195	-82.691216
9681.334043	4781.793333	343.913086	-63.783188
9681.334043	4781.793333	342.625977	7.500273
9681.334043	4781.793333	341.338867	-37.688976
9681.334043	4781.793333	340.050781	-38.442120
9681.334043	4781.793333	338.762695	-71.245529
9681.334043	4781.793333	337.473633	51.042797
9681.334043	4781.793333	336.184570	75.333984
9681.334043	4781.793333	334.895508	-82.631630
9681.334043	4781.793333	333.606445	51.392826
9681.334043	4781.793333	332.317383	45.302872
9681.334043	4781.793333	331.027344	-11.315419
9681.334043	4781.793333	329.736328	-5.251368
9681.334043	4781.793333	328.446289	55.568394
9681.334043	4781.793333	327.155273	-81.530083
9681.334043	4781.793333	325.864258	-16.560081
9681.334043	4781.793333	324.573242	5.733363
9681.334043	4781.793333	323.281250	16.901171
9681.334043	4781.793333	321.989258	-174.963287
9681.334043	4781.793333	320.697266	45.292877
9681.334043	4781.793333	319.405273	38.830490
9681.334043	4781.793333	318.112305	-86.520065
9681.334043	4781.793333	316.819336	-191.470703
9681.334043	4781.793333	315.526367	-18.698093
9681.334043	4781.793333	314.232422	56.133293
9681.334043	4781.793333	312.938477	-92.909302
9681.334043	4781.793333	311.644531	195.635956
9681.334043	4781.793333	310.349609	50.351276
9681.334043	4781.793333	309.054688	108.956642
9681.334043	4781.793333	307.759766	137.884369
9681.334043	4781.793333	306.464844	21.763138
9681.334043	4781.793333	305.168945	54.250175
9681.334043	4781.793333	303.873047	119.927483
9681.334043	4781.793333	302.577148	127.039635
9681.334043	4781.793333	301.281250	159.434814
9681.334043	4781.793333	299.984375	251.097336
