#X		#Y		#Wave		#Intensity
10514.113298	5195.865000	1999.946289	87.050240
10514.113298	5195.865000	1998.981445	112.262978
10514.113298	5195.865000	1998.017578	-12.851137
10514.113298	5195.865000	1997.052734	122.673630
10514.113298	5195.865000	1996.088867	-33.817070
10514.113298	5195.865000	1995.124023	-31.337896
10514.113298	5195.865000	1994.159180	30.950150
10514.113298	5195.865000	1993.193359	14.325694
10514.113298	5195.865000	1992.228516	-88.589592
10514.113298	5195.865000	1991.262695	100.958977
10514.113298	5195.865000	1990.296875	-60.667900
10514.113298	5195.865000	1989.331055	-256.556854
10514.113298	5195.865000	1988.365234	176.330688
10514.113298	5195.865000	1987.398438	67.654335
10514.113298	5195.865000	1986.432617	8.777950
10514.113298	5195.865000	1985.465820	21.911373
10514.113298	5195.865000	1984.499023	153.978836
10514.113298	5195.865000	1983.532227	-74.598434
10514.113298	5195.865000	1982.565430	-6.282790
10514.113298	5195.865000	1981.597656	173.440567
10514.113298	5195.865000	1980.629883	64.317627
10514.113298	5195.865000	1979.662109	-22.298065
10514.113298	5195.865000	1978.694336	145.695206
10514.113298	5195.865000	1977.726563	143.493073
10514.113298	5195.865000	1976.758789	20.552073
10514.113298	5195.865000	1975.790039	-151.496460
10514.113298	5195.865000	1974.821289	2.437672
10514.113298	5195.865000	1973.852539	-1.383890
10514.113298	5195.865000	1972.883789	39.383652
10514.113298	5195.865000	1971.915039	28.528597
10514.113298	5195.865000	1970.945313	12.920261
10514.113298	5195.865000	1969.975586	81.306725
10514.113298	5195.865000	1969.005859	-106.509644
10514.113298	5195.865000	1968.036133	23.802956
10514.113298	5195.865000	1967.066406	-171.015335
10514.113298	5195.865000	1966.096680	48.241550
10514.113298	5195.865000	1965.125977	-156.074875
10514.113298	5195.865000	1964.155273	-22.815414
10514.113298	5195.865000	1963.184570	12.040854
10514.113298	5195.865000	1962.213867	15.008112
10514.113298	5195.865000	1961.242188	-124.653946
10514.113298	5195.865000	1960.271484	-18.080738
10514.113298	5195.865000	1959.299805	-31.989498
10514.113298	5195.865000	1958.328125	-43.328743
10514.113298	5195.865000	1957.356445	-2.918678
10514.113298	5195.865000	1956.384766	37.571972
10514.113298	5195.865000	1955.412109	-20.198376
10514.113298	5195.865000	1954.439453	-11.495605
10514.113298	5195.865000	1953.467773	260.235443
10514.113298	5195.865000	1952.495117	-13.516287
10514.113298	5195.865000	1951.521484	56.828300
10514.113298	5195.865000	1950.548828	-128.221527
10514.113298	5195.865000	1949.575195	-16.000278
10514.113298	5195.865000	1948.601563	-36.339191
10514.113298	5195.865000	1947.627930	-61.523277
10514.113298	5195.865000	1946.654297	50.797306
10514.113298	5195.865000	1945.680664	74.789879
10514.113298	5195.865000	1944.706055	-70.461548
10514.113298	5195.865000	1943.732422	54.204498
10514.113298	5195.865000	1942.757813	-76.188675
10514.113298	5195.865000	1941.783203	-105.964249
10514.113298	5195.865000	1940.807617	55.528706
10514.113298	5195.865000	1939.833008	126.301270
10514.113298	5195.865000	1938.857422	140.712326
10514.113298	5195.865000	1937.881836	0.781642
10514.113298	5195.865000	1936.906250	-121.925255
10514.113298	5195.865000	1935.930664	-55.972641
10514.113298	5195.865000	1934.955078	-41.453060
10514.113298	5195.865000	1933.978516	-31.818407
10514.113298	5195.865000	1933.001953	12.094892
10514.113298	5195.865000	1932.025391	31.527527
10514.113298	5195.865000	1931.048828	9.361860
10514.113298	5195.865000	1930.072266	212.289902
10514.113298	5195.865000	1929.094727	77.587646
10514.113298	5195.865000	1928.118164	52.988354
10514.113298	5195.865000	1927.140625	-98.750450
10514.113298	5195.865000	1926.163086	47.817451
10514.113298	5195.865000	1925.184570	-57.430134
10514.113298	5195.865000	1924.207031	40.186596
10514.113298	5195.865000	1923.228516	96.222260
10514.113298	5195.865000	1922.250000	-65.191132
10514.113298	5195.865000	1921.271484	-16.508492
10514.113298	5195.865000	1920.292969	32.141518
10514.113298	5195.865000	1919.314453	-153.629501
10514.113298	5195.865000	1918.334961	-56.184628
10514.113298	5195.865000	1917.355469	46.086010
10514.113298	5195.865000	1916.375977	84.852776
10514.113298	5195.865000	1915.396484	77.228470
10514.113298	5195.865000	1914.416992	-40.183815
10514.113298	5195.865000	1913.436523	135.078140
10514.113298	5195.865000	1912.457031	-77.448357
10514.113298	5195.865000	1911.476563	212.280731
10514.113298	5195.865000	1910.496094	253.254715
10514.113298	5195.865000	1909.515625	-3.126234
10514.113298	5195.865000	1908.534180	49.993755
10514.113298	5195.865000	1907.552734	64.084656
10514.113298	5195.865000	1906.572266	34.294342
10514.113298	5195.865000	1905.590820	43.443123
10514.113298	5195.865000	1904.608398	-37.528667
10514.113298	5195.865000	1903.626953	-21.140404
10514.113298	5195.865000	1902.644531	-89.976173
10514.113298	5195.865000	1901.663086	50.439022
10514.113298	5195.865000	1900.680664	54.522964
10514.113298	5195.865000	1899.698242	-50.894413
10514.113298	5195.865000	1898.714844	123.364059
10514.113298	5195.865000	1897.732422	-16.150978
10514.113298	5195.865000	1896.749023	-87.586372
10514.113298	5195.865000	1895.765625	98.605873
10514.113298	5195.865000	1894.782227	-53.106113
10514.113298	5195.865000	1893.798828	-131.915298
10514.113298	5195.865000	1892.814453	32.184525
10514.113298	5195.865000	1891.831055	128.169495
10514.113298	5195.865000	1890.846680	-52.755032
10514.113298	5195.865000	1889.862305	164.511139
10514.113298	5195.865000	1888.877930	44.238056
10514.113298	5195.865000	1887.892578	21.042189
10514.113298	5195.865000	1886.908203	12.364155
10514.113298	5195.865000	1885.922852	37.606224
10514.113298	5195.865000	1884.937500	57.939270
10514.113298	5195.865000	1883.952148	-26.066715
10514.113298	5195.865000	1882.965820	166.324722
10514.113298	5195.865000	1881.980469	67.684669
10514.113298	5195.865000	1880.994141	155.663086
10514.113298	5195.865000	1880.007813	42.421444
10514.113298	5195.865000	1879.021484	224.763229
10514.113298	5195.865000	1878.035156	101.759537
10514.113298	5195.865000	1877.047852	332.358551
10514.113298	5195.865000	1876.061523	-20.766317
10514.113298	5195.865000	1875.074219	209.666214
10514.113298	5195.865000	1874.086914	-116.779640
10514.113298	5195.865000	1873.098633	96.539497
10514.113298	5195.865000	1872.111328	157.284790
10514.113298	5195.865000	1871.123047	-178.800888
10514.113298	5195.865000	1870.135742	-280.188934
10514.113298	5195.865000	1869.147461	77.891647
10514.113298	5195.865000	1868.158203	-9.105193
10514.113298	5195.865000	1867.169922	-108.209122
10514.113298	5195.865000	1866.180664	53.705116
10514.113298	5195.865000	1865.192383	130.928406
10514.113298	5195.865000	1864.203125	41.361214
10514.113298	5195.865000	1863.213867	-67.550667
10514.113298	5195.865000	1862.223633	50.550568
10514.113298	5195.865000	1861.234375	129.921112
10514.113298	5195.865000	1860.244141	204.379028
10514.113298	5195.865000	1859.253906	47.032471
10514.113298	5195.865000	1858.263672	-6.533497
10514.113298	5195.865000	1857.273438	36.383373
10514.113298	5195.865000	1856.282227	154.017593
10514.113298	5195.865000	1855.291992	44.829159
10514.113298	5195.865000	1854.300781	-115.013847
10514.113298	5195.865000	1853.309570	267.645935
10514.113298	5195.865000	1852.317383	69.146355
10514.113298	5195.865000	1851.326172	-110.048264
10514.113298	5195.865000	1850.333984	190.307938
10514.113298	5195.865000	1849.342773	85.741997
10514.113298	5195.865000	1848.350586	152.190002
10514.113298	5195.865000	1847.357422	-5.418307
10514.113298	5195.865000	1846.365234	-52.251888
10514.113298	5195.865000	1845.372070	95.882896
10514.113298	5195.865000	1844.379883	-54.555737
10514.113298	5195.865000	1843.386719	-130.387024
10514.113298	5195.865000	1842.393555	-54.655178
10514.113298	5195.865000	1841.399414	-5.466158
10514.113298	5195.865000	1840.406250	-47.741230
10514.113298	5195.865000	1839.412109	244.207809
10514.113298	5195.865000	1838.417969	40.712933
10514.113298	5195.865000	1837.423828	111.282188
10514.113298	5195.865000	1836.429688	140.918732
10514.113298	5195.865000	1835.434570	-0.116486
10514.113298	5195.865000	1834.440430	-21.020514
10514.113298	5195.865000	1833.445313	63.721447
10514.113298	5195.865000	1832.450195	294.880157
10514.113298	5195.865000	1831.454102	136.918549
10514.113298	5195.865000	1830.458984	130.212204
10514.113298	5195.865000	1829.462891	82.654480
10514.113298	5195.865000	1828.466797	179.053436
10514.113298	5195.865000	1827.470703	66.628044
10514.113298	5195.865000	1826.474609	251.656891
10514.113298	5195.865000	1825.478516	182.337463
10514.113298	5195.865000	1824.481445	84.219307
10514.113298	5195.865000	1823.484375	321.741547
10514.113298	5195.865000	1822.487305	309.835114
10514.113298	5195.865000	1821.490234	204.418213
10514.113298	5195.865000	1820.493164	-39.980598
10514.113298	5195.865000	1819.495117	41.478016
10514.113298	5195.865000	1818.498047	-111.870277
10514.113298	5195.865000	1817.500000	48.509373
10514.113298	5195.865000	1816.500977	-143.188583
10514.113298	5195.865000	1815.502930	-128.981766
10514.113298	5195.865000	1814.504883	21.600925
10514.113298	5195.865000	1813.505859	-2.609234
10514.113298	5195.865000	1812.506836	-43.601341
10514.113298	5195.865000	1811.507813	-53.526531
10514.113298	5195.865000	1810.508789	27.390810
10514.113298	5195.865000	1809.508789	127.360695
10514.113298	5195.865000	1808.508789	12.082661
10514.113298	5195.865000	1807.508789	102.368454
10514.113298	5195.865000	1806.508789	30.068888
10514.113298	5195.865000	1805.508789	105.894135
10514.113298	5195.865000	1804.508789	88.480148
10514.113298	5195.865000	1803.507813	-103.331474
10514.113298	5195.865000	1802.506836	-27.654446
10514.113298	5195.865000	1801.505859	-66.652618
10514.113298	5195.865000	1800.504883	283.421295
10514.113298	5195.865000	1799.502930	-13.467293
10514.113298	5195.865000	1798.501953	50.034527
10514.113298	5195.865000	1797.500000	-20.134800
10514.113298	5195.865000	1796.498047	-30.686419
10514.113298	5195.865000	1795.496094	68.427711
10514.113298	5195.865000	1794.493164	26.780258
10514.113298	5195.865000	1793.491211	13.717630
10514.113298	5195.865000	1792.488281	-170.995941
10514.113298	5195.865000	1791.485352	-57.799953
10514.113298	5195.865000	1790.482422	57.695431
10514.113298	5195.865000	1789.478516	84.963058
10514.113298	5195.865000	1788.475586	-123.603424
10514.113298	5195.865000	1787.471680	1.238334
10514.113298	5195.865000	1786.467773	28.381054
10514.113298	5195.865000	1785.463867	107.840523
10514.113298	5195.865000	1784.459961	-10.301081
10514.113298	5195.865000	1783.455078	57.155415
10514.113298	5195.865000	1782.450195	-61.015297
10514.113298	5195.865000	1781.445313	-136.366791
10514.113298	5195.865000	1780.440430	-47.641094
10514.113298	5195.865000	1779.435547	12.479297
10514.113298	5195.865000	1778.429688	127.209953
10514.113298	5195.865000	1777.424805	113.517570
10514.113298	5195.865000	1776.418945	-38.037018
10514.113298	5195.865000	1775.413086	211.943192
10514.113298	5195.865000	1774.406250	-15.666243
10514.113298	5195.865000	1773.400391	25.142660
10514.113298	5195.865000	1772.393555	108.634544
10514.113298	5195.865000	1771.386719	-50.096191
10514.113298	5195.865000	1770.379883	-73.509415
10514.113298	5195.865000	1769.373047	-208.490753
10514.113298	5195.865000	1768.365234	62.264805
10514.113298	5195.865000	1767.358398	-184.260712
10514.113298	5195.865000	1766.350586	-120.033592
10514.113298	5195.865000	1765.342773	1.042726
10514.113298	5195.865000	1764.334961	74.617729
10514.113298	5195.865000	1763.326172	107.824379
10514.113298	5195.865000	1762.318359	-41.502449
10514.113298	5195.865000	1761.309570	-162.381119
10514.113298	5195.865000	1760.300781	110.014526
10514.113298	5195.865000	1759.291016	29.338800
10514.113298	5195.865000	1758.282227	-46.601482
10514.113298	5195.865000	1757.272461	-155.704865
10514.113298	5195.865000	1756.262695	149.467255
10514.113298	5195.865000	1755.252930	49.760639
10514.113298	5195.865000	1754.243164	49.440979
10514.113298	5195.865000	1753.233398	214.698761
10514.113298	5195.865000	1752.222656	-199.688934
10514.113298	5195.865000	1751.211914	-136.222794
10514.113298	5195.865000	1750.201172	-84.641052
10514.113298	5195.865000	1749.190430	-42.573544
10514.113298	5195.865000	1748.179688	-59.651089
10514.113298	5195.865000	1747.167969	-216.194427
10514.113298	5195.865000	1746.156250	-108.085938
10514.113298	5195.865000	1745.144531	-11.867569
10514.113298	5195.865000	1744.132813	-92.863518
10514.113298	5195.865000	1743.121094	0.878408
10514.113298	5195.865000	1742.108398	-2.257648
10514.113298	5195.865000	1741.095703	138.560944
10514.113298	5195.865000	1740.083008	78.682854
10514.113298	5195.865000	1739.070313	-40.199528
10514.113298	5195.865000	1738.057617	-281.750244
10514.113298	5195.865000	1737.043945	-37.357758
10514.113298	5195.865000	1736.030273	15.883944
10514.113298	5195.865000	1735.016602	36.058861
10514.113298	5195.865000	1734.002930	148.125992
10514.113298	5195.865000	1732.989258	179.977936
10514.113298	5195.865000	1731.974609	-219.457565
10514.113298	5195.865000	1730.959961	-8.573149
10514.113298	5195.865000	1729.945313	-61.628574
10514.113298	5195.865000	1728.930664	-77.019341
10514.113298	5195.865000	1727.916016	79.447914
10514.113298	5195.865000	1726.900391	19.224209
10514.113298	5195.865000	1725.885742	142.585220
10514.113298	5195.865000	1724.870117	79.943695
10514.113298	5195.865000	1723.853516	-43.891884
10514.113298	5195.865000	1722.837891	142.805542
10514.113298	5195.865000	1721.822266	-9.287506
10514.113298	5195.865000	1720.805664	-107.281731
10514.113298	5195.865000	1719.789063	-12.489339
10514.113298	5195.865000	1718.772461	-87.015808
10514.113298	5195.865000	1717.754883	136.911850
10514.113298	5195.865000	1716.738281	27.065012
10514.113298	5195.865000	1715.720703	88.710312
10514.113298	5195.865000	1714.703125	51.645077
10514.113298	5195.865000	1713.685547	12.207195
10514.113298	5195.865000	1712.667969	-121.170715
10514.113298	5195.865000	1711.649414	168.000916
10514.113298	5195.865000	1710.630859	88.542992
10514.113298	5195.865000	1709.612305	79.475037
10514.113298	5195.865000	1708.593750	-4.703917
10514.113298	5195.865000	1707.575195	-4.445050
10514.113298	5195.865000	1706.555664	-98.039230
10514.113298	5195.865000	1705.536133	174.145172
10514.113298	5195.865000	1704.516602	143.772202
10514.113298	5195.865000	1703.497070	326.663147
10514.113298	5195.865000	1702.477539	66.541679
10514.113298	5195.865000	1701.457031	265.694855
10514.113298	5195.865000	1700.437500	178.952774
10514.113298	5195.865000	1699.416992	-8.508857
10514.113298	5195.865000	1698.395508	-10.956727
10514.113298	5195.865000	1697.375000	-18.118166
10514.113298	5195.865000	1696.354492	222.799713
10514.113298	5195.865000	1695.333008	-86.381020
10514.113298	5195.865000	1694.311523	44.402283
10514.113298	5195.865000	1693.290039	109.594948
10514.113298	5195.865000	1692.267578	123.261131
10514.113298	5195.865000	1691.246094	-94.618088
10514.113298	5195.865000	1690.223633	31.229099
10514.113298	5195.865000	1689.201172	-18.328800
10514.113298	5195.865000	1688.178711	44.276588
10514.113298	5195.865000	1687.155273	113.820190
10514.113298	5195.865000	1686.132813	246.385010
10514.113298	5195.865000	1685.109375	54.181000
10514.113298	5195.865000	1684.085938	-63.258129
10514.113298	5195.865000	1683.062500	339.984650
10514.113298	5195.865000	1682.039063	220.124237
10514.113298	5195.865000	1681.014648	41.914822
10514.113298	5195.865000	1679.990234	267.433258
10514.113298	5195.865000	1678.965820	19.213770
10514.113298	5195.865000	1677.941406	200.253464
10514.113298	5195.865000	1676.916992	315.883423
10514.113298	5195.865000	1675.891602	221.568710
10514.113298	5195.865000	1674.866211	78.294487
10514.113298	5195.865000	1673.840820	270.675079
10514.113298	5195.865000	1672.815430	243.887329
10514.113298	5195.865000	1671.790039	142.515244
10514.113298	5195.865000	1670.763672	101.701447
10514.113298	5195.865000	1669.737305	158.684250
10514.113298	5195.865000	1668.710938	224.920761
10514.113298	5195.865000	1667.684570	104.843651
10514.113298	5195.865000	1666.658203	338.580933
10514.113298	5195.865000	1665.630859	262.660828
10514.113298	5195.865000	1664.603516	182.077652
10514.113298	5195.865000	1663.576172	266.657684
10514.113298	5195.865000	1662.548828	325.581696
10514.113298	5195.865000	1661.520508	344.905090
10514.113298	5195.865000	1660.493164	294.441071
10514.113298	5195.865000	1659.464844	362.502563
10514.113298	5195.865000	1658.436523	411.906403
10514.113298	5195.865000	1657.408203	426.398773
10514.113298	5195.865000	1656.378906	466.395294
10514.113298	5195.865000	1655.350586	638.742798
10514.113298	5195.865000	1654.321289	618.227417
10514.113298	5195.865000	1653.291992	588.395691
10514.113298	5195.865000	1652.261719	307.820404
10514.113298	5195.865000	1651.232422	582.029236
10514.113298	5195.865000	1650.202148	559.062988
10514.113298	5195.865000	1649.171875	278.544617
10514.113298	5195.865000	1648.141602	561.758362
10514.113298	5195.865000	1647.111328	640.741455
10514.113298	5195.865000	1646.080078	378.800964
10514.113298	5195.865000	1645.049805	466.988312
10514.113298	5195.865000	1644.018555	717.343079
10514.113298	5195.865000	1642.987305	522.633850
10514.113298	5195.865000	1641.955078	673.172302
10514.113298	5195.865000	1640.923828	443.728058
10514.113298	5195.865000	1639.891602	705.319946
10514.113298	5195.865000	1638.859375	772.269287
10514.113298	5195.865000	1637.827148	829.895691
10514.113298	5195.865000	1636.794922	894.409302
10514.113298	5195.865000	1635.761719	820.001526
10514.113298	5195.865000	1634.729492	782.616272
10514.113298	5195.865000	1633.696289	691.996521
10514.113298	5195.865000	1632.662109	807.211731
10514.113298	5195.865000	1631.628906	987.104431
10514.113298	5195.865000	1630.594727	1009.670349
10514.113298	5195.865000	1629.561523	842.659302
10514.113298	5195.865000	1628.527344	985.352234
10514.113298	5195.865000	1627.493164	825.266174
10514.113298	5195.865000	1626.458008	919.317017
10514.113298	5195.865000	1625.423828	997.140564
10514.113298	5195.865000	1624.388672	855.510620
10514.113298	5195.865000	1623.353516	1083.313599
10514.113298	5195.865000	1622.318359	1216.352539
10514.113298	5195.865000	1621.282227	947.719910
10514.113298	5195.865000	1620.247070	1253.729492
10514.113298	5195.865000	1619.210938	1215.832642
10514.113298	5195.865000	1618.174805	1288.634644
10514.113298	5195.865000	1617.137695	1204.552246
10514.113298	5195.865000	1616.101563	1452.496948
10514.113298	5195.865000	1615.064453	1460.561646
10514.113298	5195.865000	1614.027344	1480.116333
10514.113298	5195.865000	1612.990234	1416.677979
10514.113298	5195.865000	1611.953125	1549.063232
10514.113298	5195.865000	1610.916016	1492.487305
10514.113298	5195.865000	1609.877930	1422.075806
10514.113298	5195.865000	1608.839844	1669.412598
10514.113298	5195.865000	1607.801758	1619.655396
10514.113298	5195.865000	1606.763672	1634.334717
10514.113298	5195.865000	1605.724609	1747.922729
10514.113298	5195.865000	1604.685547	1670.476318
10514.113298	5195.865000	1603.646484	1622.937134
10514.113298	5195.865000	1602.607422	1890.466675
10514.113298	5195.865000	1601.568359	1847.448242
10514.113298	5195.865000	1600.528320	2004.417236
10514.113298	5195.865000	1599.489258	1883.192383
10514.113298	5195.865000	1598.449219	1996.378662
10514.113298	5195.865000	1597.408203	2307.079590
10514.113298	5195.865000	1596.368164	2231.723877
10514.113298	5195.865000	1595.327148	2027.746948
10514.113298	5195.865000	1594.287109	2205.012695
10514.113298	5195.865000	1593.246094	2033.214844
10514.113298	5195.865000	1592.204102	2038.191528
10514.113298	5195.865000	1591.163086	1655.314453
10514.113298	5195.865000	1590.121094	1944.830933
10514.113298	5195.865000	1589.079102	1646.945557
10514.113298	5195.865000	1588.037109	1837.683228
10514.113298	5195.865000	1586.995117	1425.236816
10514.113298	5195.865000	1585.953125	1324.732544
10514.113298	5195.865000	1584.910156	1453.458862
10514.113298	5195.865000	1583.867188	1529.403564
10514.113298	5195.865000	1582.824219	1195.153320
10514.113298	5195.865000	1581.781250	1381.042236
10514.113298	5195.865000	1580.737305	1395.047363
10514.113298	5195.865000	1579.693359	1138.812744
10514.113298	5195.865000	1578.649414	1345.143677
10514.113298	5195.865000	1577.605469	1379.696777
10514.113298	5195.865000	1576.561523	1235.706055
10514.113298	5195.865000	1575.516602	1398.361084
10514.113298	5195.865000	1574.472656	1284.130615
10514.113298	5195.865000	1573.427734	1423.808716
10514.113298	5195.865000	1572.381836	1211.233521
10514.113298	5195.865000	1571.336914	1108.484375
10514.113298	5195.865000	1570.291016	1597.809204
10514.113298	5195.865000	1569.246094	1392.150635
10514.113298	5195.865000	1568.200195	1175.123779
10514.113298	5195.865000	1567.153320	1485.899780
10514.113298	5195.865000	1566.107422	1346.576782
10514.113298	5195.865000	1565.060547	1319.186768
10514.113298	5195.865000	1564.013672	1426.508911
10514.113298	5195.865000	1562.966797	1410.507690
10514.113298	5195.865000	1561.919922	1533.725586
10514.113298	5195.865000	1560.872070	1659.158936
10514.113298	5195.865000	1559.825195	1583.774780
10514.113298	5195.865000	1558.777344	1453.658936
10514.113298	5195.865000	1557.729492	1385.160889
10514.113298	5195.865000	1556.680664	1670.089355
10514.113298	5195.865000	1555.632813	1371.317017
10514.113298	5195.865000	1554.583984	1387.176392
10514.113298	5195.865000	1553.535156	1348.334717
10514.113298	5195.865000	1552.486328	1407.471069
10514.113298	5195.865000	1551.436523	1375.454956
10514.113298	5195.865000	1550.387695	1350.289551
10514.113298	5195.865000	1549.337891	1259.089111
10514.113298	5195.865000	1548.288086	1247.601440
10514.113298	5195.865000	1547.238281	1333.986572
10514.113298	5195.865000	1546.187500	1247.379272
10514.113298	5195.865000	1545.136719	1238.160645
10514.113298	5195.865000	1544.086914	1399.562012
10514.113298	5195.865000	1543.035156	1269.770264
10514.113298	5195.865000	1541.984375	1246.912354
10514.113298	5195.865000	1540.933594	1178.597778
10514.113298	5195.865000	1539.881836	1314.866943
10514.113298	5195.865000	1538.830078	1257.922852
10514.113298	5195.865000	1537.778320	1437.298462
10514.113298	5195.865000	1536.725586	1484.844604
10514.113298	5195.865000	1535.673828	1434.727661
10514.113298	5195.865000	1534.621094	1418.686890
10514.113298	5195.865000	1533.568359	1384.496582
10514.113298	5195.865000	1532.515625	1411.611694
10514.113298	5195.865000	1531.461914	1552.180786
10514.113298	5195.865000	1530.409180	1570.191650
10514.113298	5195.865000	1529.355469	1325.053467
10514.113298	5195.865000	1528.301758	1324.967285
10514.113298	5195.865000	1527.247070	1456.399536
10514.113298	5195.865000	1526.193359	1449.506348
10514.113298	5195.865000	1525.138672	1361.018677
10514.113298	5195.865000	1524.083984	1236.318237
10514.113298	5195.865000	1523.029297	1324.662354
10514.113298	5195.865000	1521.974609	1195.513794
10514.113298	5195.865000	1520.918945	998.475525
10514.113298	5195.865000	1519.863281	1098.169556
10514.113298	5195.865000	1518.807617	1086.904175
10514.113298	5195.865000	1517.751953	1028.126221
10514.113298	5195.865000	1516.696289	747.607056
10514.113298	5195.865000	1515.639648	770.398987
10514.113298	5195.865000	1514.583008	820.347473
10514.113298	5195.865000	1513.526367	908.744324
10514.113298	5195.865000	1512.469727	759.690674
10514.113298	5195.865000	1511.412109	1004.094604
10514.113298	5195.865000	1510.355469	1087.942993
10514.113298	5195.865000	1509.297852	1164.991577
10514.113298	5195.865000	1508.240234	1104.202759
10514.113298	5195.865000	1507.181641	894.354919
10514.113298	5195.865000	1506.124023	960.173035
10514.113298	5195.865000	1505.065430	1014.689331
10514.113298	5195.865000	1504.006836	1005.994202
10514.113298	5195.865000	1502.948242	760.316833
10514.113298	5195.865000	1501.888672	823.937622
10514.113298	5195.865000	1500.830078	761.213013
10514.113298	5195.865000	1499.770508	475.197113
10514.113298	5195.865000	1498.710938	532.156006
10514.113298	5195.865000	1497.650391	670.292847
10514.113298	5195.865000	1496.590820	413.864410
10514.113298	5195.865000	1495.530273	425.801025
10514.113298	5195.865000	1494.469727	349.871460
10514.113298	5195.865000	1493.409180	287.523712
10514.113298	5195.865000	1492.348633	274.796539
10514.113298	5195.865000	1491.287109	293.631714
10514.113298	5195.865000	1490.225586	355.280334
10514.113298	5195.865000	1489.164063	171.533188
10514.113298	5195.865000	1488.102539	-48.120804
10514.113298	5195.865000	1487.041016	-51.596939
10514.113298	5195.865000	1485.978516	172.216644
10514.113298	5195.865000	1484.916016	112.553307
10514.113298	5195.865000	1483.853516	-55.064777
10514.113298	5195.865000	1482.791016	-123.592972
10514.113298	5195.865000	1481.727539	201.381531
10514.113298	5195.865000	1480.664063	-98.600449
10514.113298	5195.865000	1479.600586	-90.542137
10514.113298	5195.865000	1478.537109	-71.183075
10514.113298	5195.865000	1477.473633	62.751835
10514.113298	5195.865000	1476.409180	-18.891762
10514.113298	5195.865000	1475.344727	-6.084995
10514.113298	5195.865000	1474.280273	325.432587
10514.113298	5195.865000	1473.215820	50.958534
10514.113298	5195.865000	1472.151367	34.678104
10514.113298	5195.865000	1471.085938	401.905914
10514.113298	5195.865000	1470.020508	345.309265
10514.113298	5195.865000	1468.955078	279.625183
10514.113298	5195.865000	1467.888672	33.117619
10514.113298	5195.865000	1466.823242	256.909119
10514.113298	5195.865000	1465.756836	249.856155
10514.113298	5195.865000	1464.690430	160.266373
10514.113298	5195.865000	1463.624023	320.809387
10514.113298	5195.865000	1462.556641	238.081467
10514.113298	5195.865000	1461.490234	162.275909
10514.113298	5195.865000	1460.422852	332.133453
10514.113298	5195.865000	1459.355469	332.005463
10514.113298	5195.865000	1458.287109	408.584106
10514.113298	5195.865000	1457.219727	308.148163
10514.113298	5195.865000	1456.151367	465.741547
10514.113298	5195.865000	1455.083008	76.353058
10514.113298	5195.865000	1454.014648	420.277313
10514.113298	5195.865000	1452.945313	273.476257
10514.113298	5195.865000	1451.876953	98.863869
10514.113298	5195.865000	1450.807617	109.465073
10514.113298	5195.865000	1449.738281	212.239075
10514.113298	5195.865000	1448.668945	267.015625
10514.113298	5195.865000	1447.598633	335.144653
10514.113298	5195.865000	1446.528320	214.015854
10514.113298	5195.865000	1445.458008	201.771454
10514.113298	5195.865000	1444.387695	96.225533
10514.113298	5195.865000	1443.317383	203.597458
10514.113298	5195.865000	1442.246094	167.405441
10514.113298	5195.865000	1441.174805	316.974396
10514.113298	5195.865000	1440.103516	83.199463
10514.113298	5195.865000	1439.032227	170.516754
10514.113298	5195.865000	1437.960938	173.117279
10514.113298	5195.865000	1436.888672	30.201260
10514.113298	5195.865000	1435.816406	-55.342327
10514.113298	5195.865000	1434.744141	-43.366421
10514.113298	5195.865000	1433.670898	69.348900
10514.113298	5195.865000	1432.598633	-47.944977
10514.113298	5195.865000	1431.525391	10.066277
10514.113298	5195.865000	1430.452148	-53.633003
10514.113298	5195.865000	1429.378906	-117.367462
10514.113298	5195.865000	1428.304688	-50.306511
10514.113298	5195.865000	1427.231445	-165.981689
10514.113298	5195.865000	1426.157227	-96.940323
10514.113298	5195.865000	1425.083008	-224.257019
10514.113298	5195.865000	1424.007813	107.771141
10514.113298	5195.865000	1422.933594	16.913763
10514.113298	5195.865000	1421.858398	-133.193268
10514.113298	5195.865000	1420.783203	-54.994049
10514.113298	5195.865000	1419.708008	126.203339
10514.113298	5195.865000	1418.631836	330.169556
10514.113298	5195.865000	1417.555664	130.286469
10514.113298	5195.865000	1416.479492	303.142426
10514.113298	5195.865000	1415.403320	467.467407
10514.113298	5195.865000	1414.327148	264.254120
10514.113298	5195.865000	1413.250000	547.392639
10514.113298	5195.865000	1412.173828	542.244873
10514.113298	5195.865000	1411.096680	498.502716
10514.113298	5195.865000	1410.018555	683.590759
10514.113298	5195.865000	1408.941406	521.232605
10514.113298	5195.865000	1407.863281	634.827820
10514.113298	5195.865000	1406.785156	734.266052
10514.113298	5195.865000	1405.707031	832.248108
10514.113298	5195.865000	1404.628906	476.709808
10514.113298	5195.865000	1403.549805	611.346741
10514.113298	5195.865000	1402.470703	611.959473
10514.113298	5195.865000	1401.391602	655.627563
10514.113298	5195.865000	1400.312500	872.721436
10514.113298	5195.865000	1399.233398	781.902649
10514.113298	5195.865000	1398.153320	493.324188
10514.113298	5195.865000	1397.073242	615.605469
10514.113298	5195.865000	1395.993164	514.386475
10514.113298	5195.865000	1394.913086	509.064148
10514.113298	5195.865000	1393.832031	535.110046
10514.113298	5195.865000	1392.750977	631.709656
10514.113298	5195.865000	1391.669922	571.989319
10514.113298	5195.865000	1390.588867	544.771667
10514.113298	5195.865000	1389.506836	515.098938
10514.113298	5195.865000	1388.425781	620.807556
10514.113298	5195.865000	1387.343750	578.221069
10514.113298	5195.865000	1386.261719	591.155273
10514.113298	5195.865000	1385.178711	475.772827
10514.113298	5195.865000	1384.096680	371.969086
10514.113298	5195.865000	1383.013672	332.804565
10514.113298	5195.865000	1381.930664	617.163025
10514.113298	5195.865000	1380.846680	550.114746
10514.113298	5195.865000	1379.763672	407.096222
10514.113298	5195.865000	1378.679688	327.114990
10514.113298	5195.865000	1377.595703	159.776108
10514.113298	5195.865000	1376.511719	109.014389
10514.113298	5195.865000	1375.427734	121.954079
10514.113298	5195.865000	1374.342773	235.407104
10514.113298	5195.865000	1373.257813	112.482094
10514.113298	5195.865000	1372.172852	0.865754
10514.113298	5195.865000	1371.087891	-136.341125
10514.113298	5195.865000	1370.001953	-105.166122
10514.113298	5195.865000	1368.916992	-37.376678
10514.113298	5195.865000	1367.831055	-2.542701
10514.113298	5195.865000	1366.744141	3.952453
10514.113298	5195.865000	1365.658203	75.583946
10514.113298	5195.865000	1364.571289	-143.159027
10514.113298	5195.865000	1363.484375	213.426941
10514.113298	5195.865000	1362.397461	190.648636
10514.113298	5195.865000	1361.310547	-5.171544
10514.113298	5195.865000	1360.222656	25.495224
10514.113298	5195.865000	1359.135742	20.517479
10514.113298	5195.865000	1358.047852	-49.231709
10514.113298	5195.865000	1356.958984	-92.907242
10514.113298	5195.865000	1355.871094	124.180115
10514.113298	5195.865000	1354.782227	126.489906
10514.113298	5195.865000	1353.693359	24.218786
10514.113298	5195.865000	1352.604492	52.391220
10514.113298	5195.865000	1351.515625	202.141052
10514.113298	5195.865000	1350.425781	42.554512
10514.113298	5195.865000	1349.335938	159.561249
10514.113298	5195.865000	1348.246094	15.880047
10514.113298	5195.865000	1347.156250	59.048019
10514.113298	5195.865000	1346.066406	24.770252
10514.113298	5195.865000	1344.975586	-53.283581
10514.113298	5195.865000	1343.884766	44.901596
10514.113298	5195.865000	1342.793945	85.443924
10514.113298	5195.865000	1341.702148	117.086571
10514.113298	5195.865000	1340.611328	157.755325
10514.113298	5195.865000	1339.519531	137.814529
10514.113298	5195.865000	1338.427734	70.295372
10514.113298	5195.865000	1337.334961	203.983337
10514.113298	5195.865000	1336.243164	18.562229
10514.113298	5195.865000	1335.150391	87.979141
10514.113298	5195.865000	1334.057617	349.051941
10514.113298	5195.865000	1332.964844	248.481720
10514.113298	5195.865000	1331.871094	170.060242
10514.113298	5195.865000	1330.778320	71.232040
10514.113298	5195.865000	1329.684570	123.130669
10514.113298	5195.865000	1328.590820	254.189682
10514.113298	5195.865000	1327.496094	-39.056602
10514.113298	5195.865000	1326.402344	-204.911514
10514.113298	5195.865000	1325.307617	-43.862854
10514.113298	5195.865000	1324.212891	-209.338806
10514.113298	5195.865000	1323.117188	-311.937531
10514.113298	5195.865000	1322.022461	-200.870346
10514.113298	5195.865000	1320.926758	-257.430023
10514.113298	5195.865000	1319.831055	-216.381104
10514.113298	5195.865000	1318.735352	-58.377071
10514.113298	5195.865000	1317.638672	-132.600677
10514.113298	5195.865000	1316.542969	-85.793472
10514.113298	5195.865000	1315.446289	2.089530
10514.113298	5195.865000	1314.349609	107.580208
10514.113298	5195.865000	1313.251953	25.665121
10514.113298	5195.865000	1312.155273	203.208374
10514.113298	5195.865000	1311.057617	29.687305
10514.113298	5195.865000	1309.959961	140.259369
10514.113298	5195.865000	1308.862305	204.100052
10514.113298	5195.865000	1307.763672	115.320343
10514.113298	5195.865000	1306.665039	35.830326
10514.113298	5195.865000	1305.566406	160.592575
10514.113298	5195.865000	1304.467773	177.536484
10514.113298	5195.865000	1303.369141	36.482979
10514.113298	5195.865000	1302.269531	310.984863
10514.113298	5195.865000	1301.169922	270.628510
10514.113298	5195.865000	1300.070313	193.049286
10514.113298	5195.865000	1298.970703	138.652130
10514.113298	5195.865000	1297.870117	158.661011
10514.113298	5195.865000	1296.769531	164.132629
10514.113298	5195.865000	1295.668945	111.086121
10514.113298	5195.865000	1294.568359	154.528915
10514.113298	5195.865000	1293.466797	435.199951
10514.113298	5195.865000	1292.366211	279.221771
10514.113298	5195.865000	1291.264648	276.790558
10514.113298	5195.865000	1290.162109	140.406082
10514.113298	5195.865000	1289.060547	340.784119
10514.113298	5195.865000	1287.958008	210.855652
10514.113298	5195.865000	1286.855469	195.113098
10514.113298	5195.865000	1285.752930	242.235641
10514.113298	5195.865000	1284.650391	183.143723
10514.113298	5195.865000	1283.546875	74.196152
10514.113298	5195.865000	1282.444336	61.119305
10514.113298	5195.865000	1281.339844	314.578613
10514.113298	5195.865000	1280.236328	229.698685
10514.113298	5195.865000	1279.132813	431.019012
10514.113298	5195.865000	1278.028320	513.207397
10514.113298	5195.865000	1276.923828	556.223083
10514.113298	5195.865000	1275.819336	477.311646
10514.113298	5195.865000	1274.713867	599.700623
10514.113298	5195.865000	1273.608398	865.165527
10514.113298	5195.865000	1272.503906	814.979553
10514.113298	5195.865000	1271.397461	1069.559082
10514.113298	5195.865000	1270.291992	950.095093
10514.113298	5195.865000	1269.185547	718.375549
10514.113298	5195.865000	1268.080078	606.366882
10514.113298	5195.865000	1266.972656	633.133118
10514.113298	5195.865000	1265.866211	433.245789
10514.113298	5195.865000	1264.759766	321.711212
10514.113298	5195.865000	1263.652344	505.488007
10514.113298	5195.865000	1262.544922	483.756165
10514.113298	5195.865000	1261.436523	591.564270
10514.113298	5195.865000	1260.329102	516.572998
10514.113298	5195.865000	1259.220703	378.709473
10514.113298	5195.865000	1258.112305	309.930634
10514.113298	5195.865000	1257.003906	320.472107
10514.113298	5195.865000	1255.895508	174.019821
10514.113298	5195.865000	1254.786133	78.834709
10514.113298	5195.865000	1253.676758	255.948593
10514.113298	5195.865000	1252.567383	77.156693
10514.113298	5195.865000	1251.458008	114.558937
10514.113298	5195.865000	1250.347656	-112.813942
10514.113298	5195.865000	1249.237305	112.150612
10514.113298	5195.865000	1248.126953	156.526138
10514.113298	5195.865000	1247.016602	238.627380
10514.113298	5195.865000	1245.905273	401.230408
10514.113298	5195.865000	1244.793945	323.118408
10514.113298	5195.865000	1243.682617	454.918610
10514.113298	5195.865000	1242.571289	568.557007
10514.113298	5195.865000	1241.459961	804.351318
10514.113298	5195.865000	1240.347656	947.410828
10514.113298	5195.865000	1239.235352	1003.704956
10514.113298	5195.865000	1238.123047	1025.069946
10514.113298	5195.865000	1237.009766	777.365112
10514.113298	5195.865000	1235.897461	772.081360
10514.113298	5195.865000	1234.784180	600.903259
10514.113298	5195.865000	1233.670898	437.564545
10514.113298	5195.865000	1232.556641	459.158356
10514.113298	5195.865000	1231.443359	456.690491
10514.113298	5195.865000	1230.329102	278.463318
10514.113298	5195.865000	1229.214844	198.374283
10514.113298	5195.865000	1228.099609	333.418152
10514.113298	5195.865000	1226.985352	487.207672
10514.113298	5195.865000	1225.870117	368.073914
10514.113298	5195.865000	1224.754883	456.177795
10514.113298	5195.865000	1223.639648	583.658203
10514.113298	5195.865000	1222.523438	381.974945
10514.113298	5195.865000	1221.408203	562.225525
10514.113298	5195.865000	1220.291992	669.009216
10514.113298	5195.865000	1219.174805	646.669922
10514.113298	5195.865000	1218.058594	549.265991
10514.113298	5195.865000	1216.941406	373.102814
10514.113298	5195.865000	1215.824219	352.235474
10514.113298	5195.865000	1214.707031	313.327179
10514.113298	5195.865000	1213.589844	364.114410
10514.113298	5195.865000	1212.471680	260.988037
10514.113298	5195.865000	1211.353516	474.790955
10514.113298	5195.865000	1210.235352	435.940308
10514.113298	5195.865000	1209.117188	389.658875
10514.113298	5195.865000	1207.998047	329.191193
10514.113298	5195.865000	1206.878906	251.883881
10514.113298	5195.865000	1205.759766	346.442139
10514.113298	5195.865000	1204.640625	192.757721
10514.113298	5195.865000	1203.520508	76.045998
10514.113298	5195.865000	1202.401367	422.738892
10514.113298	5195.865000	1201.281250	128.572769
10514.113298	5195.865000	1200.160156	187.036133
10514.113298	5195.865000	1199.040039	206.229614
10514.113298	5195.865000	1197.918945	432.846832
10514.113298	5195.865000	1196.797852	519.682251
10514.113298	5195.865000	1195.676758	655.309265
10514.113298	5195.865000	1194.555664	638.632202
10514.113298	5195.865000	1193.433594	567.954712
10514.113298	5195.865000	1192.311523	381.129730
10514.113298	5195.865000	1191.189453	321.927856
10514.113298	5195.865000	1190.066406	89.545311
10514.113298	5195.865000	1188.944336	97.884872
10514.113298	5195.865000	1187.821289	87.609467
10514.113298	5195.865000	1186.698242	-95.518951
10514.113298	5195.865000	1185.574219	113.483093
10514.113298	5195.865000	1184.451172	55.979057
10514.113298	5195.865000	1183.327148	-26.387442
10514.113298	5195.865000	1182.203125	-26.102610
10514.113298	5195.865000	1181.078125	-49.744404
10514.113298	5195.865000	1179.954102	-6.457383
10514.113298	5195.865000	1178.829102	-269.033264
10514.113298	5195.865000	1177.704102	-139.223038
10514.113298	5195.865000	1176.579102	-299.319550
10514.113298	5195.865000	1175.453125	-175.953384
10514.113298	5195.865000	1174.327148	-122.552338
10514.113298	5195.865000	1173.201172	-89.450287
10514.113298	5195.865000	1172.075195	-69.846359
10514.113298	5195.865000	1170.949219	-50.410378
10514.113298	5195.865000	1169.822266	-104.812881
10514.113298	5195.865000	1168.695313	66.323921
10514.113298	5195.865000	1167.568359	-112.684425
10514.113298	5195.865000	1166.440430	-212.650040
10514.113298	5195.865000	1165.313477	-158.306793
10514.113298	5195.865000	1164.185547	-61.216476
10514.113298	5195.865000	1163.057617	55.149036
10514.113298	5195.865000	1161.928711	175.631012
10514.113298	5195.865000	1160.800781	404.813843
10514.113298	5195.865000	1159.671875	498.144623
10514.113298	5195.865000	1158.541992	656.051208
10514.113298	5195.865000	1157.413086	833.289856
10514.113298	5195.865000	1156.283203	1132.841919
10514.113298	5195.865000	1155.154297	1232.911621
10514.113298	5195.865000	1154.023438	1417.604004
10514.113298	5195.865000	1152.893555	1760.825195
10514.113298	5195.865000	1151.763672	1778.096191
10514.113298	5195.865000	1150.632813	1800.869629
10514.113298	5195.865000	1149.501953	1454.096436
10514.113298	5195.865000	1148.370117	1263.723389
10514.113298	5195.865000	1147.239258	914.521423
10514.113298	5195.865000	1146.107422	819.417175
10514.113298	5195.865000	1144.975586	547.681885
10514.113298	5195.865000	1143.843750	677.077393
10514.113298	5195.865000	1142.710938	464.484161
10514.113298	5195.865000	1141.578125	526.210510
10514.113298	5195.865000	1140.445313	454.299561
10514.113298	5195.865000	1139.312500	420.831512
10514.113298	5195.865000	1138.178711	376.791321
10514.113298	5195.865000	1137.045898	432.166656
10514.113298	5195.865000	1135.912109	434.989685
10514.113298	5195.865000	1134.777344	415.521301
10514.113298	5195.865000	1133.643555	370.567566
10514.113298	5195.865000	1132.508789	506.126495
10514.113298	5195.865000	1131.374023	503.541595
10514.113298	5195.865000	1130.239258	679.118774
10514.113298	5195.865000	1129.104492	477.844482
10514.113298	5195.865000	1127.968750	484.832581
10514.113298	5195.865000	1126.833008	477.236237
10514.113298	5195.865000	1125.697266	351.046814
10514.113298	5195.865000	1124.560547	386.339050
10514.113298	5195.865000	1123.424805	337.943665
10514.113298	5195.865000	1122.288086	289.738342
10514.113298	5195.865000	1121.151367	353.093140
10514.113298	5195.865000	1120.013672	461.223389
10514.113298	5195.865000	1118.876953	278.554626
10514.113298	5195.865000	1117.739258	93.637299
10514.113298	5195.865000	1116.601563	136.990005
10514.113298	5195.865000	1115.462891	92.382683
10514.113298	5195.865000	1114.324219	-120.158249
10514.113298	5195.865000	1113.186523	-192.250809
10514.113298	5195.865000	1112.046875	40.391762
10514.113298	5195.865000	1110.908203	-9.898603
10514.113298	5195.865000	1109.769531	-32.211342
10514.113298	5195.865000	1108.629883	-33.275623
10514.113298	5195.865000	1107.490234	208.436111
10514.113298	5195.865000	1106.349609	221.273743
10514.113298	5195.865000	1105.209961	23.359640
10514.113298	5195.865000	1104.069336	112.917717
10514.113298	5195.865000	1102.928711	53.654339
10514.113298	5195.865000	1101.787109	115.843170
10514.113298	5195.865000	1100.646484	117.426109
10514.113298	5195.865000	1099.504883	85.090775
10514.113298	5195.865000	1098.363281	194.712601
10514.113298	5195.865000	1097.221680	65.510689
10514.113298	5195.865000	1096.079102	70.393364
10514.113298	5195.865000	1094.936523	-25.070484
10514.113298	5195.865000	1093.793945	145.155655
10514.113298	5195.865000	1092.651367	300.276245
10514.113298	5195.865000	1091.507813	387.112610
10514.113298	5195.865000	1090.364258	299.635193
10514.113298	5195.865000	1089.220703	629.189026
10514.113298	5195.865000	1088.077148	424.731659
10514.113298	5195.865000	1086.933594	271.811310
10514.113298	5195.865000	1085.789063	443.271576
10514.113298	5195.865000	1084.644531	279.408356
10514.113298	5195.865000	1083.499023	35.591530
10514.113298	5195.865000	1082.354492	66.297325
10514.113298	5195.865000	1081.208984	19.813076
10514.113298	5195.865000	1080.063477	144.014816
10514.113298	5195.865000	1078.917969	82.157883
10514.113298	5195.865000	1077.771484	80.468575
10514.113298	5195.865000	1076.625977	-4.382226
10514.113298	5195.865000	1075.479492	-135.076233
10514.113298	5195.865000	1074.332031	-83.422615
10514.113298	5195.865000	1073.185547	-17.228767
10514.113298	5195.865000	1072.038086	-110.266441
10514.113298	5195.865000	1070.890625	-66.128006
10514.113298	5195.865000	1069.743164	88.579651
10514.113298	5195.865000	1068.594727	221.809143
10514.113298	5195.865000	1067.447266	189.598221
10514.113298	5195.865000	1066.298828	199.289047
10514.113298	5195.865000	1065.149414	182.595963
10514.113298	5195.865000	1064.000977	424.131195
10514.113298	5195.865000	1062.851563	165.590195
10514.113298	5195.865000	1061.702148	133.379028
10514.113298	5195.865000	1060.552734	-179.410889
10514.113298	5195.865000	1059.402344	-24.010777
10514.113298	5195.865000	1058.252930	74.064110
10514.113298	5195.865000	1057.102539	-76.944244
10514.113298	5195.865000	1055.951172	-165.046082
10514.113298	5195.865000	1054.800781	-16.162611
10514.113298	5195.865000	1053.649414	-124.739578
10514.113298	5195.865000	1052.498047	-37.430103
10514.113298	5195.865000	1051.346680	140.636597
10514.113298	5195.865000	1050.194336	-6.763169
10514.113298	5195.865000	1049.042969	-59.225914
10514.113298	5195.865000	1047.890625	207.281708
10514.113298	5195.865000	1046.738281	28.395906
10514.113298	5195.865000	1045.584961	108.798111
10514.113298	5195.865000	1044.431641	131.043594
10514.113298	5195.865000	1043.278320	172.751251
10514.113298	5195.865000	1042.125000	140.645432
10514.113298	5195.865000	1040.971680	116.651711
10514.113298	5195.865000	1039.817383	217.581207
10514.113298	5195.865000	1038.663086	87.351776
10514.113298	5195.865000	1037.508789	204.365540
10514.113298	5195.865000	1036.353516	197.367126
10514.113298	5195.865000	1035.198242	334.854614
10514.113298	5195.865000	1034.042969	123.549522
10514.113298	5195.865000	1032.887695	83.199715
10514.113298	5195.865000	1031.732422	88.211288
10514.113298	5195.865000	1030.576172	221.900940
10514.113298	5195.865000	1029.419922	115.921326
10514.113298	5195.865000	1028.263672	334.623871
10514.113298	5195.865000	1027.106445	426.840820
10514.113298	5195.865000	1025.949219	178.086258
10514.113298	5195.865000	1024.792969	206.465424
10514.113298	5195.865000	1023.634766	35.873299
10514.113298	5195.865000	1022.477539	177.015289
10514.113298	5195.865000	1021.319336	28.623016
10514.113298	5195.865000	1020.161133	-14.769558
10514.113298	5195.865000	1019.002930	-222.013077
10514.113298	5195.865000	1017.843750	22.219484
10514.113298	5195.865000	1016.684570	-116.012360
10514.113298	5195.865000	1015.525391	151.710327
10514.113298	5195.865000	1014.366211	150.819153
10514.113298	5195.865000	1013.207031	49.746719
10514.113298	5195.865000	1012.046875	221.989777
10514.113298	5195.865000	1010.886719	50.170643
10514.113298	5195.865000	1009.726563	-42.095432
10514.113298	5195.865000	1008.565430	173.861008
10514.113298	5195.865000	1007.404297	194.636108
10514.113298	5195.865000	1006.243164	113.190842
10514.113298	5195.865000	1005.082031	73.641464
10514.113298	5195.865000	1003.920898	199.546646
10514.113298	5195.865000	1002.758789	472.941864
10514.113298	5195.865000	1001.596680	369.489929
10514.113298	5195.865000	1000.433594	135.983063
10514.113298	5195.865000	999.271484	223.096817
10514.113298	5195.865000	998.108398	265.079620
10514.113298	5195.865000	996.945313	331.143280
10514.113298	5195.865000	995.782227	413.049713
10514.113298	5195.865000	994.618164	309.727631
10514.113298	5195.865000	993.454102	483.547272
10514.113298	5195.865000	992.290039	459.720764
10514.113298	5195.865000	991.125977	738.055786
10514.113298	5195.865000	989.960938	598.338501
10514.113298	5195.865000	988.796875	789.015686
10514.113298	5195.865000	987.630859	919.925598
10514.113298	5195.865000	986.465820	722.797791
10514.113298	5195.865000	985.300781	920.281616
10514.113298	5195.865000	984.134766	863.570129
10514.113298	5195.865000	982.968750	855.289001
10514.113298	5195.865000	981.801758	591.184814
10514.113298	5195.865000	980.635742	411.884003
10514.113298	5195.865000	979.468750	387.504700
10514.113298	5195.865000	978.301758	439.415955
10514.113298	5195.865000	977.133789	163.019531
10514.113298	5195.865000	975.966797	351.535980
10514.113298	5195.865000	974.798828	538.800842
10514.113298	5195.865000	973.630859	379.707855
10514.113298	5195.865000	972.461914	410.511108
10514.113298	5195.865000	971.293945	105.384697
10514.113298	5195.865000	970.125000	115.122849
10514.113298	5195.865000	968.956055	49.927021
10514.113298	5195.865000	967.786133	115.935066
10514.113298	5195.865000	966.617188	-38.651264
10514.113298	5195.865000	965.447266	171.426804
10514.113298	5195.865000	964.276367	-86.085419
10514.113298	5195.865000	963.106445	-272.356018
10514.113298	5195.865000	961.935547	-49.503391
10514.113298	5195.865000	960.764648	-83.347244
10514.113298	5195.865000	959.593750	-156.135254
10514.113298	5195.865000	958.422852	-91.238159
10514.113298	5195.865000	957.250977	-19.805521
10514.113298	5195.865000	956.079102	47.793369
10514.113298	5195.865000	954.907227	-82.983101
10514.113298	5195.865000	953.734375	-107.424255
10514.113298	5195.865000	952.562500	-146.282333
10514.113298	5195.865000	951.389648	15.618465
10514.113298	5195.865000	950.215820	9.723764
10514.113298	5195.865000	949.042969	-85.315132
10514.113298	5195.865000	947.869141	-113.069672
10514.113298	5195.865000	946.695313	-224.956650
10514.113298	5195.865000	945.521484	22.428671
10514.113298	5195.865000	944.346680	-107.006027
10514.113298	5195.865000	943.172852	142.855804
10514.113298	5195.865000	941.998047	2.005861
10514.113298	5195.865000	940.822266	41.324348
10514.113298	5195.865000	939.647461	2.059896
10514.113298	5195.865000	938.471680	15.095580
10514.113298	5195.865000	937.295898	41.900692
10514.113298	5195.865000	936.119141	52.371967
10514.113298	5195.865000	934.943359	29.549341
10514.113298	5195.865000	933.766602	-14.374803
10514.113298	5195.865000	932.589844	59.705708
10514.113298	5195.865000	931.413086	225.939789
10514.113298	5195.865000	930.235352	18.725985
10514.113298	5195.865000	929.057617	218.051422
10514.113298	5195.865000	927.879883	258.905884
10514.113298	5195.865000	926.702148	346.978302
10514.113298	5195.865000	925.523438	312.156403
10514.113298	5195.865000	924.344727	220.651047
10514.113298	5195.865000	923.166016	414.862213
10514.113298	5195.865000	921.987305	153.331390
10514.113298	5195.865000	920.807617	179.842651
10514.113298	5195.865000	919.627930	184.955673
10514.113298	5195.865000	919.497070	131.364792
10514.113298	5195.865000	918.331055	115.279381
10514.113298	5195.865000	917.165039	184.090576
10514.113298	5195.865000	915.999023	64.167030
10514.113298	5195.865000	914.833008	272.016113
10514.113298	5195.865000	913.666016	-29.459192
10514.113298	5195.865000	912.499023	58.062725
10514.113298	5195.865000	911.332031	173.797195
10514.113298	5195.865000	910.165039	-42.746456
10514.113298	5195.865000	908.997070	82.330772
10514.113298	5195.865000	907.830078	37.758720
10514.113298	5195.865000	906.661133	-188.118195
10514.113298	5195.865000	905.493164	-211.480270
10514.113298	5195.865000	904.325195	-63.043739
10514.113298	5195.865000	903.156250	24.127422
10514.113298	5195.865000	901.987305	26.541542
10514.113298	5195.865000	900.818359	257.093658
10514.113298	5195.865000	899.648438	191.213898
10514.113298	5195.865000	898.478516	101.824699
10514.113298	5195.865000	897.308594	261.628723
10514.113298	5195.865000	896.138672	176.915558
10514.113298	5195.865000	894.968750	282.548035
10514.113298	5195.865000	893.797852	-74.697174
10514.113298	5195.865000	892.626953	178.880814
10514.113298	5195.865000	891.456055	148.181915
10514.113298	5195.865000	890.284180	314.701508
10514.113298	5195.865000	889.113281	225.262894
10514.113298	5195.865000	887.941406	173.394348
10514.113298	5195.865000	886.768555	330.365845
10514.113298	5195.865000	885.596680	541.208801
10514.113298	5195.865000	884.423828	449.383087
10514.113298	5195.865000	883.250977	446.687317
10514.113298	5195.865000	882.078125	511.966705
10514.113298	5195.865000	880.905273	171.681763
10514.113298	5195.865000	879.731445	229.930222
10514.113298	5195.865000	878.557617	189.730545
10514.113298	5195.865000	877.383789	461.098846
10514.113298	5195.865000	876.209961	102.308083
10514.113298	5195.865000	875.035156	127.684456
10514.113298	5195.865000	873.860352	199.859741
10514.113298	5195.865000	872.685547	133.892059
10514.113298	5195.865000	871.510742	56.236950
10514.113298	5195.865000	870.334961	289.789917
10514.113298	5195.865000	869.159180	39.008919
10514.113298	5195.865000	867.983398	-69.015709
10514.113298	5195.865000	866.807617	-191.035461
10514.113298	5195.865000	865.630859	30.646866
10514.113298	5195.865000	864.454102	212.493179
10514.113298	5195.865000	863.277344	41.389671
10514.113298	5195.865000	862.100586	-8.161242
10514.113298	5195.865000	860.922852	-50.689964
10514.113298	5195.865000	859.745117	-34.822449
10514.113298	5195.865000	858.567383	83.766937
10514.113298	5195.865000	857.389648	52.895027
10514.113298	5195.865000	856.210938	82.715958
10514.113298	5195.865000	855.032227	89.183853
10514.113298	5195.865000	853.853516	-81.668640
10514.113298	5195.865000	852.674805	-30.863567
10514.113298	5195.865000	851.495117	82.884010
10514.113298	5195.865000	850.315430	264.197174
10514.113298	5195.865000	849.135742	408.132965
10514.113298	5195.865000	847.956055	258.344116
10514.113298	5195.865000	846.775391	48.033489
10514.113298	5195.865000	845.595703	224.528900
10514.113298	5195.865000	844.415039	74.864624
10514.113298	5195.865000	843.233398	-7.205103
10514.113298	5195.865000	842.052734	106.325279
10514.113298	5195.865000	840.871094	40.572994
10514.113298	5195.865000	839.689453	46.992157
10514.113298	5195.865000	838.506836	-28.027903
10514.113298	5195.865000	837.325195	-296.106659
10514.113298	5195.865000	836.142578	-22.148369
10514.113298	5195.865000	834.959961	-99.435310
10514.113298	5195.865000	833.777344	44.174435
10514.113298	5195.865000	832.593750	18.046724
10514.113298	5195.865000	831.410156	-207.927841
10514.113298	5195.865000	830.226563	-45.791946
10514.113298	5195.865000	829.042969	-125.309967
10514.113298	5195.865000	827.858398	-56.152206
10514.113298	5195.865000	826.673828	115.149048
10514.113298	5195.865000	825.489258	42.618462
10514.113298	5195.865000	824.304688	253.290466
10514.113298	5195.865000	823.120117	-0.239014
10514.113298	5195.865000	821.934570	61.876293
10514.113298	5195.865000	820.749023	140.206589
10514.113298	5195.865000	819.562500	209.233856
10514.113298	5195.865000	818.376953	268.958618
10514.113298	5195.865000	817.190430	203.483292
10514.113298	5195.865000	816.003906	128.766724
10514.113298	5195.865000	814.817383	232.512192
10514.113298	5195.865000	813.629883	-25.190924
10514.113298	5195.865000	812.442383	78.554665
10514.113298	5195.865000	811.254883	-16.895433
10514.113298	5195.865000	810.067383	-56.735416
10514.113298	5195.865000	808.878906	-78.031212
10514.113298	5195.865000	807.690430	-307.607269
10514.113298	5195.865000	806.501953	-192.314072
10514.113298	5195.865000	805.313477	91.815292
10514.113298	5195.865000	804.124023	-130.696289
10514.113298	5195.865000	802.934570	-179.676224
10514.113298	5195.865000	801.745117	-214.759232
10514.113298	5195.865000	800.555664	-51.034103
10514.113298	5195.865000	799.365234	-180.867615
10514.113298	5195.865000	798.175781	-88.832748
10514.113298	5195.865000	796.985352	23.962894
10514.113298	5195.865000	795.793945	-94.237503
10514.113298	5195.865000	794.603516	-39.205227
10514.113298	5195.865000	793.412109	-161.949249
10514.113298	5195.865000	792.220703	140.060272
10514.113298	5195.865000	791.028320	139.649918
10514.113298	5195.865000	789.836914	-1.497596
10514.113298	5195.865000	788.644531	187.282578
10514.113298	5195.865000	787.452148	76.178452
10514.113298	5195.865000	786.258789	285.628845
10514.113298	5195.865000	785.066406	329.014679
10514.113298	5195.865000	783.873047	222.579849
10514.113298	5195.865000	782.679688	173.800415
10514.113298	5195.865000	781.485352	254.065353
10514.113298	5195.865000	780.291992	4.917634
10514.113298	5195.865000	779.097656	103.615791
10514.113298	5195.865000	777.903320	82.552803
10514.113298	5195.865000	776.708008	158.187943
10514.113298	5195.865000	775.512695	79.597740
10514.113298	5195.865000	774.318359	74.671196
10514.113298	5195.865000	773.122070	332.014008
10514.113298	5195.865000	771.926758	283.348175
10514.113298	5195.865000	770.730469	471.561188
10514.113298	5195.865000	769.534180	593.026367
10514.113298	5195.865000	768.337891	787.999268
10514.113298	5195.865000	767.141602	987.488525
10514.113298	5195.865000	765.944336	1053.638794
10514.113298	5195.865000	764.747070	988.826355
10514.113298	5195.865000	763.549805	1174.379028
10514.113298	5195.865000	762.351563	1183.052856
10514.113298	5195.865000	761.154297	913.939270
10514.113298	5195.865000	759.956055	1305.969727
10514.113298	5195.865000	758.757813	1133.326904
10514.113298	5195.865000	757.558594	921.756042
10514.113298	5195.865000	756.359375	912.128418
10514.113298	5195.865000	755.160156	861.223999
10514.113298	5195.865000	753.960938	1243.688843
10514.113298	5195.865000	752.761719	1002.467834
10514.113298	5195.865000	751.561523	1031.791504
10514.113298	5195.865000	750.361328	1171.089844
10514.113298	5195.865000	749.160156	1115.600952
10514.113298	5195.865000	747.959961	993.704407
10514.113298	5195.865000	746.758789	1002.388916
10514.113298	5195.865000	745.557617	809.589233
10514.113298	5195.865000	744.356445	852.634949
10514.113298	5195.865000	743.154297	1090.188110
10514.113298	5195.865000	741.952148	1034.763306
10514.113298	5195.865000	740.750000	1128.049683
10514.113298	5195.865000	739.547852	1029.172607
10514.113298	5195.865000	738.344727	985.213074
10514.113298	5195.865000	737.142578	781.230225
10514.113298	5195.865000	735.939453	949.894348
10514.113298	5195.865000	734.735352	903.672546
10514.113298	5195.865000	733.532227	846.035278
10514.113298	5195.865000	732.328125	856.942627
10514.113298	5195.865000	731.124023	815.308716
10514.113298	5195.865000	729.918945	906.115723
10514.113298	5195.865000	728.714844	720.648438
10514.113298	5195.865000	727.509766	669.908997
10514.113298	5195.865000	726.303711	409.250153
10514.113298	5195.865000	725.098633	876.445129
10514.113298	5195.865000	723.892578	647.757629
10514.113298	5195.865000	722.686523	631.231506
10514.113298	5195.865000	721.480469	585.057617
10514.113298	5195.865000	720.274414	306.380737
10514.113298	5195.865000	719.067383	506.396820
10514.113298	5195.865000	717.860352	599.221069
10514.113298	5195.865000	716.653320	400.399719
10514.113298	5195.865000	715.445313	372.463470
10514.113298	5195.865000	714.238281	264.817566
10514.113298	5195.865000	713.030273	573.820984
10514.113298	5195.865000	711.821289	725.623291
10514.113298	5195.865000	710.613281	499.578125
10514.113298	5195.865000	709.404297	346.415344
10514.113298	5195.865000	708.195313	322.951538
10514.113298	5195.865000	706.986328	169.842194
10514.113298	5195.865000	705.776367	232.782883
10514.113298	5195.865000	704.566406	363.869476
10514.113298	5195.865000	703.356445	465.328705
10514.113298	5195.865000	702.146484	284.950867
10514.113298	5195.865000	700.935547	204.584763
10514.113298	5195.865000	699.724609	133.310623
10514.113298	5195.865000	698.513672	161.954849
10514.113298	5195.865000	697.302734	331.323273
10514.113298	5195.865000	696.090820	312.188416
10514.113298	5195.865000	694.878906	154.592514
10514.113298	5195.865000	693.666992	189.894180
10514.113298	5195.865000	692.455078	252.368927
10514.113298	5195.865000	691.242188	382.827240
10514.113298	5195.865000	690.029297	132.247040
10514.113298	5195.865000	688.816406	51.767120
10514.113298	5195.865000	687.602539	327.143158
10514.113298	5195.865000	686.389648	176.332031
10514.113298	5195.865000	685.175781	-22.030123
10514.113298	5195.865000	683.960938	10.701284
10514.113298	5195.865000	682.747070	81.876839
10514.113298	5195.865000	681.532227	171.097351
10514.113298	5195.865000	680.317383	45.182709
10514.113298	5195.865000	679.102539	61.864513
10514.113298	5195.865000	677.886719	234.629593
10514.113298	5195.865000	676.670898	43.046001
10514.113298	5195.865000	675.455078	263.150970
10514.113298	5195.865000	674.239258	195.925125
10514.113298	5195.865000	673.022461	187.465485
10514.113298	5195.865000	671.805664	-58.381439
10514.113298	5195.865000	670.588867	57.414764
10514.113298	5195.865000	669.372070	159.556366
10514.113298	5195.865000	668.154297	322.597290
10514.113298	5195.865000	666.936523	151.261154
10514.113298	5195.865000	665.718750	413.484619
10514.113298	5195.865000	664.500977	138.249237
10514.113298	5195.865000	663.282227	402.515045
10514.113298	5195.865000	662.063477	264.942352
10514.113298	5195.865000	660.844727	188.287140
10514.113298	5195.865000	659.625000	361.983917
10514.113298	5195.865000	658.405273	222.082748
10514.113298	5195.865000	657.185547	224.227386
10514.113298	5195.865000	655.965820	199.260727
10514.113298	5195.865000	654.745117	214.813385
10514.113298	5195.865000	653.525391	284.374603
10514.113298	5195.865000	652.303711	229.944107
10514.113298	5195.865000	651.083008	240.790100
10514.113298	5195.865000	649.861328	132.221222
10514.113298	5195.865000	648.640625	-79.929085
10514.113298	5195.865000	647.417969	63.585354
10514.113298	5195.865000	646.196289	-31.571081
10514.113298	5195.865000	644.973633	-77.254219
10514.113298	5195.865000	643.750977	-24.009977
10514.113298	5195.865000	642.528320	89.864014
10514.113298	5195.865000	641.305664	32.735165
10514.113298	5195.865000	640.082031	180.131943
10514.113298	5195.865000	638.858398	-20.975693
10514.113298	5195.865000	637.634766	-89.491798
10514.113298	5195.865000	636.410156	-59.201523
10514.113298	5195.865000	635.185547	90.046921
10514.113298	5195.865000	633.960938	-95.442482
10514.113298	5195.865000	632.736328	78.298332
10514.113298	5195.865000	631.510742	61.091438
10514.113298	5195.865000	630.285156	32.594753
10514.113298	5195.865000	629.059570	-16.161129
10514.113298	5195.865000	627.833984	-116.568451
10514.113298	5195.865000	626.607422	-37.588554
10514.113298	5195.865000	625.380859	175.816650
10514.113298	5195.865000	624.154297	68.468834
10514.113298	5195.865000	622.927734	-97.188271
10514.113298	5195.865000	621.700195	71.034180
10514.113298	5195.865000	620.472656	-99.197487
10514.113298	5195.865000	619.245117	252.464813
10514.113298	5195.865000	618.016602	100.017372
10514.113298	5195.865000	616.788086	-65.883980
10514.113298	5195.865000	615.559570	-101.965347
10514.113298	5195.865000	614.331055	23.022776
10514.113298	5195.865000	613.101563	40.468086
10514.113298	5195.865000	611.872070	104.800171
10514.113298	5195.865000	610.642578	14.691415
10514.113298	5195.865000	609.413086	11.743936
10514.113298	5195.865000	608.182617	-67.303215
10514.113298	5195.865000	606.952148	126.287483
10514.113298	5195.865000	605.721680	-107.121063
10514.113298	5195.865000	604.491211	-29.960865
10514.113298	5195.865000	603.259766	71.647545
10514.113298	5195.865000	602.028320	101.657860
10514.113298	5195.865000	600.796875	173.988708
10514.113298	5195.865000	599.564453	317.631714
10514.113298	5195.865000	598.332031	108.490059
10514.113298	5195.865000	597.099609	93.476555
10514.113298	5195.865000	595.867188	127.457184
10514.113298	5195.865000	594.633789	-1.490717
10514.113298	5195.865000	593.400391	-79.186264
10514.113298	5195.865000	592.166992	66.006104
10514.113298	5195.865000	590.933594	148.633102
10514.113298	5195.865000	589.699219	-31.837507
10514.113298	5195.865000	588.464844	21.623175
10514.113298	5195.865000	587.230469	201.939850
10514.113298	5195.865000	585.995117	132.647522
10514.113298	5195.865000	584.760742	-125.969597
10514.113298	5195.865000	583.525391	-26.160812
10514.113298	5195.865000	582.289063	-28.870695
10514.113298	5195.865000	581.053711	195.299744
10514.113298	5195.865000	579.817383	98.916237
10514.113298	5195.865000	578.581055	13.602200
10514.113298	5195.865000	577.343750	61.654957
10514.113298	5195.865000	576.107422	120.712433
10514.113298	5195.865000	574.870117	64.061569
10514.113298	5195.865000	573.631836	18.450338
10514.113298	5195.865000	572.394531	79.417549
10514.113298	5195.865000	571.156250	109.163841
10514.113298	5195.865000	569.917969	34.418747
10514.113298	5195.865000	568.679688	-42.607552
10514.113298	5195.865000	567.440430	182.222702
10514.113298	5195.865000	566.202148	129.426682
10514.113298	5195.865000	564.961914	165.316406
10514.113298	5195.865000	563.722656	216.631256
10514.113298	5195.865000	562.482422	225.685272
10514.113298	5195.865000	561.243164	210.253159
10514.113298	5195.865000	560.001953	170.340469
10514.113298	5195.865000	558.761719	199.073288
10514.113298	5195.865000	557.520508	272.024963
10514.113298	5195.865000	556.279297	152.085190
10514.113298	5195.865000	555.038086	52.045509
10514.113298	5195.865000	553.795898	222.157379
10514.113298	5195.865000	552.554688	168.466141
10514.113298	5195.865000	551.311523	161.191895
10514.113298	5195.865000	550.069336	153.836334
10514.113298	5195.865000	548.826172	164.095047
10514.113298	5195.865000	547.583984	123.381180
10514.113298	5195.865000	546.339844	36.139706
10514.113298	5195.865000	545.096680	15.196438
10514.113298	5195.865000	543.852539	-85.422432
10514.113298	5195.865000	542.608398	43.809555
10514.113298	5195.865000	541.364258	4.938989
10514.113298	5195.865000	540.119141	-73.774345
10514.113298	5195.865000	538.875000	92.676506
10514.113298	5195.865000	537.628906	175.036102
10514.113298	5195.865000	536.383789	135.836807
10514.113298	5195.865000	535.137695	-77.839317
10514.113298	5195.865000	533.892578	-24.426126
10514.113298	5195.865000	532.645508	75.215767
10514.113298	5195.865000	531.399414	-28.234980
10514.113298	5195.865000	530.152344	29.298426
10514.113298	5195.865000	528.905273	-127.185013
10514.113298	5195.865000	527.658203	-3.662937
10514.113298	5195.865000	526.410156	-160.228577
10514.113298	5195.865000	525.163086	62.272987
10514.113298	5195.865000	523.914063	-195.750412
10514.113298	5195.865000	522.666016	-127.695007
10514.113298	5195.865000	521.416992	-114.807938
10514.113298	5195.865000	520.167969	-49.149300
10514.113298	5195.865000	518.918945	-131.091187
10514.113298	5195.865000	517.669922	-56.791809
10514.113298	5195.865000	516.419922	-92.627960
10514.113298	5195.865000	515.169922	-159.317688
10514.113298	5195.865000	513.919922	-102.864883
10514.113298	5195.865000	512.668945	-158.666000
10514.113298	5195.865000	511.417969	-293.659637
10514.113298	5195.865000	510.166992	-123.107513
10514.113298	5195.865000	508.916016	-284.550598
10514.113298	5195.865000	507.664063	-127.387512
10514.113298	5195.865000	506.412109	190.013687
10514.113298	5195.865000	505.160156	-118.734711
10514.113298	5195.865000	503.907227	-104.625160
10514.113298	5195.865000	502.655273	32.368233
10514.113298	5195.865000	501.402344	-149.023697
10514.113298	5195.865000	500.148438	-73.649734
10514.113298	5195.865000	498.895508	-4.939795
10514.113298	5195.865000	497.641602	-37.219975
10514.113298	5195.865000	496.387695	-137.525085
10514.113298	5195.865000	495.132813	-172.068634
10514.113298	5195.865000	493.878906	-211.027374
10514.113298	5195.865000	492.624023	190.487076
10514.113298	5195.865000	491.368164	22.076057
10514.113298	5195.865000	490.113281	298.398895
10514.113298	5195.865000	488.857422	33.571278
10514.113298	5195.865000	487.601563	272.444214
10514.113298	5195.865000	486.344727	211.233505
10514.113298	5195.865000	485.088867	90.912125
10514.113298	5195.865000	483.832031	143.466431
10514.113298	5195.865000	482.575195	169.698654
10514.113298	5195.865000	481.317383	-20.680563
10514.113298	5195.865000	480.059570	-44.818230
10514.113298	5195.865000	478.801758	121.228577
10514.113298	5195.865000	477.543945	81.682022
10514.113298	5195.865000	476.285156	262.836456
10514.113298	5195.865000	475.027344	30.910110
10514.113298	5195.865000	473.767578	17.482176
10514.113298	5195.865000	472.508789	-155.412598
10514.113298	5195.865000	471.249023	51.664242
10514.113298	5195.865000	469.989258	-123.436440
10514.113298	5195.865000	468.729492	129.297211
10514.113298	5195.865000	467.469727	150.568344
10514.113298	5195.865000	466.208984	60.515343
10514.113298	5195.865000	464.948242	81.702797
10514.113298	5195.865000	463.686523	214.050110
10514.113298	5195.865000	462.425781	178.423935
10514.113298	5195.865000	461.164063	88.266563
10514.113298	5195.865000	459.901367	30.789417
10514.113298	5195.865000	458.639648	180.293655
10514.113298	5195.865000	457.376953	209.870529
10514.113298	5195.865000	456.114258	15.060817
10514.113298	5195.865000	454.851563	68.521957
10514.113298	5195.865000	453.587891	200.277847
10514.113298	5195.865000	452.324219	109.923737
10514.113298	5195.865000	451.060547	241.517136
10514.113298	5195.865000	449.796875	307.736481
10514.113298	5195.865000	448.532227	326.016296
10514.113298	5195.865000	447.267578	33.260990
10514.113298	5195.865000	446.002930	51.484653
10514.113298	5195.865000	444.737305	41.378063
10514.113298	5195.865000	443.471680	252.887405
10514.113298	5195.865000	442.206055	229.587860
10514.113298	5195.865000	440.940430	351.779022
10514.113298	5195.865000	439.673828	315.301361
10514.113298	5195.865000	438.407227	174.547882
10514.113298	5195.865000	437.140625	88.057968
10514.113298	5195.865000	435.873047	3.694883
10514.113298	5195.865000	434.605469	75.529022
10514.113298	5195.865000	433.337891	247.048477
10514.113298	5195.865000	432.070313	132.103485
10514.113298	5195.865000	430.801758	281.675476
10514.113298	5195.865000	429.533203	281.496429
10514.113298	5195.865000	428.264648	99.146484
10514.113298	5195.865000	426.996094	142.159637
10514.113298	5195.865000	425.726563	312.875610
10514.113298	5195.865000	424.457031	273.291443
10514.113298	5195.865000	423.186523	235.769714
10514.113298	5195.865000	421.916992	351.890167
10514.113298	5195.865000	420.646484	117.135002
10514.113298	5195.865000	419.375977	98.785805
10514.113298	5195.865000	418.104492	359.437195
10514.113298	5195.865000	416.833008	27.073586
10514.113298	5195.865000	415.561523	157.569611
10514.113298	5195.865000	414.290039	372.192230
10514.113298	5195.865000	413.017578	348.737732
10514.113298	5195.865000	411.746094	158.701355
10514.113298	5195.865000	410.472656	173.852539
10514.113298	5195.865000	409.200195	128.329788
10514.113298	5195.865000	407.926758	138.790039
10514.113298	5195.865000	406.653320	250.550262
10514.113298	5195.865000	405.379883	353.419250
10514.113298	5195.865000	404.105469	140.850281
10514.113298	5195.865000	402.831055	-71.852013
10514.113298	5195.865000	401.556641	-14.977479
10514.113298	5195.865000	400.282227	-232.347580
10514.113298	5195.865000	399.006836	136.762192
10514.113298	5195.865000	397.731445	35.363773
10514.113298	5195.865000	396.456055	-20.994358
10514.113298	5195.865000	395.179688	-0.035754
10514.113298	5195.865000	393.903320	175.768463
10514.113298	5195.865000	392.626953	323.173584
10514.113298	5195.865000	391.350586	250.481384
10514.113298	5195.865000	390.073242	76.250771
10514.113298	5195.865000	388.795898	52.456127
10514.113298	5195.865000	387.518555	56.287514
10514.113298	5195.865000	386.240234	143.653244
10514.113298	5195.865000	384.961914	-12.555977
10514.113298	5195.865000	383.683594	151.415878
10514.113298	5195.865000	382.405273	-20.626829
10514.113298	5195.865000	381.125977	-79.092537
10514.113298	5195.865000	379.846680	38.282696
10514.113298	5195.865000	378.567383	36.912983
10514.113298	5195.865000	377.287109	-78.863785
10514.113298	5195.865000	376.006836	82.031143
10514.113298	5195.865000	374.726563	141.363708
10514.113298	5195.865000	373.446289	-1.750095
10514.113298	5195.865000	372.165039	65.004105
10514.113298	5195.865000	370.883789	8.774587
10514.113298	5195.865000	369.602539	-41.616501
10514.113298	5195.865000	368.320313	-30.430321
10514.113298	5195.865000	367.039063	166.723206
10514.113298	5195.865000	365.755859	19.913668
10514.113298	5195.865000	364.473633	131.913376
10514.113298	5195.865000	363.190430	168.068420
10514.113298	5195.865000	361.907227	-34.465405
10514.113298	5195.865000	360.624023	-6.289634
10514.113298	5195.865000	359.340820	-23.940100
10514.113298	5195.865000	358.056641	-83.155930
10514.113298	5195.865000	356.772461	-51.152119
10514.113298	5195.865000	355.487305	-84.327957
10514.113298	5195.865000	354.202148	-122.717125
10514.113298	5195.865000	352.916992	-40.088890
10514.113298	5195.865000	351.631836	67.168518
10514.113298	5195.865000	350.346680	6.491231
10514.113298	5195.865000	349.060547	58.078453
10514.113298	5195.865000	347.774414	-96.729095
10514.113298	5195.865000	346.487305	-139.352921
10514.113298	5195.865000	345.200195	79.727135
10514.113298	5195.865000	343.913086	60.311829
10514.113298	5195.865000	342.625977	41.777153
10514.113298	5195.865000	341.338867	188.538193
10514.113298	5195.865000	340.050781	-84.665184
10514.113298	5195.865000	338.762695	10.191777
10514.113298	5195.865000	337.473633	-97.092766
10514.113298	5195.865000	336.184570	-20.156267
10514.113298	5195.865000	334.895508	129.897491
10514.113298	5195.865000	333.606445	47.956829
10514.113298	5195.865000	332.317383	173.423660
10514.113298	5195.865000	331.027344	-48.261848
10514.113298	5195.865000	329.736328	48.129089
10514.113298	5195.865000	328.446289	-121.501465
10514.113298	5195.865000	327.155273	-60.681538
10514.113298	5195.865000	325.864258	-72.055153
10514.113298	5195.865000	324.573242	-98.128914
10514.113298	5195.865000	323.281250	-232.688248
10514.113298	5195.865000	321.989258	-15.849512
10514.113298	5195.865000	320.697266	-192.819473
10514.113298	5195.865000	319.405273	-235.687012
10514.113298	5195.865000	318.112305	-182.954361
10514.113298	5195.865000	316.819336	46.132008
10514.113298	5195.865000	315.526367	-46.202633
10514.113298	5195.865000	314.232422	-53.808895
10514.113298	5195.865000	312.938477	-57.520458
10514.113298	5195.865000	311.644531	144.473434
10514.113298	5195.865000	310.349609	233.205460
10514.113298	5195.865000	309.054688	15.447371
10514.113298	5195.865000	307.759766	-45.710552
10514.113298	5195.865000	306.464844	113.249161
10514.113298	5195.865000	305.168945	235.175522
10514.113298	5195.865000	303.873047	373.144592
10514.113298	5195.865000	302.577148	367.927704
10514.113298	5195.865000	301.281250	482.586426
10514.113298	5195.865000	299.984375	615.067993
