#X		#Y		#Wave		#Intensity
10164.647872	5166.485000	1999.946289	-1.035894
10164.647872	5166.485000	1998.981445	78.830429
10164.647872	5166.485000	1998.017578	113.718796
10164.647872	5166.485000	1997.052734	-59.514210
10164.647872	5166.485000	1996.088867	-14.593821
10164.647872	5166.485000	1995.124023	45.224014
10164.647872	5166.485000	1994.159180	-11.335145
10164.647872	5166.485000	1993.193359	65.894691
10164.647872	5166.485000	1992.228516	73.824150
10164.647872	5166.485000	1991.262695	-7.315160
10164.647872	5166.485000	1990.296875	-16.604719
10164.647872	5166.485000	1989.331055	169.636322
10164.647872	5166.485000	1988.365234	88.664017
10164.647872	5166.485000	1987.398438	104.232384
10164.647872	5166.485000	1986.432617	60.486431
10164.647872	5166.485000	1985.465820	46.469219
10164.647872	5166.485000	1984.499023	-2.110890
10164.647872	5166.485000	1983.532227	25.989784
10164.647872	5166.485000	1982.565430	66.476364
10164.647872	5166.485000	1981.597656	50.158142
10164.647872	5166.485000	1980.629883	-27.873579
10164.647872	5166.485000	1979.662109	-14.454405
10164.647872	5166.485000	1978.694336	-23.228523
10164.647872	5166.485000	1977.726563	32.228737
10164.647872	5166.485000	1976.758789	-57.939919
10164.647872	5166.485000	1975.790039	-74.001564
10164.647872	5166.485000	1974.821289	48.159138
10164.647872	5166.485000	1973.852539	-9.791398
10164.647872	5166.485000	1972.883789	-62.755333
10164.647872	5166.485000	1971.915039	89.024353
10164.647872	5166.485000	1970.945313	97.764946
10164.647872	5166.485000	1969.975586	59.691536
10164.647872	5166.485000	1969.005859	58.633202
10164.647872	5166.485000	1968.036133	30.495209
10164.647872	5166.485000	1967.066406	56.600563
10164.647872	5166.485000	1966.096680	43.307674
10164.647872	5166.485000	1965.125977	49.748859
10164.647872	5166.485000	1964.155273	-34.900463
10164.647872	5166.485000	1963.184570	-121.956039
10164.647872	5166.485000	1962.213867	5.204391
10164.647872	5166.485000	1961.242188	-79.318588
10164.647872	5166.485000	1960.271484	8.461460
10164.647872	5166.485000	1959.299805	-29.241850
10164.647872	5166.485000	1958.328125	19.182610
10164.647872	5166.485000	1957.356445	97.121422
10164.647872	5166.485000	1956.384766	-24.116455
10164.647872	5166.485000	1955.412109	39.090393
10164.647872	5166.485000	1954.439453	40.844009
10164.647872	5166.485000	1953.467773	18.040812
10164.647872	5166.485000	1952.495117	12.462630
10164.647872	5166.485000	1951.521484	43.752266
10164.647872	5166.485000	1950.548828	13.644268
10164.647872	5166.485000	1949.575195	10.575874
10164.647872	5166.485000	1948.601563	14.889553
10164.647872	5166.485000	1947.627930	95.314270
10164.647872	5166.485000	1946.654297	77.551903
10164.647872	5166.485000	1945.680664	35.272099
10164.647872	5166.485000	1944.706055	17.555288
10164.647872	5166.485000	1943.732422	-29.576778
10164.647872	5166.485000	1942.757813	-25.176832
10164.647872	5166.485000	1941.783203	6.205705
10164.647872	5166.485000	1940.807617	10.621066
10164.647872	5166.485000	1939.833008	17.497423
10164.647872	5166.485000	1938.857422	21.931347
10164.647872	5166.485000	1937.881836	-59.382462
10164.647872	5166.485000	1936.906250	45.523327
10164.647872	5166.485000	1935.930664	74.472260
10164.647872	5166.485000	1934.955078	-16.572468
10164.647872	5166.485000	1933.978516	27.085257
10164.647872	5166.485000	1933.001953	19.329077
10164.647872	5166.485000	1932.025391	38.505760
10164.647872	5166.485000	1931.048828	-81.795731
10164.647872	5166.485000	1930.072266	-69.932236
10164.647872	5166.485000	1929.094727	-31.159729
10164.647872	5166.485000	1928.118164	-11.960073
10164.647872	5166.485000	1927.140625	-56.335773
10164.647872	5166.485000	1926.163086	-86.021118
10164.647872	5166.485000	1925.184570	26.076862
10164.647872	5166.485000	1924.207031	-6.046198
10164.647872	5166.485000	1923.228516	-45.482574
10164.647872	5166.485000	1922.250000	-21.384756
10164.647872	5166.485000	1921.271484	-16.831450
10164.647872	5166.485000	1920.292969	4.817645
10164.647872	5166.485000	1919.314453	-7.719534
10164.647872	5166.485000	1918.334961	-59.305527
10164.647872	5166.485000	1917.355469	-40.092087
10164.647872	5166.485000	1916.375977	20.599195
10164.647872	5166.485000	1915.396484	86.149117
10164.647872	5166.485000	1914.416992	73.620865
10164.647872	5166.485000	1913.436523	65.976395
10164.647872	5166.485000	1912.457031	-22.128744
10164.647872	5166.485000	1911.476563	16.569258
10164.647872	5166.485000	1910.496094	23.567354
10164.647872	5166.485000	1909.515625	33.000038
10164.647872	5166.485000	1908.534180	8.318316
10164.647872	5166.485000	1907.552734	29.931011
10164.647872	5166.485000	1906.572266	12.565313
10164.647872	5166.485000	1905.590820	63.389614
10164.647872	5166.485000	1904.608398	11.937362
10164.647872	5166.485000	1903.626953	-41.931034
10164.647872	5166.485000	1902.644531	67.282661
10164.647872	5166.485000	1901.663086	96.153969
10164.647872	5166.485000	1900.680664	-67.183868
10164.647872	5166.485000	1899.698242	-57.761192
10164.647872	5166.485000	1898.714844	-75.095718
10164.647872	5166.485000	1897.732422	-92.426353
10164.647872	5166.485000	1896.749023	14.230732
10164.647872	5166.485000	1895.765625	86.816658
10164.647872	5166.485000	1894.782227	69.456955
10164.647872	5166.485000	1893.798828	-8.641790
10164.647872	5166.485000	1892.814453	-4.120831
10164.647872	5166.485000	1891.831055	24.682356
10164.647872	5166.485000	1890.846680	31.616335
10164.647872	5166.485000	1889.862305	36.115669
10164.647872	5166.485000	1888.877930	-10.366939
10164.647872	5166.485000	1887.892578	23.253578
10164.647872	5166.485000	1886.908203	127.225487
10164.647872	5166.485000	1885.922852	3.104363
10164.647872	5166.485000	1884.937500	10.007425
10164.647872	5166.485000	1883.952148	-7.348694
10164.647872	5166.485000	1882.965820	79.558075
10164.647872	5166.485000	1881.980469	76.729973
10164.647872	5166.485000	1880.994141	71.473518
10164.647872	5166.485000	1880.007813	22.593227
10164.647872	5166.485000	1879.021484	68.217606
10164.647872	5166.485000	1878.035156	4.809647
10164.647872	5166.485000	1877.047852	50.408009
10164.647872	5166.485000	1876.061523	-8.142460
10164.647872	5166.485000	1875.074219	35.007191
10164.647872	5166.485000	1874.086914	32.142242
10164.647872	5166.485000	1873.098633	-45.753109
10164.647872	5166.485000	1872.111328	-5.060751
10164.647872	5166.485000	1871.123047	57.382183
10164.647872	5166.485000	1870.135742	49.649895
10164.647872	5166.485000	1869.147461	138.646439
10164.647872	5166.485000	1868.158203	5.156580
10164.647872	5166.485000	1867.169922	26.424984
10164.647872	5166.485000	1866.180664	-22.414841
10164.647872	5166.485000	1865.192383	90.663292
10164.647872	5166.485000	1864.203125	56.310455
10164.647872	5166.485000	1863.213867	-36.012436
10164.647872	5166.485000	1862.223633	52.828423
10164.647872	5166.485000	1861.234375	110.236488
10164.647872	5166.485000	1860.244141	10.687720
10164.647872	5166.485000	1859.253906	12.547626
10164.647872	5166.485000	1858.263672	-9.735161
10164.647872	5166.485000	1857.273438	52.433258
10164.647872	5166.485000	1856.282227	30.133427
10164.647872	5166.485000	1855.291992	53.661495
10164.647872	5166.485000	1854.300781	65.113693
10164.647872	5166.485000	1853.309570	4.219851
10164.647872	5166.485000	1852.317383	71.102966
10164.647872	5166.485000	1851.326172	92.158623
10164.647872	5166.485000	1850.333984	-9.699131
10164.647872	5166.485000	1849.342773	6.526409
10164.647872	5166.485000	1848.350586	-23.031507
10164.647872	5166.485000	1847.357422	31.704899
10164.647872	5166.485000	1846.365234	9.357880
10164.647872	5166.485000	1845.372070	3.861417
10164.647872	5166.485000	1844.379883	99.452065
10164.647872	5166.485000	1843.386719	2.471964
10164.647872	5166.485000	1842.393555	-43.953667
10164.647872	5166.485000	1841.399414	56.372787
10164.647872	5166.485000	1840.406250	36.391582
10164.647872	5166.485000	1839.412109	33.240932
10164.647872	5166.485000	1838.417969	22.867874
10164.647872	5166.485000	1837.423828	106.238411
10164.647872	5166.485000	1836.429688	93.431831
10164.647872	5166.485000	1835.434570	10.933802
10164.647872	5166.485000	1834.440430	-69.140747
10164.647872	5166.485000	1833.445313	21.348246
10164.647872	5166.485000	1832.450195	68.563957
10164.647872	5166.485000	1831.454102	65.327202
10164.647872	5166.485000	1830.458984	4.465172
10164.647872	5166.485000	1829.462891	22.822201
10164.647872	5166.485000	1828.466797	7.564672
10164.647872	5166.485000	1827.470703	64.281654
10164.647872	5166.485000	1826.474609	77.786583
10164.647872	5166.485000	1825.478516	134.446854
10164.647872	5166.485000	1824.481445	30.410858
10164.647872	5166.485000	1823.484375	34.291096
10164.647872	5166.485000	1822.487305	28.570440
10164.647872	5166.485000	1821.490234	-63.437183
10164.647872	5166.485000	1820.493164	-9.255733
10164.647872	5166.485000	1819.495117	-0.625032
10164.647872	5166.485000	1818.498047	-18.356060
10164.647872	5166.485000	1817.500000	-86.382797
10164.647872	5166.485000	1816.500977	140.108429
10164.647872	5166.485000	1815.502930	16.994930
10164.647872	5166.485000	1814.504883	-46.247314
10164.647872	5166.485000	1813.505859	-23.330107
10164.647872	5166.485000	1812.506836	68.950478
10164.647872	5166.485000	1811.507813	-18.221752
10164.647872	5166.485000	1810.508789	-24.057013
10164.647872	5166.485000	1809.508789	87.265312
10164.647872	5166.485000	1808.508789	74.216301
10164.647872	5166.485000	1807.508789	70.721703
10164.647872	5166.485000	1806.508789	103.063972
10164.647872	5166.485000	1805.508789	-34.262997
10164.647872	5166.485000	1804.508789	7.619191
10164.647872	5166.485000	1803.507813	68.581154
10164.647872	5166.485000	1802.506836	50.703396
10164.647872	5166.485000	1801.505859	47.146313
10164.647872	5166.485000	1800.504883	-30.422134
10164.647872	5166.485000	1799.502930	-19.667021
10164.647872	5166.485000	1798.501953	45.955875
10164.647872	5166.485000	1797.500000	23.268263
10164.647872	5166.485000	1796.498047	36.356831
10164.647872	5166.485000	1795.496094	-74.583839
10164.647872	5166.485000	1794.493164	-68.659554
10164.647872	5166.485000	1793.491211	18.306112
10164.647872	5166.485000	1792.488281	50.405510
10164.647872	5166.485000	1791.485352	49.117973
10164.647872	5166.485000	1790.482422	38.288960
10164.647872	5166.485000	1789.478516	34.597286
10164.647872	5166.485000	1788.475586	114.255623
10164.647872	5166.485000	1787.471680	112.908463
10164.647872	5166.485000	1786.467773	128.215607
10164.647872	5166.485000	1785.463867	117.321129
10164.647872	5166.485000	1784.459961	89.759438
10164.647872	5166.485000	1783.455078	81.231026
10164.647872	5166.485000	1782.450195	-10.570806
10164.647872	5166.485000	1781.445313	-7.208295
10164.647872	5166.485000	1780.440430	10.409627
10164.647872	5166.485000	1779.435547	-7.655504
10164.647872	5166.485000	1778.429688	-13.840944
10164.647872	5166.485000	1777.424805	22.746155
10164.647872	5166.485000	1776.418945	18.909971
10164.647872	5166.485000	1775.413086	7.935445
10164.647872	5166.485000	1774.406250	49.210716
10164.647872	5166.485000	1773.400391	2.586980
10164.647872	5166.485000	1772.393555	12.955486
10164.647872	5166.485000	1771.386719	4.316067
10164.647872	5166.485000	1770.379883	-37.562218
10164.647872	5166.485000	1769.373047	-3.496240
10164.647872	5166.485000	1768.365234	-50.127460
10164.647872	5166.485000	1767.358398	81.165474
10164.647872	5166.485000	1766.350586	17.910154
10164.647872	5166.485000	1765.342773	63.747604
10164.647872	5166.485000	1764.334961	-1.874892
10164.647872	5166.485000	1763.326172	13.108924
10164.647872	5166.485000	1762.318359	-2.733197
10164.647872	5166.485000	1761.309570	59.611835
10164.647872	5166.485000	1760.300781	-34.437073
10164.647872	5166.485000	1759.291016	1.810802
10164.647872	5166.485000	1758.282227	-54.324009
10164.647872	5166.485000	1757.272461	22.141960
10164.647872	5166.485000	1756.262695	3.876194
10164.647872	5166.485000	1755.252930	-80.664970
10164.647872	5166.485000	1754.243164	-9.005192
10164.647872	5166.485000	1753.233398	27.126812
10164.647872	5166.485000	1752.222656	13.557440
10164.647872	5166.485000	1751.211914	-37.858509
10164.647872	5166.485000	1750.201172	57.336765
10164.647872	5166.485000	1749.190430	-17.731943
10164.647872	5166.485000	1748.179688	11.217629
10164.647872	5166.485000	1747.167969	59.049187
10164.647872	5166.485000	1746.156250	19.428871
10164.647872	5166.485000	1745.144531	17.609402
10164.647872	5166.485000	1744.132813	39.397709
10164.647872	5166.485000	1743.121094	80.057991
10164.647872	5166.485000	1742.108398	-23.328560
10164.647872	5166.485000	1741.095703	-51.150440
10164.647872	5166.485000	1740.083008	1.268903
10164.647872	5166.485000	1739.070313	11.184404
10164.647872	5166.485000	1738.057617	14.007483
10164.647872	5166.485000	1737.043945	-77.531548
10164.647872	5166.485000	1736.030273	-1.609949
10164.647872	5166.485000	1735.016602	12.968374
10164.647872	5166.485000	1734.002930	-40.833149
10164.647872	5166.485000	1732.989258	2.008232
10164.647872	5166.485000	1731.974609	21.256477
10164.647872	5166.485000	1730.959961	-67.889885
10164.647872	5166.485000	1729.945313	-32.168350
10164.647872	5166.485000	1728.930664	69.471664
10164.647872	5166.485000	1727.916016	25.073435
10164.647872	5166.485000	1726.900391	-5.194591
10164.647872	5166.485000	1725.885742	21.030054
10164.647872	5166.485000	1724.870117	-30.426769
10164.647872	5166.485000	1723.853516	16.944242
10164.647872	5166.485000	1722.837891	-1.579103
10164.647872	5166.485000	1721.822266	69.268562
10164.647872	5166.485000	1720.805664	-17.473764
10164.647872	5166.485000	1719.789063	-75.980476
10164.647872	5166.485000	1718.772461	4.210877
10164.647872	5166.485000	1717.754883	-56.649773
10164.647872	5166.485000	1716.738281	-32.906334
10164.647872	5166.485000	1715.720703	-9.183547
10164.647872	5166.485000	1714.703125	-11.316655
10164.647872	5166.485000	1713.685547	40.553291
10164.647872	5166.485000	1712.667969	-29.697662
10164.647872	5166.485000	1711.649414	45.609066
10164.647872	5166.485000	1710.630859	-52.801430
10164.647872	5166.485000	1709.612305	-1.004035
10164.647872	5166.485000	1708.593750	27.302593
10164.647872	5166.485000	1707.575195	-7.744029
10164.647872	5166.485000	1706.555664	27.567848
10164.647872	5166.485000	1705.536133	62.856678
10164.647872	5166.485000	1704.516602	-94.110626
10164.647872	5166.485000	1703.497070	-51.799072
10164.647872	5166.485000	1702.477539	23.294579
10164.647872	5166.485000	1701.457031	63.204308
10164.647872	5166.485000	1700.437500	32.815735
10164.647872	5166.485000	1699.416992	-53.781281
10164.647872	5166.485000	1698.395508	-18.592070
10164.647872	5166.485000	1697.375000	-58.340569
10164.647872	5166.485000	1696.354492	-4.454483
10164.647872	5166.485000	1695.333008	-32.508522
10164.647872	5166.485000	1694.311523	68.128807
10164.647872	5166.485000	1693.290039	-20.769230
10164.647872	5166.485000	1692.267578	-116.660416
10164.647872	5166.485000	1691.246094	-67.536659
10164.647872	5166.485000	1690.223633	-72.216446
10164.647872	5166.485000	1689.201172	-32.488911
10164.647872	5166.485000	1688.178711	46.945843
10164.647872	5166.485000	1687.155273	9.506948
10164.647872	5166.485000	1686.132813	-9.234202
10164.647872	5166.485000	1685.109375	18.737093
10164.647872	5166.485000	1684.085938	-51.393158
10164.647872	5166.485000	1683.062500	-91.151474
10164.647872	5166.485000	1682.039063	-4.843687
10164.647872	5166.485000	1681.014648	-0.267485
10164.647872	5166.485000	1679.990234	118.641586
10164.647872	5166.485000	1678.965820	-7.474774
10164.647872	5166.485000	1677.941406	-56.573517
10164.647872	5166.485000	1676.916992	-14.706309
10164.647872	5166.485000	1675.891602	29.467312
10164.647872	5166.485000	1674.866211	19.997433
10164.647872	5166.485000	1673.840820	17.516474
10164.647872	5166.485000	1672.815430	-1.283093
10164.647872	5166.485000	1671.790039	-22.412161
10164.647872	5166.485000	1670.763672	44.977764
10164.647872	5166.485000	1669.737305	12.187288
10164.647872	5166.485000	1668.710938	53.916706
10164.647872	5166.485000	1667.684570	-2.157376
10164.647872	5166.485000	1666.658203	58.167046
10164.647872	5166.485000	1665.630859	71.915436
10164.647872	5166.485000	1664.603516	76.344978
10164.647872	5166.485000	1663.576172	57.503387
10164.647872	5166.485000	1662.548828	-19.484003
10164.647872	5166.485000	1661.520508	5.869201
10164.647872	5166.485000	1660.493164	12.608821
10164.647872	5166.485000	1659.464844	-3.907455
10164.647872	5166.485000	1658.436523	26.058548
10164.647872	5166.485000	1657.408203	81.567474
10164.647872	5166.485000	1656.378906	58.058830
10164.647872	5166.485000	1655.350586	22.942244
10164.647872	5166.485000	1654.321289	59.822926
10164.647872	5166.485000	1653.291992	115.258415
10164.647872	5166.485000	1652.261719	166.022659
10164.647872	5166.485000	1651.232422	107.680122
10164.647872	5166.485000	1650.202148	100.403847
10164.647872	5166.485000	1649.171875	69.925224
10164.647872	5166.485000	1648.141602	167.030975
10164.647872	5166.485000	1647.111328	185.243668
10164.647872	5166.485000	1646.080078	126.925850
10164.647872	5166.485000	1645.049805	57.037071
10164.647872	5166.485000	1644.018555	110.012047
10164.647872	5166.485000	1642.987305	98.076561
10164.647872	5166.485000	1641.955078	67.604401
10164.647872	5166.485000	1640.923828	44.091251
10164.647872	5166.485000	1639.891602	83.113419
10164.647872	5166.485000	1638.859375	200.845184
10164.647872	5166.485000	1637.827148	158.785706
10164.647872	5166.485000	1636.794922	181.549088
10164.647872	5166.485000	1635.761719	114.044006
10164.647872	5166.485000	1634.729492	157.624359
10164.647872	5166.485000	1633.696289	161.855896
10164.647872	5166.485000	1632.662109	96.695045
10164.647872	5166.485000	1631.628906	40.808189
10164.647872	5166.485000	1630.594727	197.638046
10164.647872	5166.485000	1629.561523	150.993591
10164.647872	5166.485000	1628.527344	58.141281
10164.647872	5166.485000	1627.493164	152.481750
10164.647872	5166.485000	1626.458008	48.107243
10164.647872	5166.485000	1625.423828	144.717880
10164.647872	5166.485000	1624.388672	58.854752
10164.647872	5166.485000	1623.353516	153.110397
10164.647872	5166.485000	1622.318359	90.358711
10164.647872	5166.485000	1621.282227	48.398502
10164.647872	5166.485000	1620.247070	253.353958
10164.647872	5166.485000	1619.210938	96.023956
10164.647872	5166.485000	1618.174805	187.863129
10164.647872	5166.485000	1617.137695	166.663177
10164.647872	5166.485000	1616.101563	143.166489
10164.647872	5166.485000	1615.064453	232.631638
10164.647872	5166.485000	1614.027344	220.650955
10164.647872	5166.485000	1612.990234	257.064636
10164.647872	5166.485000	1611.953125	189.788605
10164.647872	5166.485000	1610.916016	157.089539
10164.647872	5166.485000	1609.877930	126.703758
10164.647872	5166.485000	1608.839844	227.573441
10164.647872	5166.485000	1607.801758	319.195007
10164.647872	5166.485000	1606.763672	173.712418
10164.647872	5166.485000	1605.724609	318.233551
10164.647872	5166.485000	1604.685547	223.421738
10164.647872	5166.485000	1603.646484	239.061066
10164.647872	5166.485000	1602.607422	236.295425
10164.647872	5166.485000	1601.568359	286.417450
10164.647872	5166.485000	1600.528320	221.571136
10164.647872	5166.485000	1599.489258	322.244476
10164.647872	5166.485000	1598.449219	243.629395
10164.647872	5166.485000	1597.408203	188.019775
10164.647872	5166.485000	1596.368164	203.646698
10164.647872	5166.485000	1595.327148	295.057373
10164.647872	5166.485000	1594.287109	271.623322
10164.647872	5166.485000	1593.246094	303.296753
10164.647872	5166.485000	1592.204102	217.894241
10164.647872	5166.485000	1591.163086	238.094360
10164.647872	5166.485000	1590.121094	189.452652
10164.647872	5166.485000	1589.079102	312.882446
10164.647872	5166.485000	1588.037109	333.055542
10164.647872	5166.485000	1586.995117	279.843353
10164.647872	5166.485000	1585.953125	325.238922
10164.647872	5166.485000	1584.910156	327.064545
10164.647872	5166.485000	1583.867188	250.972092
10164.647872	5166.485000	1582.824219	220.738510
10164.647872	5166.485000	1581.781250	229.464035
10164.647872	5166.485000	1580.737305	311.480499
10164.647872	5166.485000	1579.693359	240.039566
10164.647872	5166.485000	1578.649414	184.656494
10164.647872	5166.485000	1577.605469	307.846313
10164.647872	5166.485000	1576.561523	291.384796
10164.647872	5166.485000	1575.516602	254.337646
10164.647872	5166.485000	1574.472656	382.027161
10164.647872	5166.485000	1573.427734	306.100281
10164.647872	5166.485000	1572.381836	218.770813
10164.647872	5166.485000	1571.336914	325.824615
10164.647872	5166.485000	1570.291016	341.400848
10164.647872	5166.485000	1569.246094	338.693115
10164.647872	5166.485000	1568.200195	370.264679
10164.647872	5166.485000	1567.153320	356.134460
10164.647872	5166.485000	1566.107422	328.311462
10164.647872	5166.485000	1565.060547	225.140213
10164.647872	5166.485000	1564.013672	247.592804
10164.647872	5166.485000	1562.966797	311.132263
10164.647872	5166.485000	1561.919922	281.075317
10164.647872	5166.485000	1560.872070	205.395508
10164.647872	5166.485000	1559.825195	163.974548
10164.647872	5166.485000	1558.777344	252.590652
10164.647872	5166.485000	1557.729492	220.308136
10164.647872	5166.485000	1556.680664	128.759247
10164.647872	5166.485000	1555.632813	183.152527
10164.647872	5166.485000	1554.583984	134.963760
10164.647872	5166.485000	1553.535156	161.999435
10164.647872	5166.485000	1552.486328	152.577774
10164.647872	5166.485000	1551.436523	136.330566
10164.647872	5166.485000	1550.387695	108.711174
10164.647872	5166.485000	1549.337891	122.092896
10164.647872	5166.485000	1548.288086	244.748993
10164.647872	5166.485000	1547.238281	116.995728
10164.647872	5166.485000	1546.187500	178.174881
10164.647872	5166.485000	1545.136719	191.558212
10164.647872	5166.485000	1544.086914	170.824432
10164.647872	5166.485000	1543.035156	204.685425
10164.647872	5166.485000	1541.984375	152.136581
10164.647872	5166.485000	1540.933594	124.623192
10164.647872	5166.485000	1539.881836	178.952652
10164.647872	5166.485000	1538.830078	171.911316
10164.647872	5166.485000	1537.778320	237.585968
10164.647872	5166.485000	1536.725586	207.834076
10164.647872	5166.485000	1535.673828	137.223297
10164.647872	5166.485000	1534.621094	132.497009
10164.647872	5166.485000	1533.568359	227.672501
10164.647872	5166.485000	1532.515625	145.774033
10164.647872	5166.485000	1531.461914	86.608582
10164.647872	5166.485000	1530.409180	202.182922
10164.647872	5166.485000	1529.355469	111.289101
10164.647872	5166.485000	1528.301758	220.025162
10164.647872	5166.485000	1527.247070	185.869263
10164.647872	5166.485000	1526.193359	106.395454
10164.647872	5166.485000	1525.138672	165.227676
10164.647872	5166.485000	1524.083984	115.267380
10164.647872	5166.485000	1523.029297	74.399933
10164.647872	5166.485000	1521.974609	-0.421674
10164.647872	5166.485000	1520.918945	112.779289
10164.647872	5166.485000	1519.863281	235.002884
10164.647872	5166.485000	1518.807617	146.638626
10164.647872	5166.485000	1517.751953	196.394623
10164.647872	5166.485000	1516.696289	78.673317
10164.647872	5166.485000	1515.639648	157.856537
10164.647872	5166.485000	1514.583008	71.879326
10164.647872	5166.485000	1513.526367	101.295761
10164.647872	5166.485000	1512.469727	40.259491
10164.647872	5166.485000	1511.412109	117.168015
10164.647872	5166.485000	1510.355469	51.653908
10164.647872	5166.485000	1509.297852	8.774755
10164.647872	5166.485000	1508.240234	26.930386
10164.647872	5166.485000	1507.181641	139.968765
10164.647872	5166.485000	1506.124023	27.114920
10164.647872	5166.485000	1505.065430	52.063232
10164.647872	5166.485000	1504.006836	74.755722
10164.647872	5166.485000	1502.948242	97.450783
10164.647872	5166.485000	1501.888672	50.186138
10164.647872	5166.485000	1500.830078	59.362965
10164.647872	5166.485000	1499.770508	-17.178255
10164.647872	5166.485000	1498.710938	52.928516
10164.647872	5166.485000	1497.650391	53.112637
10164.647872	5166.485000	1496.590820	161.530075
10164.647872	5166.485000	1495.530273	204.545822
10164.647872	5166.485000	1494.469727	110.082741
10164.647872	5166.485000	1493.409180	105.799133
10164.647872	5166.485000	1492.348633	229.938232
10164.647872	5166.485000	1491.287109	160.338913
10164.647872	5166.485000	1490.225586	268.679352
10164.647872	5166.485000	1489.164063	228.394699
10164.647872	5166.485000	1488.102539	226.406174
10164.647872	5166.485000	1487.041016	237.934555
10164.647872	5166.485000	1485.978516	197.718430
10164.647872	5166.485000	1484.916016	137.272324
10164.647872	5166.485000	1483.853516	79.137604
10164.647872	5166.485000	1482.791016	48.013790
10164.647872	5166.485000	1481.727539	37.145370
10164.647872	5166.485000	1480.664063	71.253868
10164.647872	5166.485000	1479.600586	40.196041
10164.647872	5166.485000	1478.537109	40.608200
10164.647872	5166.485000	1477.473633	34.317814
10164.647872	5166.485000	1476.409180	-21.396643
10164.647872	5166.485000	1475.344727	17.230713
10164.647872	5166.485000	1474.280273	58.133060
10164.647872	5166.485000	1473.215820	-42.328693
10164.647872	5166.485000	1472.151367	148.855042
10164.647872	5166.485000	1471.085938	23.764568
10164.647872	5166.485000	1470.020508	28.801926
10164.647872	5166.485000	1468.955078	51.700089
10164.647872	5166.485000	1467.888672	-35.043365
10164.647872	5166.485000	1466.823242	32.697468
10164.647872	5166.485000	1465.756836	-42.694859
10164.647872	5166.485000	1464.690430	-42.055935
10164.647872	5166.485000	1463.624023	-144.359573
10164.647872	5166.485000	1462.556641	26.140406
10164.647872	5166.485000	1461.490234	26.817802
10164.647872	5166.485000	1460.422852	-43.944939
10164.647872	5166.485000	1459.355469	-103.640457
10164.647872	5166.485000	1458.287109	55.736259
10164.647872	5166.485000	1457.219727	47.285461
10164.647872	5166.485000	1456.151367	-5.525822
10164.647872	5166.485000	1455.083008	-6.850942
10164.647872	5166.485000	1454.014648	-73.283356
10164.647872	5166.485000	1452.945313	-16.425879
10164.647872	5166.485000	1451.876953	-37.855427
10164.647872	5166.485000	1450.807617	-68.358734
10164.647872	5166.485000	1449.738281	-60.856564
10164.647872	5166.485000	1448.668945	51.654057
10164.647872	5166.485000	1447.598633	-31.967705
10164.647872	5166.485000	1446.528320	35.400787
10164.647872	5166.485000	1445.458008	-45.685730
10164.647872	5166.485000	1444.387695	-38.384941
10164.647872	5166.485000	1443.317383	-121.879417
10164.647872	5166.485000	1442.246094	-134.373642
10164.647872	5166.485000	1441.174805	-19.069532
10164.647872	5166.485000	1440.103516	-23.090330
10164.647872	5166.485000	1439.032227	28.646757
10164.647872	5166.485000	1437.960938	22.751871
10164.647872	5166.485000	1436.888672	14.774498
10164.647872	5166.485000	1435.816406	-54.975136
10164.647872	5166.485000	1434.744141	15.624579
10164.647872	5166.485000	1433.670898	93.402718
10164.647872	5166.485000	1432.598633	-19.720890
10164.647872	5166.485000	1431.525391	35.352806
10164.647872	5166.485000	1430.452148	133.896835
10164.647872	5166.485000	1429.378906	11.604340
10164.647872	5166.485000	1428.304688	84.524673
10164.647872	5166.485000	1427.231445	-59.294071
10164.647872	5166.485000	1426.157227	-9.905772
10164.647872	5166.485000	1425.083008	-12.008188
10164.647872	5166.485000	1424.007813	24.145609
10164.647872	5166.485000	1422.933594	-8.860291
10164.647872	5166.485000	1421.858398	-66.988335
10164.647872	5166.485000	1420.783203	0.629083
10164.647872	5166.485000	1419.708008	-5.477024
10164.647872	5166.485000	1418.631836	-71.324791
10164.647872	5166.485000	1417.555664	-43.021515
10164.647872	5166.485000	1416.479492	-125.649223
10164.647872	5166.485000	1415.403320	26.830418
10164.647872	5166.485000	1414.327148	-72.210754
10164.647872	5166.485000	1413.250000	-6.388224
10164.647872	5166.485000	1412.173828	-49.326229
10164.647872	5166.485000	1411.096680	17.739399
10164.647872	5166.485000	1410.018555	35.441036
10164.647872	5166.485000	1408.941406	37.747837
10164.647872	5166.485000	1407.863281	61.763432
10164.647872	5166.485000	1406.785156	23.392788
10164.647872	5166.485000	1405.707031	11.423263
10164.647872	5166.485000	1404.628906	71.659042
10164.647872	5166.485000	1403.549805	-50.007156
10164.647872	5166.485000	1402.470703	-80.380875
10164.647872	5166.485000	1401.391602	81.618439
10164.647872	5166.485000	1400.312500	37.797909
10164.647872	5166.485000	1399.233398	-17.230909
10164.647872	5166.485000	1398.153320	-26.898962
10164.647872	5166.485000	1397.073242	-31.529942
10164.647872	5166.485000	1395.993164	-31.366297
10164.647872	5166.485000	1394.913086	122.775795
10164.647872	5166.485000	1393.832031	3.585314
10164.647872	5166.485000	1392.750977	24.117409
10164.647872	5166.485000	1391.669922	57.434067
10164.647872	5166.485000	1390.588867	77.080681
10164.647872	5166.485000	1389.506836	16.432074
10164.647872	5166.485000	1388.425781	4.866454
10164.647872	5166.485000	1387.343750	23.521709
10164.647872	5166.485000	1386.261719	-30.802731
10164.647872	5166.485000	1385.178711	-38.055706
10164.647872	5166.485000	1384.096680	33.691875
10164.647872	5166.485000	1383.013672	-23.673681
10164.647872	5166.485000	1381.930664	25.204355
10164.647872	5166.485000	1380.846680	26.082771
10164.647872	5166.485000	1379.763672	-9.804050
10164.647872	5166.485000	1378.679688	-43.760120
10164.647872	5166.485000	1377.595703	-31.175594
10164.647872	5166.485000	1376.511719	-56.466045
10164.647872	5166.485000	1375.427734	6.014241
10164.647872	5166.485000	1374.342773	22.398838
10164.647872	5166.485000	1373.257813	50.924721
10164.647872	5166.485000	1372.172852	2.490274
10164.647872	5166.485000	1371.087891	4.588619
10164.647872	5166.485000	1370.001953	-3.389286
10164.647872	5166.485000	1368.916992	-21.858793
10164.647872	5166.485000	1367.831055	115.862961
10164.647872	5166.485000	1366.744141	62.263752
10164.647872	5166.485000	1365.658203	8.636395
10164.647872	5166.485000	1364.571289	120.213150
10164.647872	5166.485000	1363.484375	66.560425
10164.647872	5166.485000	1362.397461	50.037540
10164.647872	5166.485000	1361.310547	117.416649
10164.647872	5166.485000	1360.222656	142.255341
10164.647872	5166.485000	1359.135742	21.386034
10164.647872	5166.485000	1358.047852	70.473770
10164.647872	5166.485000	1356.958984	138.671616
10164.647872	5166.485000	1355.871094	145.804810
10164.647872	5166.485000	1354.782227	-10.378519
10164.647872	5166.485000	1353.693359	28.354172
10164.647872	5166.485000	1352.604492	233.465942
10164.647872	5166.485000	1351.515625	51.613216
10164.647872	5166.485000	1350.425781	6.300722
10164.647872	5166.485000	1349.335938	87.147400
10164.647872	5166.485000	1348.246094	78.506439
10164.647872	5166.485000	1347.156250	51.819908
10164.647872	5166.485000	1346.066406	100.927338
10164.647872	5166.485000	1344.975586	61.388199
10164.647872	5166.485000	1343.884766	76.959045
10164.647872	5166.485000	1342.793945	152.134186
10164.647872	5166.485000	1341.702148	76.647224
10164.647872	5166.485000	1340.611328	157.233612
10164.647872	5166.485000	1339.519531	149.217804
10164.647872	5166.485000	1338.427734	91.468346
10164.647872	5166.485000	1337.334961	37.095585
10164.647872	5166.485000	1336.243164	-27.588951
10164.647872	5166.485000	1335.150391	50.813755
10164.647872	5166.485000	1334.057617	-7.650567
10164.647872	5166.485000	1332.964844	69.417892
10164.647872	5166.485000	1331.871094	25.873446
10164.647872	5166.485000	1330.778320	47.844616
10164.647872	5166.485000	1329.684570	36.986412
10164.647872	5166.485000	1328.590820	32.652100
10164.647872	5166.485000	1327.496094	73.449699
10164.647872	5166.485000	1326.402344	26.375313
10164.647872	5166.485000	1325.307617	65.163383
10164.647872	5166.485000	1324.212891	74.238167
10164.647872	5166.485000	1323.117188	70.600555
10164.647872	5166.485000	1322.022461	47.567345
10164.647872	5166.485000	1320.926758	9.154079
10164.647872	5166.485000	1319.831055	71.939018
10164.647872	5166.485000	1318.735352	8.952583
10164.647872	5166.485000	1317.638672	70.345612
10164.647872	5166.485000	1316.542969	81.526566
10164.647872	5166.485000	1315.446289	48.694702
10164.647872	5166.485000	1314.349609	165.992432
10164.647872	5166.485000	1313.251953	82.331139
10164.647872	5166.485000	1312.155273	38.396774
10164.647872	5166.485000	1311.057617	45.743420
10164.647872	5166.485000	1309.959961	90.189697
10164.647872	5166.485000	1308.862305	117.699127
10164.647872	5166.485000	1307.763672	126.222443
10164.647872	5166.485000	1306.665039	110.418816
10164.647872	5166.485000	1305.566406	124.105988
10164.647872	5166.485000	1304.467773	13.880540
10164.647872	5166.485000	1303.369141	94.684731
10164.647872	5166.485000	1302.269531	39.031605
10164.647872	5166.485000	1301.169922	11.590279
10164.647872	5166.485000	1300.070313	114.124306
10164.647872	5166.485000	1298.970703	132.970734
10164.647872	5166.485000	1297.870117	15.455123
10164.647872	5166.485000	1296.769531	-57.488300
10164.647872	5166.485000	1295.668945	-62.758343
10164.647872	5166.485000	1294.568359	39.368500
10164.647872	5166.485000	1293.466797	60.444416
10164.647872	5166.485000	1292.366211	87.023613
10164.647872	5166.485000	1291.264648	55.811909
10164.647872	5166.485000	1290.162109	86.632202
10164.647872	5166.485000	1289.060547	45.812077
10164.647872	5166.485000	1287.958008	56.122349
10164.647872	5166.485000	1286.855469	54.707336
10164.647872	5166.485000	1285.752930	86.874275
10164.647872	5166.485000	1284.650391	85.501953
10164.647872	5166.485000	1283.546875	98.919968
10164.647872	5166.485000	1282.444336	184.293198
10164.647872	5166.485000	1281.339844	115.126839
10164.647872	5166.485000	1280.236328	152.360504
10164.647872	5166.485000	1279.132813	86.941483
10164.647872	5166.485000	1278.028320	165.142761
10164.647872	5166.485000	1276.923828	30.387634
10164.647872	5166.485000	1275.819336	-19.186588
10164.647872	5166.485000	1274.713867	29.444586
10164.647872	5166.485000	1273.608398	17.434635
10164.647872	5166.485000	1272.503906	53.447514
10164.647872	5166.485000	1271.397461	78.233749
10164.647872	5166.485000	1270.291992	52.613335
10164.647872	5166.485000	1269.185547	23.079287
10164.647872	5166.485000	1268.080078	40.408081
10164.647872	5166.485000	1266.972656	19.007069
10164.647872	5166.485000	1265.866211	54.423458
10164.647872	5166.485000	1264.759766	-52.952011
10164.647872	5166.485000	1263.652344	-9.733950
10164.647872	5166.485000	1262.544922	73.768158
10164.647872	5166.485000	1261.436523	18.120136
10164.647872	5166.485000	1260.329102	-33.157978
10164.647872	5166.485000	1259.220703	-76.985664
10164.647872	5166.485000	1258.112305	-38.880188
10164.647872	5166.485000	1257.003906	-24.201561
10164.647872	5166.485000	1255.895508	-52.947239
10164.647872	5166.485000	1254.786133	-58.917576
10164.647872	5166.485000	1253.676758	-110.011955
10164.647872	5166.485000	1252.567383	-95.197792
10164.647872	5166.485000	1251.458008	-88.414215
10164.647872	5166.485000	1250.347656	-30.223988
10164.647872	5166.485000	1249.237305	-46.040199
10164.647872	5166.485000	1248.126953	-31.347363
10164.647872	5166.485000	1247.016602	-58.820431
10164.647872	5166.485000	1245.905273	-81.344185
10164.647872	5166.485000	1244.793945	-15.318059
10164.647872	5166.485000	1243.682617	-80.407959
10164.647872	5166.485000	1242.571289	67.215057
10164.647872	5166.485000	1241.459961	-30.459635
10164.647872	5166.485000	1240.347656	16.722496
10164.647872	5166.485000	1239.235352	72.920349
10164.647872	5166.485000	1238.123047	7.556636
10164.647872	5166.485000	1237.009766	-8.047347
10164.647872	5166.485000	1235.897461	-6.804894
10164.647872	5166.485000	1234.784180	44.648422
10164.647872	5166.485000	1233.670898	23.497852
10164.647872	5166.485000	1232.556641	-73.795891
10164.647872	5166.485000	1231.443359	42.007195
10164.647872	5166.485000	1230.329102	-84.478683
10164.647872	5166.485000	1229.214844	18.312325
10164.647872	5166.485000	1228.099609	14.307013
10164.647872	5166.485000	1226.985352	-2.637946
10164.647872	5166.485000	1225.870117	55.177132
10164.647872	5166.485000	1224.754883	57.113003
10164.647872	5166.485000	1223.639648	30.949799
10164.647872	5166.485000	1222.523438	47.052555
10164.647872	5166.485000	1221.408203	44.072361
10164.647872	5166.485000	1220.291992	8.520687
10164.647872	5166.485000	1219.174805	51.247490
10164.647872	5166.485000	1218.058594	40.354286
10164.647872	5166.485000	1216.941406	103.716812
10164.647872	5166.485000	1215.824219	81.588890
10164.647872	5166.485000	1214.707031	-19.782080
10164.647872	5166.485000	1213.589844	74.437019
10164.647872	5166.485000	1212.471680	14.588538
10164.647872	5166.485000	1211.353516	28.665045
10164.647872	5166.485000	1210.235352	45.934223
10164.647872	5166.485000	1209.117188	13.680353
10164.647872	5166.485000	1207.998047	8.000915
10164.647872	5166.485000	1206.878906	-52.357861
10164.647872	5166.485000	1205.759766	97.576546
10164.647872	5166.485000	1204.640625	28.303267
10164.647872	5166.485000	1203.520508	-20.778715
10164.647872	5166.485000	1202.401367	10.056614
10164.647872	5166.485000	1201.281250	3.414752
10164.647872	5166.485000	1200.160156	7.277249
10164.647872	5166.485000	1199.040039	-17.057859
10164.647872	5166.485000	1197.918945	-4.235568
10164.647872	5166.485000	1196.797852	32.928844
10164.647872	5166.485000	1195.676758	9.114677
10164.647872	5166.485000	1194.555664	76.829369
10164.647872	5166.485000	1193.433594	37.643536
10164.647872	5166.485000	1192.311523	36.742390
10164.647872	5166.485000	1191.189453	7.413391
10164.647872	5166.485000	1190.066406	32.311146
10164.647872	5166.485000	1188.944336	-86.933525
10164.647872	5166.485000	1187.821289	-19.764465
10164.647872	5166.485000	1186.698242	51.010880
10164.647872	5166.485000	1185.574219	-47.310081
10164.647872	5166.485000	1184.451172	62.047054
10164.647872	5166.485000	1183.327148	67.367195
10164.647872	5166.485000	1182.203125	-37.547981
10164.647872	5166.485000	1181.078125	28.817694
10164.647872	5166.485000	1179.954102	-21.359270
10164.647872	5166.485000	1178.829102	52.092991
10164.647872	5166.485000	1177.704102	-31.028719
10164.647872	5166.485000	1176.579102	-97.129791
10164.647872	5166.485000	1175.453125	-28.520008
10164.647872	5166.485000	1174.327148	21.710005
10164.647872	5166.485000	1173.201172	-73.992851
10164.647872	5166.485000	1172.075195	-30.732225
10164.647872	5166.485000	1170.949219	20.840158
10164.647872	5166.485000	1169.822266	-1.960739
10164.647872	5166.485000	1168.695313	13.639956
10164.647872	5166.485000	1167.568359	-10.208709
10164.647872	5166.485000	1166.440430	-4.469851
10164.647872	5166.485000	1165.313477	-45.945133
10164.647872	5166.485000	1164.185547	-41.627087
10164.647872	5166.485000	1163.057617	18.570469
10164.647872	5166.485000	1161.928711	-60.240650
10164.647872	5166.485000	1160.800781	-60.761486
10164.647872	5166.485000	1159.671875	3.251731
10164.647872	5166.485000	1158.541992	22.853079
10164.647872	5166.485000	1157.413086	112.462387
10164.647872	5166.485000	1156.283203	28.383230
10164.647872	5166.485000	1155.154297	-1.483100
10164.647872	5166.485000	1154.023438	-4.997029
10164.647872	5166.485000	1152.893555	39.887932
10164.647872	5166.485000	1151.763672	80.173477
10164.647872	5166.485000	1150.632813	63.659378
10164.647872	5166.485000	1149.501953	105.211899
10164.647872	5166.485000	1148.370117	65.072701
10164.647872	5166.485000	1147.239258	19.848970
10164.647872	5166.485000	1146.107422	48.719189
10164.647872	5166.485000	1144.975586	72.950279
10164.647872	5166.485000	1143.843750	85.426674
10164.647872	5166.485000	1142.710938	51.301128
10164.647872	5166.485000	1141.578125	40.777851
10164.647872	5166.485000	1140.445313	-10.539499
10164.647872	5166.485000	1139.312500	25.560654
10164.647872	5166.485000	1138.178711	-8.561426
10164.647872	5166.485000	1137.045898	-92.597260
10164.647872	5166.485000	1135.912109	21.304876
10164.647872	5166.485000	1134.777344	55.991306
10164.647872	5166.485000	1133.643555	4.551557
10164.647872	5166.485000	1132.508789	55.950596
10164.647872	5166.485000	1131.374023	16.065060
10164.647872	5166.485000	1130.239258	37.548420
10164.647872	5166.485000	1129.104492	38.789024
10164.647872	5166.485000	1127.968750	88.865349
10164.647872	5166.485000	1126.833008	-0.449951
10164.647872	5166.485000	1125.697266	42.844025
10164.647872	5166.485000	1124.560547	-46.021431
10164.647872	5166.485000	1123.424805	-52.609497
10164.647872	5166.485000	1122.288086	-11.311023
10164.647872	5166.485000	1121.151367	-31.709269
10164.647872	5166.485000	1120.013672	-48.532192
10164.647872	5166.485000	1118.876953	-69.093155
10164.647872	5166.485000	1117.739258	26.136866
10164.647872	5166.485000	1116.601563	-30.854557
10164.647872	5166.485000	1115.462891	-96.712891
10164.647872	5166.485000	1114.324219	19.789459
10164.647872	5166.485000	1113.186523	94.424538
10164.647872	5166.485000	1112.046875	-4.572811
10164.647872	5166.485000	1110.908203	-37.723206
10164.647872	5166.485000	1109.769531	-37.323730
10164.647872	5166.485000	1108.629883	-98.178093
10164.647872	5166.485000	1107.490234	37.445248
10164.647872	5166.485000	1106.349609	17.077049
10164.647872	5166.485000	1105.209961	39.275249
10164.647872	5166.485000	1104.069336	-72.050201
10164.647872	5166.485000	1102.928711	9.813472
10164.647872	5166.485000	1101.787109	22.173615
10164.647872	5166.485000	1100.646484	-40.006004
10164.647872	5166.485000	1099.504883	29.596123
10164.647872	5166.485000	1098.363281	21.229683
10164.647872	5166.485000	1097.221680	-1.524071
10164.647872	5166.485000	1096.079102	-46.488457
10164.647872	5166.485000	1094.936523	3.039373
10164.647872	5166.485000	1093.793945	18.940229
10164.647872	5166.485000	1092.651367	-36.040077
10164.647872	5166.485000	1091.507813	31.038530
10164.647872	5166.485000	1090.364258	0.385046
10164.647872	5166.485000	1089.220703	53.214027
10164.647872	5166.485000	1088.077148	56.060349
10164.647872	5166.485000	1086.933594	37.447414
10164.647872	5166.485000	1085.789063	-35.790447
10164.647872	5166.485000	1084.644531	-35.021828
10164.647872	5166.485000	1083.499023	-20.450743
10164.647872	5166.485000	1082.354492	29.191080
10164.647872	5166.485000	1081.208984	-26.170860
10164.647872	5166.485000	1080.063477	-3.263275
10164.647872	5166.485000	1078.917969	31.848625
10164.647872	5166.485000	1077.771484	67.463226
10164.647872	5166.485000	1076.625977	56.307896
10164.647872	5166.485000	1075.479492	48.990650
10164.647872	5166.485000	1074.332031	60.120342
10164.647872	5166.485000	1073.185547	9.233947
10164.647872	5166.485000	1072.038086	52.627193
10164.647872	5166.485000	1070.890625	18.141323
10164.647872	5166.485000	1069.743164	92.270218
10164.647872	5166.485000	1068.594727	-95.091103
10164.647872	5166.485000	1067.447266	106.833687
10164.647872	5166.485000	1066.298828	67.620270
10164.647872	5166.485000	1065.149414	46.688526
10164.647872	5166.485000	1064.000977	99.752113
10164.647872	5166.485000	1062.851563	80.734543
10164.647872	5166.485000	1061.702148	33.376328
10164.647872	5166.485000	1060.552734	70.281456
10164.647872	5166.485000	1059.402344	82.506996
10164.647872	5166.485000	1058.252930	39.726170
10164.647872	5166.485000	1057.102539	-0.481339
10164.647872	5166.485000	1055.951172	82.528496
10164.647872	5166.485000	1054.800781	-9.195322
10164.647872	5166.485000	1053.649414	-47.164452
10164.647872	5166.485000	1052.498047	125.597527
10164.647872	5166.485000	1051.346680	67.007607
10164.647872	5166.485000	1050.194336	9.626702
10164.647872	5166.485000	1049.042969	-7.216539
10164.647872	5166.485000	1047.890625	-16.929621
10164.647872	5166.485000	1046.738281	-37.530945
10164.647872	5166.485000	1045.584961	73.473717
10164.647872	5166.485000	1044.431641	-14.731873
10164.647872	5166.485000	1043.278320	84.750504
10164.647872	5166.485000	1042.125000	109.553436
10164.647872	5166.485000	1040.971680	65.700371
10164.647872	5166.485000	1039.817383	-23.616982
10164.647872	5166.485000	1038.663086	122.443398
10164.647872	5166.485000	1037.508789	64.240173
10164.647872	5166.485000	1036.353516	28.200853
10164.647872	5166.485000	1035.198242	-18.833717
10164.647872	5166.485000	1034.042969	49.614758
10164.647872	5166.485000	1032.887695	142.794601
10164.647872	5166.485000	1031.732422	80.588165
10164.647872	5166.485000	1030.576172	124.352379
10164.647872	5166.485000	1029.419922	37.151745
10164.647872	5166.485000	1028.263672	32.301983
10164.647872	5166.485000	1027.106445	107.087959
10164.647872	5166.485000	1025.949219	28.325453
10164.647872	5166.485000	1024.792969	96.191353
10164.647872	5166.485000	1023.634766	90.767937
10164.647872	5166.485000	1022.477539	14.786239
10164.647872	5166.485000	1021.319336	57.385983
10164.647872	5166.485000	1020.161133	196.227478
10164.647872	5166.485000	1019.002930	121.726776
10164.647872	5166.485000	1017.843750	32.639397
10164.647872	5166.485000	1016.684570	70.093452
10164.647872	5166.485000	1015.525391	42.945431
10164.647872	5166.485000	1014.366211	96.284988
10164.647872	5166.485000	1013.207031	21.491566
10164.647872	5166.485000	1012.046875	-5.170078
10164.647872	5166.485000	1010.886719	-64.535896
10164.647872	5166.485000	1009.726563	-35.558720
10164.647872	5166.485000	1008.565430	-15.459889
10164.647872	5166.485000	1007.404297	45.961037
10164.647872	5166.485000	1006.243164	6.546898
10164.647872	5166.485000	1005.082031	-84.439796
10164.647872	5166.485000	1003.920898	59.627468
10164.647872	5166.485000	1002.758789	18.521954
10164.647872	5166.485000	1001.596680	46.430473
10164.647872	5166.485000	1000.433594	14.576705
10164.647872	5166.485000	999.271484	88.082825
10164.647872	5166.485000	998.108398	121.173203
10164.647872	5166.485000	996.945313	150.277374
10164.647872	5166.485000	995.782227	63.051414
10164.647872	5166.485000	994.618164	90.800262
10164.647872	5166.485000	993.454102	83.974480
10164.647872	5166.485000	992.290039	110.957184
10164.647872	5166.485000	991.125977	228.433258
10164.647872	5166.485000	989.960938	136.316040
10164.647872	5166.485000	988.796875	179.668976
10164.647872	5166.485000	987.630859	99.931320
10164.647872	5166.485000	986.465820	152.903488
10164.647872	5166.485000	985.300781	104.514893
10164.647872	5166.485000	984.134766	107.593857
10164.647872	5166.485000	982.968750	155.697708
10164.647872	5166.485000	981.801758	102.410606
10164.647872	5166.485000	980.635742	155.845932
10164.647872	5166.485000	979.468750	34.056484
10164.647872	5166.485000	978.301758	66.235329
10164.647872	5166.485000	977.133789	37.272038
10164.647872	5166.485000	975.966797	21.721468
10164.647872	5166.485000	974.798828	-31.588762
10164.647872	5166.485000	973.630859	64.351120
10164.647872	5166.485000	972.461914	23.525137
10164.647872	5166.485000	971.293945	85.330238
10164.647872	5166.485000	970.125000	48.173347
10164.647872	5166.485000	968.956055	-65.725777
10164.647872	5166.485000	967.786133	-59.716389
10164.647872	5166.485000	966.617188	-15.097774
10164.647872	5166.485000	965.447266	35.938065
10164.647872	5166.485000	964.276367	65.662926
10164.647872	5166.485000	963.106445	69.594940
10164.647872	5166.485000	961.935547	-18.415695
10164.647872	5166.485000	960.764648	21.372562
10164.647872	5166.485000	959.593750	20.699305
10164.647872	5166.485000	958.422852	3.881757
10164.647872	5166.485000	957.250977	40.488346
10164.647872	5166.485000	956.079102	-34.101669
10164.647872	5166.485000	954.907227	47.110336
10164.647872	5166.485000	953.734375	51.625145
10164.647872	5166.485000	952.562500	151.252991
10164.647872	5166.485000	951.389648	-30.292988
10164.647872	5166.485000	950.215820	46.187233
10164.647872	5166.485000	949.042969	106.366714
10164.647872	5166.485000	947.869141	10.756414
10164.647872	5166.485000	946.695313	-50.065880
10164.647872	5166.485000	945.521484	3.251982
10164.647872	5166.485000	944.346680	7.628222
10164.647872	5166.485000	943.172852	-46.223038
10164.647872	5166.485000	941.998047	-30.080437
10164.647872	5166.485000	940.822266	-14.180220
10164.647872	5166.485000	939.647461	48.084095
10164.647872	5166.485000	938.471680	-59.035633
10164.647872	5166.485000	937.295898	17.335045
10164.647872	5166.485000	936.119141	7.709548
10164.647872	5166.485000	934.943359	44.582573
10164.647872	5166.485000	933.766602	-67.200066
10164.647872	5166.485000	932.589844	-16.439430
10164.647872	5166.485000	931.413086	29.654861
10164.647872	5166.485000	930.235352	57.142097
10164.647872	5166.485000	929.057617	-31.357632
10164.647872	5166.485000	927.879883	12.353771
10164.647872	5166.485000	926.702148	-34.389862
10164.647872	5166.485000	925.523438	51.091843
10164.647872	5166.485000	924.344727	27.537882
10164.647872	5166.485000	923.166016	59.638298
10164.647872	5166.485000	921.987305	-14.923227
10164.647872	5166.485000	920.807617	17.170876
10164.647872	5166.485000	919.627930	17.275585
10164.647872	5166.485000	919.497070	5.226004
10164.647872	5166.485000	918.331055	-18.315638
10164.647872	5166.485000	917.165039	-104.400108
10164.647872	5166.485000	915.999023	18.000999
10164.647872	5166.485000	914.833008	-58.799725
10164.647872	5166.485000	913.666016	-38.333370
10164.647872	5166.485000	912.499023	58.508232
10164.647872	5166.485000	911.332031	2.565496
10164.647872	5166.485000	910.165039	-76.495468
10164.647872	5166.485000	908.997070	-76.873734
10164.647872	5166.485000	907.830078	-42.561775
10164.647872	5166.485000	906.661133	-47.576897
10164.647872	5166.485000	905.493164	-8.666267
10164.647872	5166.485000	904.325195	-36.805817
10164.647872	5166.485000	903.156250	62.167439
10164.647872	5166.485000	901.987305	-120.783592
10164.647872	5166.485000	900.818359	15.122437
10164.647872	5166.485000	899.648438	5.468411
10164.647872	5166.485000	898.478516	-68.838165
10164.647872	5166.485000	897.308594	-34.611420
10164.647872	5166.485000	896.138672	-67.336868
10164.647872	5166.485000	894.968750	19.948709
10164.647872	5166.485000	893.797852	-28.928644
10164.647872	5166.485000	892.626953	62.923443
10164.647872	5166.485000	891.456055	-36.683674
10164.647872	5166.485000	890.284180	-14.044559
10164.647872	5166.485000	889.113281	22.415989
10164.647872	5166.485000	887.941406	-3.370978
10164.647872	5166.485000	886.768555	39.983044
10164.647872	5166.485000	885.596680	-34.181614
10164.647872	5166.485000	884.423828	62.137638
10164.647872	5166.485000	883.250977	80.115387
10164.647872	5166.485000	882.078125	33.614754
10164.647872	5166.485000	880.905273	26.266663
10164.647872	5166.485000	879.731445	62.650555
10164.647872	5166.485000	878.557617	43.792351
10164.647872	5166.485000	877.383789	-23.371603
10164.647872	5166.485000	876.209961	-19.204277
10164.647872	5166.485000	875.035156	-3.541031
10164.647872	5166.485000	873.860352	-13.175772
10164.647872	5166.485000	872.685547	23.167442
10164.647872	5166.485000	871.510742	-18.645605
10164.647872	5166.485000	870.334961	54.448166
10164.647872	5166.485000	869.159180	10.347707
10164.647872	5166.485000	867.983398	-84.265526
10164.647872	5166.485000	866.807617	20.945204
10164.647872	5166.485000	865.630859	-2.458263
10164.647872	5166.485000	864.454102	54.487972
10164.647872	5166.485000	863.277344	-23.992405
10164.647872	5166.485000	862.100586	5.401196
10164.647872	5166.485000	860.922852	-1.921966
10164.647872	5166.485000	859.745117	105.436325
10164.647872	5166.485000	858.567383	24.717083
10164.647872	5166.485000	857.389648	33.443550
10164.647872	5166.485000	856.210938	55.919754
10164.647872	5166.485000	855.032227	103.595177
10164.647872	5166.485000	853.853516	93.971329
10164.647872	5166.485000	852.674805	1.885405
10164.647872	5166.485000	851.495117	40.382889
10164.647872	5166.485000	850.315430	90.313889
10164.647872	5166.485000	849.135742	-31.474396
10164.647872	5166.485000	847.956055	-41.058338
10164.647872	5166.485000	846.775391	47.763058
10164.647872	5166.485000	845.595703	-23.605461
10164.647872	5166.485000	844.415039	44.590115
10164.647872	5166.485000	843.233398	32.714073
10164.647872	5166.485000	842.052734	-22.599836
10164.647872	5166.485000	840.871094	18.123339
10164.647872	5166.485000	839.689453	51.973675
10164.647872	5166.485000	838.506836	8.117739
10164.647872	5166.485000	837.325195	76.227356
10164.647872	5166.485000	836.142578	-22.433470
10164.647872	5166.485000	834.959961	43.372314
10164.647872	5166.485000	833.777344	65.770943
10164.647872	5166.485000	832.593750	-87.610092
10164.647872	5166.485000	831.410156	-60.627491
10164.647872	5166.485000	830.226563	37.081055
10164.647872	5166.485000	829.042969	36.653004
10164.647872	5166.485000	827.858398	-34.480915
10164.647872	5166.485000	826.673828	8.435357
10164.647872	5166.485000	825.489258	-30.742456
10164.647872	5166.485000	824.304688	12.157033
10164.647872	5166.485000	823.120117	-15.608357
10164.647872	5166.485000	821.934570	18.158445
10164.647872	5166.485000	820.749023	-25.541389
10164.647872	5166.485000	819.562500	24.158646
10164.647872	5166.485000	818.376953	-24.076521
10164.647872	5166.485000	817.190430	-33.587852
10164.647872	5166.485000	816.003906	-47.646652
10164.647872	5166.485000	814.817383	-25.287594
10164.647872	5166.485000	813.629883	6.163929
10164.647872	5166.485000	812.442383	35.328938
10164.647872	5166.485000	811.254883	34.916893
10164.647872	5166.485000	810.067383	-88.279991
10164.647872	5166.485000	808.878906	-13.643984
10164.647872	5166.485000	807.690430	35.960323
10164.647872	5166.485000	806.501953	-50.799126
10164.647872	5166.485000	805.313477	-46.644760
10164.647872	5166.485000	804.124023	-97.006226
10164.647872	5166.485000	802.934570	29.791424
10164.647872	5166.485000	801.745117	11.223753
10164.647872	5166.485000	800.555664	-32.305950
10164.647872	5166.485000	799.365234	-12.268598
10164.647872	5166.485000	798.175781	-114.771294
10164.647872	5166.485000	796.985352	70.887230
10164.647872	5166.485000	795.793945	6.969885
10164.647872	5166.485000	794.603516	33.788006
10164.647872	5166.485000	793.412109	19.785301
10164.647872	5166.485000	792.220703	69.258286
10164.647872	5166.485000	791.028320	48.456001
10164.647872	5166.485000	789.836914	91.105804
10164.647872	5166.485000	788.644531	63.511993
10164.647872	5166.485000	787.452148	49.519405
10164.647872	5166.485000	786.258789	17.417614
10164.647872	5166.485000	785.066406	60.039429
10164.647872	5166.485000	783.873047	14.367849
10164.647872	5166.485000	782.679688	138.441071
10164.647872	5166.485000	781.485352	70.147049
10164.647872	5166.485000	780.291992	110.460434
10164.647872	5166.485000	779.097656	150.757263
10164.647872	5166.485000	777.903320	10.146317
10164.647872	5166.485000	776.708008	36.882706
10164.647872	5166.485000	775.512695	31.964825
10164.647872	5166.485000	774.318359	83.541458
10164.647872	5166.485000	773.122070	-34.347450
10164.647872	5166.485000	771.926758	10.444284
10164.647872	5166.485000	770.730469	71.024887
10164.647872	5166.485000	769.534180	156.415939
10164.647872	5166.485000	768.337891	36.349785
10164.647872	5166.485000	767.141602	180.390305
10164.647872	5166.485000	765.944336	148.368042
10164.647872	5166.485000	764.747070	278.787720
10164.647872	5166.485000	763.549805	258.033569
10164.647872	5166.485000	762.351563	162.870911
10164.647872	5166.485000	761.154297	124.110329
10164.647872	5166.485000	759.956055	216.101944
10164.647872	5166.485000	758.757813	177.343414
10164.647872	5166.485000	757.558594	170.143799
10164.647872	5166.485000	756.359375	286.843018
10164.647872	5166.485000	755.160156	221.062531
10164.647872	5166.485000	753.960938	211.601089
10164.647872	5166.485000	752.761719	211.146576
10164.647872	5166.485000	751.561523	327.731903
10164.647872	5166.485000	750.361328	201.230469
10164.647872	5166.485000	749.160156	236.769623
10164.647872	5166.485000	747.959961	207.059128
10164.647872	5166.485000	746.758789	73.907578
10164.647872	5166.485000	745.557617	140.921982
10164.647872	5166.485000	744.356445	162.945740
10164.647872	5166.485000	743.154297	146.749527
10164.647872	5166.485000	741.952148	191.227478
10164.647872	5166.485000	740.750000	85.162918
10164.647872	5166.485000	739.547852	131.874832
10164.647872	5166.485000	738.344727	120.177330
10164.647872	5166.485000	737.142578	72.558273
10164.647872	5166.485000	735.939453	134.946320
10164.647872	5166.485000	734.735352	132.221451
10164.647872	5166.485000	733.532227	138.468948
10164.647872	5166.485000	732.328125	189.575958
10164.647872	5166.485000	731.124023	23.103104
10164.647872	5166.485000	729.918945	92.143288
10164.647872	5166.485000	728.714844	172.359940
10164.647872	5166.485000	727.509766	113.570099
10164.647872	5166.485000	726.303711	74.968674
10164.647872	5166.485000	725.098633	20.695435
10164.647872	5166.485000	723.892578	33.640381
10164.647872	5166.485000	722.686523	55.533360
10164.647872	5166.485000	721.480469	34.869118
10164.647872	5166.485000	720.274414	67.935120
10164.647872	5166.485000	719.067383	78.600334
10164.647872	5166.485000	717.860352	111.632240
10164.647872	5166.485000	716.653320	41.733082
10164.647872	5166.485000	715.445313	59.090187
10164.647872	5166.485000	714.238281	83.142700
10164.647872	5166.485000	713.030273	-18.025852
10164.647872	5166.485000	711.821289	23.902973
10164.647872	5166.485000	710.613281	-32.526180
10164.647872	5166.485000	709.404297	42.890785
10164.647872	5166.485000	708.195313	24.444794
10164.647872	5166.485000	706.986328	12.699917
10164.647872	5166.485000	705.776367	-63.803783
10164.647872	5166.485000	704.566406	22.691433
10164.647872	5166.485000	703.356445	-35.940308
10164.647872	5166.485000	702.146484	-34.302170
10164.647872	5166.485000	700.935547	-25.979122
10164.647872	5166.485000	699.724609	-2.052755
10164.647872	5166.485000	698.513672	28.546125
10164.647872	5166.485000	697.302734	70.272697
10164.647872	5166.485000	696.090820	13.886949
10164.647872	5166.485000	694.878906	46.667412
10164.647872	5166.485000	693.666992	17.032892
10164.647872	5166.485000	692.455078	36.414886
10164.647872	5166.485000	691.242188	22.369009
10164.647872	5166.485000	690.029297	-13.948740
10164.647872	5166.485000	688.816406	16.532301
10164.647872	5166.485000	687.602539	26.957809
10164.647872	5166.485000	686.389648	55.173450
10164.647872	5166.485000	685.175781	-87.959465
10164.647872	5166.485000	683.960938	29.231264
10164.647872	5166.485000	682.747070	-56.029011
10164.647872	5166.485000	681.532227	54.414925
10164.647872	5166.485000	680.317383	-24.165632
10164.647872	5166.485000	679.102539	-98.278145
10164.647872	5166.485000	677.886719	25.407093
10164.647872	5166.485000	676.670898	-22.044653
10164.647872	5166.485000	675.455078	-0.627657
10164.647872	5166.485000	674.239258	47.419174
10164.647872	5166.485000	673.022461	22.163055
10164.647872	5166.485000	671.805664	21.325306
10164.647872	5166.485000	670.588867	60.425808
10164.647872	5166.485000	669.372070	35.149242
10164.647872	5166.485000	668.154297	125.231987
10164.647872	5166.485000	666.936523	60.004528
10164.647872	5166.485000	665.718750	85.711853
10164.647872	5166.485000	664.500977	24.930483
10164.647872	5166.485000	663.282227	86.075478
10164.647872	5166.485000	662.063477	71.834061
10164.647872	5166.485000	660.844727	62.017372
10164.647872	5166.485000	659.625000	-25.340164
10164.647872	5166.485000	658.405273	71.149376
10164.647872	5166.485000	657.185547	-60.483852
10164.647872	5166.485000	655.965820	60.298359
10164.647872	5166.485000	654.745117	-53.596558
10164.647872	5166.485000	653.525391	60.468330
10164.647872	5166.485000	652.303711	8.541434
10164.647872	5166.485000	651.083008	-10.197610
10164.647872	5166.485000	649.861328	108.167686
10164.647872	5166.485000	648.640625	-3.473463
10164.647872	5166.485000	647.417969	28.602051
10164.647872	5166.485000	646.196289	47.390152
10164.647872	5166.485000	644.973633	46.269653
10164.647872	5166.485000	643.750977	7.580288
10164.647872	5166.485000	642.528320	88.160339
10164.647872	5166.485000	641.305664	-21.212221
10164.647872	5166.485000	640.082031	41.648987
10164.647872	5166.485000	638.858398	51.494637
10164.647872	5166.485000	637.634766	78.976006
10164.647872	5166.485000	636.410156	53.478657
10164.647872	5166.485000	635.185547	30.182993
10164.647872	5166.485000	633.960938	-94.565361
10164.647872	5166.485000	632.736328	107.051620
10164.647872	5166.485000	631.510742	-52.961872
10164.647872	5166.485000	630.285156	-16.768646
10164.647872	5166.485000	629.059570	-48.915161
10164.647872	5166.485000	627.833984	37.901497
10164.647872	5166.485000	626.607422	21.143715
10164.647872	5166.485000	625.380859	-19.845873
10164.647872	5166.485000	624.154297	-43.220165
10164.647872	5166.485000	622.927734	-110.624237
10164.647872	5166.485000	621.700195	-52.575222
10164.647872	5166.485000	620.472656	-29.770720
10164.647872	5166.485000	619.245117	1.807290
10164.647872	5166.485000	618.016602	68.544235
10164.647872	5166.485000	616.788086	-18.682251
10164.647872	5166.485000	615.559570	-39.936405
10164.647872	5166.485000	614.331055	90.458244
10164.647872	5166.485000	613.101563	-34.123169
10164.647872	5166.485000	611.872070	50.045208
10164.647872	5166.485000	610.642578	-6.415316
10164.647872	5166.485000	609.413086	-40.907349
10164.647872	5166.485000	608.182617	-5.143684
10164.647872	5166.485000	606.952148	-30.874483
10164.647872	5166.485000	605.721680	0.450046
10164.647872	5166.485000	604.491211	-7.750429
10164.647872	5166.485000	603.259766	-77.388687
10164.647872	5166.485000	602.028320	-48.317608
10164.647872	5166.485000	600.796875	-100.408287
10164.647872	5166.485000	599.564453	9.737268
10164.647872	5166.485000	598.332031	-46.761124
10164.647872	5166.485000	597.099609	56.718861
10164.647872	5166.485000	595.867188	-10.752688
10164.647872	5166.485000	594.633789	-132.974350
10164.647872	5166.485000	593.400391	38.297035
10164.647872	5166.485000	592.166992	36.507561
10164.647872	5166.485000	590.933594	19.379169
10164.647872	5166.485000	589.699219	-21.834015
10164.647872	5166.485000	588.464844	-100.243729
10164.647872	5166.485000	587.230469	16.064369
10164.647872	5166.485000	585.995117	25.133440
10164.647872	5166.485000	584.760742	7.942976
10164.647872	5166.485000	583.525391	-13.629993
10164.647872	5166.485000	582.289063	-15.539060
10164.647872	5166.485000	581.053711	111.471474
10164.647872	5166.485000	579.817383	22.110374
10164.647872	5166.485000	578.581055	-19.172209
10164.647872	5166.485000	577.343750	22.534748
10164.647872	5166.485000	576.107422	123.162346
10164.647872	5166.485000	574.870117	-33.862717
10164.647872	5166.485000	573.631836	77.612679
10164.647872	5166.485000	572.394531	14.461379
10164.647872	5166.485000	571.156250	58.218166
10164.647872	5166.485000	569.917969	67.042793
10164.647872	5166.485000	568.679688	14.789839
10164.647872	5166.485000	567.440430	69.371979
10164.647872	5166.485000	566.202148	10.570868
10164.647872	5166.485000	564.961914	-35.147213
10164.647872	5166.485000	563.722656	43.332008
10164.647872	5166.485000	562.482422	182.754852
10164.647872	5166.485000	561.243164	38.981716
10164.647872	5166.485000	560.001953	-32.893085
10164.647872	5166.485000	558.761719	123.827881
10164.647872	5166.485000	557.520508	-30.769285
10164.647872	5166.485000	556.279297	54.045876
10164.647872	5166.485000	555.038086	-35.232597
10164.647872	5166.485000	553.795898	14.716329
10164.647872	5166.485000	552.554688	49.409214
10164.647872	5166.485000	551.311523	27.542728
10164.647872	5166.485000	550.069336	-0.847805
10164.647872	5166.485000	548.826172	55.514263
10164.647872	5166.485000	547.583984	33.621414
10164.647872	5166.485000	546.339844	-29.551708
10164.647872	5166.485000	545.096680	-3.664721
10164.647872	5166.485000	543.852539	43.910278
10164.647872	5166.485000	542.608398	-45.313877
10164.647872	5166.485000	541.364258	-30.332129
10164.647872	5166.485000	540.119141	60.577850
10164.647872	5166.485000	538.875000	58.149906
10164.647872	5166.485000	537.628906	21.003523
10164.647872	5166.485000	536.383789	79.279343
10164.647872	5166.485000	535.137695	-51.107723
10164.647872	5166.485000	533.892578	-68.732109
10164.647872	5166.485000	532.645508	48.001408
10164.647872	5166.485000	531.399414	-54.162167
10164.647872	5166.485000	530.152344	-6.823864
10164.647872	5166.485000	528.905273	-0.666525
10164.647872	5166.485000	527.658203	-44.324722
10164.647872	5166.485000	526.410156	63.563213
10164.647872	5166.485000	525.163086	-32.055794
10164.647872	5166.485000	523.914063	43.302498
10164.647872	5166.485000	522.666016	-15.514205
10164.647872	5166.485000	521.416992	5.714016
10164.647872	5166.485000	520.167969	11.785582
10164.647872	5166.485000	518.918945	43.790043
10164.647872	5166.485000	517.669922	32.539619
10164.647872	5166.485000	516.419922	-30.583578
10164.647872	5166.485000	515.169922	-22.386324
10164.647872	5166.485000	513.919922	7.400864
10164.647872	5166.485000	512.668945	30.685968
10164.647872	5166.485000	511.417969	6.448843
10164.647872	5166.485000	510.166992	27.549061
10164.647872	5166.485000	508.916016	1.148924
10164.647872	5166.485000	507.664063	2.803360
10164.647872	5166.485000	506.412109	-4.180123
10164.647872	5166.485000	505.160156	-9.010809
10164.647872	5166.485000	503.907227	29.281734
10164.647872	5166.485000	502.655273	17.963737
10164.647872	5166.485000	501.402344	127.354042
10164.647872	5166.485000	500.148438	-34.853825
10164.647872	5166.485000	498.895508	-0.924385
10164.647872	5166.485000	497.641602	45.907463
10164.647872	5166.485000	496.387695	-77.429916
10164.647872	5166.485000	495.132813	-6.929514
10164.647872	5166.485000	493.878906	87.216911
10164.647872	5166.485000	492.624023	54.328617
10164.647872	5166.485000	491.368164	150.558807
10164.647872	5166.485000	490.113281	72.481361
10164.647872	5166.485000	488.857422	-16.324245
10164.647872	5166.485000	487.601563	49.737080
10164.647872	5166.485000	486.344727	1.812904
10164.647872	5166.485000	485.088867	69.981499
10164.647872	5166.485000	483.832031	39.256847
10164.647872	5166.485000	482.575195	-94.592621
10164.647872	5166.485000	481.317383	-22.168419
10164.647872	5166.485000	480.059570	103.912140
10164.647872	5166.485000	478.801758	-55.646542
10164.647872	5166.485000	477.543945	63.938076
10164.647872	5166.485000	476.285156	-67.651619
10164.647872	5166.485000	475.027344	13.250247
10164.647872	5166.485000	473.767578	10.440222
10164.647872	5166.485000	472.508789	37.657455
10164.647872	5166.485000	471.249023	41.268318
10164.647872	5166.485000	469.989258	-30.166117
10164.647872	5166.485000	468.729492	18.463015
10164.647872	5166.485000	467.469727	82.068520
10164.647872	5166.485000	466.208984	-17.196878
10164.647872	5166.485000	464.948242	-35.022884
10164.647872	5166.485000	463.686523	32.819603
10164.647872	5166.485000	462.425781	-57.819530
10164.647872	5166.485000	461.164063	-26.403662
10164.647872	5166.485000	459.901367	11.413018
10164.647872	5166.485000	458.639648	42.790661
10164.647872	5166.485000	457.376953	91.262642
10164.647872	5166.485000	456.114258	0.680176
10164.647872	5166.485000	454.851563	147.497391
10164.647872	5166.485000	453.587891	103.964233
10164.647872	5166.485000	452.324219	154.494110
10164.647872	5166.485000	451.060547	76.773018
10164.647872	5166.485000	449.796875	97.361961
10164.647872	5166.485000	448.532227	64.530052
10164.647872	5166.485000	447.267578	25.298283
10164.647872	5166.485000	446.002930	-50.222862
10164.647872	5166.485000	444.737305	72.809608
10164.647872	5166.485000	443.471680	93.335342
10164.647872	5166.485000	442.206055	19.955214
10164.647872	5166.485000	440.940430	100.199020
10164.647872	5166.485000	439.673828	46.024139
10164.647872	5166.485000	438.407227	-10.270029
10164.647872	5166.485000	437.140625	127.458054
10164.647872	5166.485000	435.873047	54.094097
10164.647872	5166.485000	434.605469	95.826118
10164.647872	5166.485000	433.337891	120.482559
10164.647872	5166.485000	432.070313	74.820786
10164.647872	5166.485000	430.801758	-0.652554
10164.647872	5166.485000	429.533203	-1.586477
10164.647872	5166.485000	428.264648	88.999908
10164.647872	5166.485000	426.996094	51.833561
10164.647872	5166.485000	425.726563	106.159927
10164.647872	5166.485000	424.457031	-50.163769
10164.647872	5166.485000	423.186523	76.435463
10164.647872	5166.485000	421.916992	17.961805
10164.647872	5166.485000	420.646484	95.552071
10164.647872	5166.485000	419.375977	-5.456890
10164.647872	5166.485000	418.104492	-12.945714
10164.647872	5166.485000	416.833008	-16.207012
10164.647872	5166.485000	415.561523	82.464775
10164.647872	5166.485000	414.290039	77.006371
10164.647872	5166.485000	413.017578	88.505127
10164.647872	5166.485000	411.746094	99.970757
10164.647872	5166.485000	410.472656	92.294769
10164.647872	5166.485000	409.200195	14.570777
10164.647872	5166.485000	407.926758	-31.336050
10164.647872	5166.485000	406.653320	41.510906
10164.647872	5166.485000	405.379883	88.842903
10164.647872	5166.485000	404.105469	8.913481
10164.647872	5166.485000	402.831055	3.159886
10164.647872	5166.485000	401.556641	99.080528
10164.647872	5166.485000	400.282227	122.881271
10164.647872	5166.485000	399.006836	44.951004
10164.647872	5166.485000	397.731445	0.887978
10164.647872	5166.485000	396.456055	16.074615
10164.647872	5166.485000	395.179688	3.680002
10164.647872	5166.485000	393.903320	42.025917
10164.647872	5166.485000	392.626953	135.308289
10164.647872	5166.485000	391.350586	67.720276
10164.647872	5166.485000	390.073242	31.819168
10164.647872	5166.485000	388.795898	-73.910065
10164.647872	5166.485000	387.518555	6.370291
10164.647872	5166.485000	386.240234	99.222481
10164.647872	5166.485000	384.961914	3.895305
10164.647872	5166.485000	383.683594	35.289692
10164.647872	5166.485000	382.405273	30.683195
10164.647872	5166.485000	381.125977	123.130409
10164.647872	5166.485000	379.846680	16.993515
10164.647872	5166.485000	378.567383	24.795166
10164.647872	5166.485000	377.287109	78.923935
10164.647872	5166.485000	376.006836	12.669409
10164.647872	5166.485000	374.726563	-62.094498
10164.647872	5166.485000	373.446289	-6.175121
10164.647872	5166.485000	372.165039	-11.538107
10164.647872	5166.485000	370.883789	65.202446
10164.647872	5166.485000	369.602539	46.952518
10164.647872	5166.485000	368.320313	-38.841045
10164.647872	5166.485000	367.039063	8.001401
10164.647872	5166.485000	365.755859	-67.472786
10164.647872	5166.485000	364.473633	-20.910685
10164.647872	5166.485000	363.190430	8.646509
10164.647872	5166.485000	361.907227	0.161431
10164.647872	5166.485000	360.624023	37.828300
10164.647872	5166.485000	359.340820	-38.284752
10164.647872	5166.485000	358.056641	22.196999
10164.647872	5166.485000	356.772461	-45.792942
10164.647872	5166.485000	355.487305	54.275887
10164.647872	5166.485000	354.202148	-11.936977
10164.647872	5166.485000	352.916992	-32.065010
10164.647872	5166.485000	351.631836	0.158816
10164.647872	5166.485000	350.346680	-11.937341
10164.647872	5166.485000	349.060547	15.673141
10164.647872	5166.485000	347.774414	17.870207
10164.647872	5166.485000	346.487305	76.531662
10164.647872	5166.485000	345.200195	-32.958900
10164.647872	5166.485000	343.913086	79.805748
10164.647872	5166.485000	342.625977	3.474871
10164.647872	5166.485000	341.338867	-64.670349
10164.647872	5166.485000	340.050781	-11.409779
10164.647872	5166.485000	338.762695	104.472458
10164.647872	5166.485000	337.473633	58.635456
10164.647872	5166.485000	336.184570	71.228699
10164.647872	5166.485000	334.895508	125.444359
10164.647872	5166.485000	333.606445	101.846756
10164.647872	5166.485000	332.317383	80.061302
10164.647872	5166.485000	331.027344	66.351318
10164.647872	5166.485000	329.736328	71.169029
10164.647872	5166.485000	328.446289	6.607947
10164.647872	5166.485000	327.155273	88.210510
10164.647872	5166.485000	325.864258	-18.840675
10164.647872	5166.485000	324.573242	103.878189
10164.647872	5166.485000	323.281250	150.897476
10164.647872	5166.485000	321.989258	-3.171858
10164.647872	5166.485000	320.697266	1.302311
10164.647872	5166.485000	319.405273	9.566158
10164.647872	5166.485000	318.112305	13.238853
10164.647872	5166.485000	316.819336	56.187660
10164.647872	5166.485000	315.526367	-30.780901
10164.647872	5166.485000	314.232422	-53.430656
10164.647872	5166.485000	312.938477	-63.989864
10164.647872	5166.485000	311.644531	-41.608532
10164.647872	5166.485000	310.349609	34.531727
10164.647872	5166.485000	309.054688	-85.933098
10164.647872	5166.485000	307.759766	-31.646950
10164.647872	5166.485000	306.464844	17.939095
10164.647872	5166.485000	305.168945	10.682393
10164.647872	5166.485000	303.873047	52.917065
10164.647872	5166.485000	302.577148	107.089165
10164.647872	5166.485000	301.281250	37.759464
10164.647872	5166.485000	299.984375	74.095551
