#X		#Y		#Wave		#Intensity
9715.075532	4747.516667	1999.946289	-11.463129
9715.075532	4747.516667	1998.981445	-98.628731
9715.075532	4747.516667	1998.017578	-83.188225
9715.075532	4747.516667	1997.052734	-18.333540
9715.075532	4747.516667	1996.088867	85.997055
9715.075532	4747.516667	1995.124023	108.405838
9715.075532	4747.516667	1994.159180	118.289772
9715.075532	4747.516667	1993.193359	-57.679867
9715.075532	4747.516667	1992.228516	3.966196
9715.075532	4747.516667	1991.262695	6.058877
9715.075532	4747.516667	1990.296875	25.355253
9715.075532	4747.516667	1989.331055	-51.975830
9715.075532	4747.516667	1988.365234	110.584503
9715.075532	4747.516667	1987.398438	33.043339
9715.075532	4747.516667	1986.432617	-64.361443
9715.075532	4747.516667	1985.465820	-92.601517
9715.075532	4747.516667	1984.499023	-180.264206
9715.075532	4747.516667	1983.532227	65.684647
9715.075532	4747.516667	1982.565430	202.712280
9715.075532	4747.516667	1981.597656	97.461029
9715.075532	4747.516667	1980.629883	142.846634
9715.075532	4747.516667	1979.662109	-98.374771
9715.075532	4747.516667	1978.694336	75.265724
9715.075532	4747.516667	1977.726563	31.492867
9715.075532	4747.516667	1976.758789	128.358963
9715.075532	4747.516667	1975.790039	64.689583
9715.075532	4747.516667	1974.821289	84.865509
9715.075532	4747.516667	1973.852539	26.013115
9715.075532	4747.516667	1972.883789	159.509186
9715.075532	4747.516667	1971.915039	-0.588845
9715.075532	4747.516667	1970.945313	66.151863
9715.075532	4747.516667	1969.975586	110.615616
9715.075532	4747.516667	1969.005859	125.422173
9715.075532	4747.516667	1968.036133	95.804527
9715.075532	4747.516667	1967.066406	179.478027
9715.075532	4747.516667	1966.096680	16.719982
9715.075532	4747.516667	1965.125977	16.522673
9715.075532	4747.516667	1964.155273	-37.903355
9715.075532	4747.516667	1963.184570	84.908043
9715.075532	4747.516667	1962.213867	-11.458874
9715.075532	4747.516667	1961.242188	189.959457
9715.075532	4747.516667	1960.271484	-54.127274
9715.075532	4747.516667	1959.299805	203.717468
9715.075532	4747.516667	1958.328125	65.399094
9715.075532	4747.516667	1957.356445	8.248231
9715.075532	4747.516667	1956.384766	29.760971
9715.075532	4747.516667	1955.412109	85.643051
9715.075532	4747.516667	1954.439453	168.503983
9715.075532	4747.516667	1953.467773	111.222443
9715.075532	4747.516667	1952.495117	159.577362
9715.075532	4747.516667	1951.521484	43.288185
9715.075532	4747.516667	1950.548828	89.115265
9715.075532	4747.516667	1949.575195	156.992996
9715.075532	4747.516667	1948.601563	33.309189
9715.075532	4747.516667	1947.627930	-38.808563
9715.075532	4747.516667	1946.654297	16.695515
9715.075532	4747.516667	1945.680664	131.044144
9715.075532	4747.516667	1944.706055	56.411560
9715.075532	4747.516667	1943.732422	180.470352
9715.075532	4747.516667	1942.757813	-16.816402
9715.075532	4747.516667	1941.783203	67.927818
9715.075532	4747.516667	1940.807617	140.357971
9715.075532	4747.516667	1939.833008	14.202882
9715.075532	4747.516667	1938.857422	89.023926
9715.075532	4747.516667	1937.881836	53.539394
9715.075532	4747.516667	1936.906250	-45.644966
9715.075532	4747.516667	1935.930664	11.942760
9715.075532	4747.516667	1934.955078	30.309614
9715.075532	4747.516667	1933.978516	-68.870743
9715.075532	4747.516667	1933.001953	120.821098
9715.075532	4747.516667	1932.025391	-7.741689
9715.075532	4747.516667	1931.048828	-94.673264
9715.075532	4747.516667	1930.072266	-32.348560
9715.075532	4747.516667	1929.094727	-26.324106
9715.075532	4747.516667	1928.118164	18.816467
9715.075532	4747.516667	1927.140625	34.582558
9715.075532	4747.516667	1926.163086	170.120056
9715.075532	4747.516667	1925.184570	163.825409
9715.075532	4747.516667	1924.207031	15.783452
9715.075532	4747.516667	1923.228516	-63.804722
9715.075532	4747.516667	1922.250000	-167.803040
9715.075532	4747.516667	1921.271484	72.608688
9715.075532	4747.516667	1920.292969	256.754486
9715.075532	4747.516667	1919.314453	-32.834099
9715.075532	4747.516667	1918.334961	-41.604588
9715.075532	4747.516667	1917.355469	100.935486
9715.075532	4747.516667	1916.375977	26.238997
9715.075532	4747.516667	1915.396484	7.673829
9715.075532	4747.516667	1914.416992	-45.043514
9715.075532	4747.516667	1913.436523	55.890770
9715.075532	4747.516667	1912.457031	-62.668995
9715.075532	4747.516667	1911.476563	96.721481
9715.075532	4747.516667	1910.496094	19.614172
9715.075532	4747.516667	1909.515625	-25.793070
9715.075532	4747.516667	1908.534180	143.218460
9715.075532	4747.516667	1907.552734	-55.685997
9715.075532	4747.516667	1906.572266	23.136314
9715.075532	4747.516667	1905.590820	131.139267
9715.075532	4747.516667	1904.608398	124.660751
9715.075532	4747.516667	1903.626953	-37.612400
9715.075532	4747.516667	1902.644531	116.554848
9715.075532	4747.516667	1901.663086	46.793171
9715.075532	4747.516667	1900.680664	-57.014503
9715.075532	4747.516667	1899.698242	62.990829
9715.075532	4747.516667	1898.714844	-67.552414
9715.075532	4747.516667	1897.732422	88.864876
9715.075532	4747.516667	1896.749023	41.003429
9715.075532	4747.516667	1895.765625	-38.446705
9715.075532	4747.516667	1894.782227	-30.391396
9715.075532	4747.516667	1893.798828	33.534958
9715.075532	4747.516667	1892.814453	-155.215866
9715.075532	4747.516667	1891.831055	3.413093
9715.075532	4747.516667	1890.846680	-66.292168
9715.075532	4747.516667	1889.862305	9.690878
9715.075532	4747.516667	1888.877930	-181.380615
9715.075532	4747.516667	1887.892578	20.774643
9715.075532	4747.516667	1886.908203	-2.818583
9715.075532	4747.516667	1885.922852	-2.156181
9715.075532	4747.516667	1884.937500	-76.698524
9715.075532	4747.516667	1883.952148	176.170395
9715.075532	4747.516667	1882.965820	176.762985
9715.075532	4747.516667	1881.980469	70.680275
9715.075532	4747.516667	1880.994141	90.658653
9715.075532	4747.516667	1880.007813	54.881802
9715.075532	4747.516667	1879.021484	-99.615860
9715.075532	4747.516667	1878.035156	148.054565
9715.075532	4747.516667	1877.047852	63.806469
9715.075532	4747.516667	1876.061523	-97.908447
9715.075532	4747.516667	1875.074219	26.105511
9715.075532	4747.516667	1874.086914	77.441711
9715.075532	4747.516667	1873.098633	-74.551445
9715.075532	4747.516667	1872.111328	104.999672
9715.075532	4747.516667	1871.123047	-68.744026
9715.075532	4747.516667	1870.135742	91.359207
9715.075532	4747.516667	1869.147461	24.060053
9715.075532	4747.516667	1868.158203	9.960714
9715.075532	4747.516667	1867.169922	29.698118
9715.075532	4747.516667	1866.180664	-8.598230
9715.075532	4747.516667	1865.192383	61.849277
9715.075532	4747.516667	1864.203125	-99.692230
9715.075532	4747.516667	1863.213867	2.112442
9715.075532	4747.516667	1862.223633	-43.467140
9715.075532	4747.516667	1861.234375	154.841385
9715.075532	4747.516667	1860.244141	60.929016
9715.075532	4747.516667	1859.253906	-28.139006
9715.075532	4747.516667	1858.263672	-42.378651
9715.075532	4747.516667	1857.273438	-160.386932
9715.075532	4747.516667	1856.282227	-280.786469
9715.075532	4747.516667	1855.291992	-24.886263
9715.075532	4747.516667	1854.300781	-85.017677
9715.075532	4747.516667	1853.309570	-80.047523
9715.075532	4747.516667	1852.317383	18.911257
9715.075532	4747.516667	1851.326172	132.275391
9715.075532	4747.516667	1850.333984	-19.498037
9715.075532	4747.516667	1849.342773	31.145948
9715.075532	4747.516667	1848.350586	62.474396
9715.075532	4747.516667	1847.357422	69.681244
9715.075532	4747.516667	1846.365234	-38.714035
9715.075532	4747.516667	1845.372070	216.430969
9715.075532	4747.516667	1844.379883	187.432693
9715.075532	4747.516667	1843.386719	-89.458153
9715.075532	4747.516667	1842.393555	182.323013
9715.075532	4747.516667	1841.399414	6.521896
9715.075532	4747.516667	1840.406250	-32.138626
9715.075532	4747.516667	1839.412109	-123.717575
9715.075532	4747.516667	1838.417969	-15.732328
9715.075532	4747.516667	1837.423828	10.455949
9715.075532	4747.516667	1836.429688	337.031006
9715.075532	4747.516667	1835.434570	117.986031
9715.075532	4747.516667	1834.440430	-57.755157
9715.075532	4747.516667	1833.445313	45.173935
9715.075532	4747.516667	1832.450195	157.642319
9715.075532	4747.516667	1831.454102	116.364243
9715.075532	4747.516667	1830.458984	-64.162003
9715.075532	4747.516667	1829.462891	84.177437
9715.075532	4747.516667	1828.466797	165.238007
9715.075532	4747.516667	1827.470703	90.282585
9715.075532	4747.516667	1826.474609	-68.634407
9715.075532	4747.516667	1825.478516	41.100498
9715.075532	4747.516667	1824.481445	126.779999
9715.075532	4747.516667	1823.484375	-96.882385
9715.075532	4747.516667	1822.487305	199.669220
9715.075532	4747.516667	1821.490234	21.550760
9715.075532	4747.516667	1820.493164	296.340088
9715.075532	4747.516667	1819.495117	118.202332
9715.075532	4747.516667	1818.498047	45.494404
9715.075532	4747.516667	1817.500000	102.096619
9715.075532	4747.516667	1816.500977	175.400726
9715.075532	4747.516667	1815.502930	14.046530
9715.075532	4747.516667	1814.504883	32.227947
9715.075532	4747.516667	1813.505859	47.971771
9715.075532	4747.516667	1812.506836	46.928406
9715.075532	4747.516667	1811.507813	62.595192
9715.075532	4747.516667	1810.508789	219.328354
9715.075532	4747.516667	1809.508789	-37.711151
9715.075532	4747.516667	1808.508789	83.047157
9715.075532	4747.516667	1807.508789	88.990776
9715.075532	4747.516667	1806.508789	-58.051395
9715.075532	4747.516667	1805.508789	119.880890
9715.075532	4747.516667	1804.508789	54.039898
9715.075532	4747.516667	1803.507813	-4.650885
9715.075532	4747.516667	1802.506836	67.985207
9715.075532	4747.516667	1801.505859	133.394775
9715.075532	4747.516667	1800.504883	79.387726
9715.075532	4747.516667	1799.502930	11.038791
9715.075532	4747.516667	1798.501953	97.787811
9715.075532	4747.516667	1797.500000	50.859631
9715.075532	4747.516667	1796.498047	22.994127
9715.075532	4747.516667	1795.496094	45.183842
9715.075532	4747.516667	1794.493164	150.776825
9715.075532	4747.516667	1793.491211	108.491592
9715.075532	4747.516667	1792.488281	39.961369
9715.075532	4747.516667	1791.485352	71.507294
9715.075532	4747.516667	1790.482422	153.037460
9715.075532	4747.516667	1789.478516	36.774780
9715.075532	4747.516667	1788.475586	72.951820
9715.075532	4747.516667	1787.471680	218.608231
9715.075532	4747.516667	1786.467773	-4.851649
9715.075532	4747.516667	1785.463867	21.669771
9715.075532	4747.516667	1784.459961	60.042053
9715.075532	4747.516667	1783.455078	84.079239
9715.075532	4747.516667	1782.450195	-27.534372
9715.075532	4747.516667	1781.445313	-1.189933
9715.075532	4747.516667	1780.440430	44.130577
9715.075532	4747.516667	1779.435547	27.576050
9715.075532	4747.516667	1778.429688	-65.086983
9715.075532	4747.516667	1777.424805	72.794334
9715.075532	4747.516667	1776.418945	27.604631
9715.075532	4747.516667	1775.413086	141.573441
9715.075532	4747.516667	1774.406250	231.700073
9715.075532	4747.516667	1773.400391	-5.981421
9715.075532	4747.516667	1772.393555	43.694077
9715.075532	4747.516667	1771.386719	-82.367470
9715.075532	4747.516667	1770.379883	21.816879
9715.075532	4747.516667	1769.373047	85.578697
9715.075532	4747.516667	1768.365234	-57.151718
9715.075532	4747.516667	1767.358398	68.200180
9715.075532	4747.516667	1766.350586	207.689255
9715.075532	4747.516667	1765.342773	136.038651
9715.075532	4747.516667	1764.334961	12.215687
9715.075532	4747.516667	1763.326172	-196.939789
9715.075532	4747.516667	1762.318359	18.174957
9715.075532	4747.516667	1761.309570	3.319587
9715.075532	4747.516667	1760.300781	177.956177
9715.075532	4747.516667	1759.291016	65.878563
9715.075532	4747.516667	1758.282227	81.690765
9715.075532	4747.516667	1757.272461	-35.139320
9715.075532	4747.516667	1756.262695	-40.702667
9715.075532	4747.516667	1755.252930	-15.534302
9715.075532	4747.516667	1754.243164	-16.444153
9715.075532	4747.516667	1753.233398	-130.956497
9715.075532	4747.516667	1752.222656	40.751579
9715.075532	4747.516667	1751.211914	-9.955598
9715.075532	4747.516667	1750.201172	57.546150
9715.075532	4747.516667	1749.190430	115.528465
9715.075532	4747.516667	1748.179688	52.903641
9715.075532	4747.516667	1747.167969	-127.902527
9715.075532	4747.516667	1746.156250	-98.391731
9715.075532	4747.516667	1745.144531	205.098831
9715.075532	4747.516667	1744.132813	7.721205
9715.075532	4747.516667	1743.121094	115.004883
9715.075532	4747.516667	1742.108398	212.758850
9715.075532	4747.516667	1741.095703	114.517250
9715.075532	4747.516667	1740.083008	63.477585
9715.075532	4747.516667	1739.070313	212.986740
9715.075532	4747.516667	1738.057617	114.692436
9715.075532	4747.516667	1737.043945	54.131042
9715.075532	4747.516667	1736.030273	26.573235
9715.075532	4747.516667	1735.016602	13.137434
9715.075532	4747.516667	1734.002930	-5.043291
9715.075532	4747.516667	1732.989258	269.003967
9715.075532	4747.516667	1731.974609	24.484453
9715.075532	4747.516667	1730.959961	41.540089
9715.075532	4747.516667	1729.945313	67.977806
9715.075532	4747.516667	1728.930664	-89.327110
9715.075532	4747.516667	1727.916016	-107.681000
9715.075532	4747.516667	1726.900391	57.558720
9715.075532	4747.516667	1725.885742	74.423172
9715.075532	4747.516667	1724.870117	164.194305
9715.075532	4747.516667	1723.853516	-91.979240
9715.075532	4747.516667	1722.837891	103.581337
9715.075532	4747.516667	1721.822266	127.343781
9715.075532	4747.516667	1720.805664	9.966166
9715.075532	4747.516667	1719.789063	-126.205055
9715.075532	4747.516667	1718.772461	-116.618759
9715.075532	4747.516667	1717.754883	90.339119
9715.075532	4747.516667	1716.738281	-15.315366
9715.075532	4747.516667	1715.720703	76.369194
9715.075532	4747.516667	1714.703125	-149.098480
9715.075532	4747.516667	1713.685547	128.037827
9715.075532	4747.516667	1712.667969	177.292160
9715.075532	4747.516667	1711.649414	151.373215
9715.075532	4747.516667	1710.630859	-55.283417
9715.075532	4747.516667	1709.612305	52.549206
9715.075532	4747.516667	1708.593750	134.505280
9715.075532	4747.516667	1707.575195	2.948466
9715.075532	4747.516667	1706.555664	12.120579
9715.075532	4747.516667	1705.536133	7.193672
9715.075532	4747.516667	1704.516602	-11.824026
9715.075532	4747.516667	1703.497070	-0.389130
9715.075532	4747.516667	1702.477539	132.873779
9715.075532	4747.516667	1701.457031	50.500378
9715.075532	4747.516667	1700.437500	155.541687
9715.075532	4747.516667	1699.416992	70.804932
9715.075532	4747.516667	1698.395508	103.149864
9715.075532	4747.516667	1697.375000	219.748749
9715.075532	4747.516667	1696.354492	116.253433
9715.075532	4747.516667	1695.333008	38.511028
9715.075532	4747.516667	1694.311523	161.999527
9715.075532	4747.516667	1693.290039	74.876602
9715.075532	4747.516667	1692.267578	104.704178
9715.075532	4747.516667	1691.246094	-87.646034
9715.075532	4747.516667	1690.223633	84.779373
9715.075532	4747.516667	1689.201172	16.351086
9715.075532	4747.516667	1688.178711	-38.048580
9715.075532	4747.516667	1687.155273	120.182259
9715.075532	4747.516667	1686.132813	-165.537628
9715.075532	4747.516667	1685.109375	11.307532
9715.075532	4747.516667	1684.085938	127.349266
9715.075532	4747.516667	1683.062500	119.582207
9715.075532	4747.516667	1682.039063	167.827179
9715.075532	4747.516667	1681.014648	174.018997
9715.075532	4747.516667	1679.990234	51.848843
9715.075532	4747.516667	1678.965820	158.352371
9715.075532	4747.516667	1677.941406	71.193176
9715.075532	4747.516667	1676.916992	126.316124
9715.075532	4747.516667	1675.891602	144.088623
9715.075532	4747.516667	1674.866211	133.866959
9715.075532	4747.516667	1673.840820	153.937759
9715.075532	4747.516667	1672.815430	146.024231
9715.075532	4747.516667	1671.790039	135.772400
9715.075532	4747.516667	1670.763672	174.425659
9715.075532	4747.516667	1669.737305	115.233856
9715.075532	4747.516667	1668.710938	-6.815144
9715.075532	4747.516667	1667.684570	-19.404404
9715.075532	4747.516667	1666.658203	-108.810722
9715.075532	4747.516667	1665.630859	13.578409
9715.075532	4747.516667	1664.603516	-59.535931
9715.075532	4747.516667	1663.576172	188.404434
9715.075532	4747.516667	1662.548828	-70.799179
9715.075532	4747.516667	1661.520508	116.566338
9715.075532	4747.516667	1660.493164	87.638947
9715.075532	4747.516667	1659.464844	179.586487
9715.075532	4747.516667	1658.436523	43.733112
9715.075532	4747.516667	1657.408203	105.437775
9715.075532	4747.516667	1656.378906	9.131349
9715.075532	4747.516667	1655.350586	170.691086
9715.075532	4747.516667	1654.321289	160.329742
9715.075532	4747.516667	1653.291992	187.120499
9715.075532	4747.516667	1652.261719	114.072372
9715.075532	4747.516667	1651.232422	198.883896
9715.075532	4747.516667	1650.202148	244.206314
9715.075532	4747.516667	1649.171875	233.831573
9715.075532	4747.516667	1648.141602	397.432129
9715.075532	4747.516667	1647.111328	261.801483
9715.075532	4747.516667	1646.080078	300.120636
9715.075532	4747.516667	1645.049805	426.529388
9715.075532	4747.516667	1644.018555	270.113678
9715.075532	4747.516667	1642.987305	285.247437
9715.075532	4747.516667	1641.955078	200.745438
9715.075532	4747.516667	1640.923828	276.124420
9715.075532	4747.516667	1639.891602	390.844421
9715.075532	4747.516667	1638.859375	243.870117
9715.075532	4747.516667	1637.827148	8.986297
9715.075532	4747.516667	1636.794922	350.549011
9715.075532	4747.516667	1635.761719	333.279327
9715.075532	4747.516667	1634.729492	202.658722
9715.075532	4747.516667	1633.696289	-129.166138
9715.075532	4747.516667	1632.662109	89.599319
9715.075532	4747.516667	1631.628906	458.605438
9715.075532	4747.516667	1630.594727	277.226501
9715.075532	4747.516667	1629.561523	366.383331
9715.075532	4747.516667	1628.527344	203.605499
9715.075532	4747.516667	1627.493164	253.480667
9715.075532	4747.516667	1626.458008	340.305237
9715.075532	4747.516667	1625.423828	337.038940
9715.075532	4747.516667	1624.388672	139.803314
9715.075532	4747.516667	1623.353516	222.026749
9715.075532	4747.516667	1622.318359	355.018433
9715.075532	4747.516667	1621.282227	194.861954
9715.075532	4747.516667	1620.247070	242.465103
9715.075532	4747.516667	1619.210938	451.552155
9715.075532	4747.516667	1618.174805	323.816040
9715.075532	4747.516667	1617.137695	431.366821
9715.075532	4747.516667	1616.101563	308.334778
9715.075532	4747.516667	1615.064453	277.573242
9715.075532	4747.516667	1614.027344	479.626617
9715.075532	4747.516667	1612.990234	347.495483
9715.075532	4747.516667	1611.953125	210.829849
9715.075532	4747.516667	1610.916016	325.314819
9715.075532	4747.516667	1609.877930	527.284241
9715.075532	4747.516667	1608.839844	478.221924
9715.075532	4747.516667	1607.801758	470.642029
9715.075532	4747.516667	1606.763672	398.643768
9715.075532	4747.516667	1605.724609	476.269104
9715.075532	4747.516667	1604.685547	496.371796
9715.075532	4747.516667	1603.646484	521.093994
9715.075532	4747.516667	1602.607422	550.434265
9715.075532	4747.516667	1601.568359	554.496765
9715.075532	4747.516667	1600.528320	503.404633
9715.075532	4747.516667	1599.489258	771.860413
9715.075532	4747.516667	1598.449219	530.067017
9715.075532	4747.516667	1597.408203	449.223328
9715.075532	4747.516667	1596.368164	634.917480
9715.075532	4747.516667	1595.327148	515.103455
9715.075532	4747.516667	1594.287109	790.330322
9715.075532	4747.516667	1593.246094	551.214172
9715.075532	4747.516667	1592.204102	580.775269
9715.075532	4747.516667	1591.163086	479.555573
9715.075532	4747.516667	1590.121094	612.437073
9715.075532	4747.516667	1589.079102	515.900940
9715.075532	4747.516667	1588.037109	547.876404
9715.075532	4747.516667	1586.995117	630.324951
9715.075532	4747.516667	1585.953125	632.533264
9715.075532	4747.516667	1584.910156	637.064392
9715.075532	4747.516667	1583.867188	568.293884
9715.075532	4747.516667	1582.824219	749.342346
9715.075532	4747.516667	1581.781250	634.836243
9715.075532	4747.516667	1580.737305	719.673767
9715.075532	4747.516667	1579.693359	788.488159
9715.075532	4747.516667	1578.649414	678.732971
9715.075532	4747.516667	1577.605469	678.937988
9715.075532	4747.516667	1576.561523	521.267822
9715.075532	4747.516667	1575.516602	688.616943
9715.075532	4747.516667	1574.472656	766.727173
9715.075532	4747.516667	1573.427734	650.424133
9715.075532	4747.516667	1572.381836	602.809021
9715.075532	4747.516667	1571.336914	781.614624
9715.075532	4747.516667	1570.291016	516.916809
9715.075532	4747.516667	1569.246094	458.067352
9715.075532	4747.516667	1568.200195	609.504578
9715.075532	4747.516667	1567.153320	566.730957
9715.075532	4747.516667	1566.107422	446.366669
9715.075532	4747.516667	1565.060547	449.409760
9715.075532	4747.516667	1564.013672	495.880432
9715.075532	4747.516667	1562.966797	368.888519
9715.075532	4747.516667	1561.919922	182.653229
9715.075532	4747.516667	1560.872070	240.697556
9715.075532	4747.516667	1559.825195	239.456329
9715.075532	4747.516667	1558.777344	331.780823
9715.075532	4747.516667	1557.729492	262.200684
9715.075532	4747.516667	1556.680664	322.658051
9715.075532	4747.516667	1555.632813	285.123444
9715.075532	4747.516667	1554.583984	254.487640
9715.075532	4747.516667	1553.535156	513.318115
9715.075532	4747.516667	1552.486328	387.064453
9715.075532	4747.516667	1551.436523	313.298950
9715.075532	4747.516667	1550.387695	292.002380
9715.075532	4747.516667	1549.337891	316.301331
9715.075532	4747.516667	1548.288086	415.770752
9715.075532	4747.516667	1547.238281	273.992157
9715.075532	4747.516667	1546.187500	273.408142
9715.075532	4747.516667	1545.136719	195.523254
9715.075532	4747.516667	1544.086914	286.060547
9715.075532	4747.516667	1543.035156	217.408951
9715.075532	4747.516667	1541.984375	135.202728
9715.075532	4747.516667	1540.933594	194.035965
9715.075532	4747.516667	1539.881836	318.814453
9715.075532	4747.516667	1538.830078	270.893005
9715.075532	4747.516667	1537.778320	250.311935
9715.075532	4747.516667	1536.725586	168.461655
9715.075532	4747.516667	1535.673828	129.858398
9715.075532	4747.516667	1534.621094	89.055061
9715.075532	4747.516667	1533.568359	211.785004
9715.075532	4747.516667	1532.515625	143.863953
9715.075532	4747.516667	1531.461914	184.955017
9715.075532	4747.516667	1530.409180	123.994743
9715.075532	4747.516667	1529.355469	94.873482
9715.075532	4747.516667	1528.301758	267.678772
9715.075532	4747.516667	1527.247070	225.056335
9715.075532	4747.516667	1526.193359	-50.997215
9715.075532	4747.516667	1525.138672	-29.948498
9715.075532	4747.516667	1524.083984	244.971405
9715.075532	4747.516667	1523.029297	207.169037
9715.075532	4747.516667	1521.974609	-50.290890
9715.075532	4747.516667	1520.918945	25.349003
9715.075532	4747.516667	1519.863281	191.599564
9715.075532	4747.516667	1518.807617	-38.347530
9715.075532	4747.516667	1517.751953	73.655426
9715.075532	4747.516667	1516.696289	-88.154022
9715.075532	4747.516667	1515.639648	-84.665672
9715.075532	4747.516667	1514.583008	-58.490089
9715.075532	4747.516667	1513.526367	35.593651
9715.075532	4747.516667	1512.469727	113.876793
9715.075532	4747.516667	1511.412109	-103.977493
9715.075532	4747.516667	1510.355469	204.997162
9715.075532	4747.516667	1509.297852	46.103489
9715.075532	4747.516667	1508.240234	-234.671829
9715.075532	4747.516667	1507.181641	-18.280645
9715.075532	4747.516667	1506.124023	-228.779556
9715.075532	4747.516667	1505.065430	-62.017700
9715.075532	4747.516667	1504.006836	-69.097534
9715.075532	4747.516667	1502.948242	81.902977
9715.075532	4747.516667	1501.888672	-58.218666
9715.075532	4747.516667	1500.830078	-78.626205
9715.075532	4747.516667	1499.770508	-71.886887
9715.075532	4747.516667	1498.710938	135.655243
9715.075532	4747.516667	1497.650391	-1.835856
9715.075532	4747.516667	1496.590820	-112.144608
9715.075532	4747.516667	1495.530273	3.070467
9715.075532	4747.516667	1494.469727	185.921082
9715.075532	4747.516667	1493.409180	80.355629
9715.075532	4747.516667	1492.348633	125.840034
9715.075532	4747.516667	1491.287109	56.505405
9715.075532	4747.516667	1490.225586	95.360657
9715.075532	4747.516667	1489.164063	269.358032
9715.075532	4747.516667	1488.102539	60.689041
9715.075532	4747.516667	1487.041016	41.219997
9715.075532	4747.516667	1485.978516	123.083282
9715.075532	4747.516667	1484.916016	94.760101
9715.075532	4747.516667	1483.853516	154.226120
9715.075532	4747.516667	1482.791016	240.725540
9715.075532	4747.516667	1481.727539	115.932022
9715.075532	4747.516667	1480.664063	0.252262
9715.075532	4747.516667	1479.600586	62.217560
9715.075532	4747.516667	1478.537109	191.647308
9715.075532	4747.516667	1477.473633	58.267120
9715.075532	4747.516667	1476.409180	82.271492
9715.075532	4747.516667	1475.344727	-6.014326
9715.075532	4747.516667	1474.280273	-163.748489
9715.075532	4747.516667	1473.215820	-2.553072
9715.075532	4747.516667	1472.151367	124.808296
9715.075532	4747.516667	1471.085938	149.105576
9715.075532	4747.516667	1470.020508	159.853149
9715.075532	4747.516667	1468.955078	233.520721
9715.075532	4747.516667	1467.888672	213.234894
9715.075532	4747.516667	1466.823242	159.134125
9715.075532	4747.516667	1465.756836	329.297852
9715.075532	4747.516667	1464.690430	215.098465
9715.075532	4747.516667	1463.624023	134.757614
9715.075532	4747.516667	1462.556641	128.042847
9715.075532	4747.516667	1461.490234	56.823345
9715.075532	4747.516667	1460.422852	298.851074
9715.075532	4747.516667	1459.355469	343.726593
9715.075532	4747.516667	1458.287109	279.272339
9715.075532	4747.516667	1457.219727	342.689972
9715.075532	4747.516667	1456.151367	324.612823
9715.075532	4747.516667	1455.083008	133.517136
9715.075532	4747.516667	1454.014648	169.936996
9715.075532	4747.516667	1452.945313	327.056549
9715.075532	4747.516667	1451.876953	236.918457
9715.075532	4747.516667	1450.807617	182.261276
9715.075532	4747.516667	1449.738281	392.044220
9715.075532	4747.516667	1448.668945	248.676376
9715.075532	4747.516667	1447.598633	158.289459
9715.075532	4747.516667	1446.528320	283.991913
9715.075532	4747.516667	1445.458008	237.093155
9715.075532	4747.516667	1444.387695	44.861656
9715.075532	4747.516667	1443.317383	316.732819
9715.075532	4747.516667	1442.246094	249.645309
9715.075532	4747.516667	1441.174805	232.282379
9715.075532	4747.516667	1440.103516	214.956421
9715.075532	4747.516667	1439.032227	129.397705
9715.075532	4747.516667	1437.960938	154.042648
9715.075532	4747.516667	1436.888672	320.848724
9715.075532	4747.516667	1435.816406	238.690292
9715.075532	4747.516667	1434.744141	269.361115
9715.075532	4747.516667	1433.670898	21.967316
9715.075532	4747.516667	1432.598633	74.734642
9715.075532	4747.516667	1431.525391	160.541626
9715.075532	4747.516667	1430.452148	219.008301
9715.075532	4747.516667	1429.378906	105.136444
9715.075532	4747.516667	1428.304688	72.896744
9715.075532	4747.516667	1427.231445	50.775009
9715.075532	4747.516667	1426.157227	52.243153
9715.075532	4747.516667	1425.083008	146.514633
9715.075532	4747.516667	1424.007813	-124.626129
9715.075532	4747.516667	1422.933594	-167.278839
9715.075532	4747.516667	1421.858398	-12.883184
9715.075532	4747.516667	1420.783203	16.975183
9715.075532	4747.516667	1419.708008	-33.155144
9715.075532	4747.516667	1418.631836	-156.138885
9715.075532	4747.516667	1417.555664	-64.593117
9715.075532	4747.516667	1416.479492	61.685978
9715.075532	4747.516667	1415.403320	117.333900
9715.075532	4747.516667	1414.327148	136.239059
9715.075532	4747.516667	1413.250000	-10.744221
9715.075532	4747.516667	1412.173828	-53.792137
9715.075532	4747.516667	1411.096680	150.171478
9715.075532	4747.516667	1410.018555	30.432655
9715.075532	4747.516667	1408.941406	4.836302
9715.075532	4747.516667	1407.863281	121.325150
9715.075532	4747.516667	1406.785156	128.270676
9715.075532	4747.516667	1405.707031	184.408920
9715.075532	4747.516667	1404.628906	50.722980
9715.075532	4747.516667	1403.549805	64.057915
9715.075532	4747.516667	1402.470703	174.604294
9715.075532	4747.516667	1401.391602	145.566879
9715.075532	4747.516667	1400.312500	93.822311
9715.075532	4747.516667	1399.233398	34.486462
9715.075532	4747.516667	1398.153320	122.394920
9715.075532	4747.516667	1397.073242	78.567024
9715.075532	4747.516667	1395.993164	170.555176
9715.075532	4747.516667	1394.913086	137.534821
9715.075532	4747.516667	1393.832031	80.547798
9715.075532	4747.516667	1392.750977	51.063408
9715.075532	4747.516667	1391.669922	-29.320074
9715.075532	4747.516667	1390.588867	-44.936989
9715.075532	4747.516667	1389.506836	137.504715
9715.075532	4747.516667	1388.425781	234.665024
9715.075532	4747.516667	1387.343750	221.632355
9715.075532	4747.516667	1386.261719	196.966476
9715.075532	4747.516667	1385.178711	82.732079
9715.075532	4747.516667	1384.096680	133.534027
9715.075532	4747.516667	1383.013672	-58.782017
9715.075532	4747.516667	1381.930664	110.488983
9715.075532	4747.516667	1380.846680	209.269379
9715.075532	4747.516667	1379.763672	28.132280
9715.075532	4747.516667	1378.679688	290.031219
9715.075532	4747.516667	1377.595703	123.118294
9715.075532	4747.516667	1376.511719	195.101059
9715.075532	4747.516667	1375.427734	17.988890
9715.075532	4747.516667	1374.342773	273.347992
9715.075532	4747.516667	1373.257813	243.884857
9715.075532	4747.516667	1372.172852	68.085426
9715.075532	4747.516667	1371.087891	-42.596638
9715.075532	4747.516667	1370.001953	177.327911
9715.075532	4747.516667	1368.916992	204.215317
9715.075532	4747.516667	1367.831055	62.069893
9715.075532	4747.516667	1366.744141	78.656990
9715.075532	4747.516667	1365.658203	153.961456
9715.075532	4747.516667	1364.571289	159.765228
9715.075532	4747.516667	1363.484375	270.442352
9715.075532	4747.516667	1362.397461	137.609528
9715.075532	4747.516667	1361.310547	267.278046
9715.075532	4747.516667	1360.222656	238.743210
9715.075532	4747.516667	1359.135742	252.586945
9715.075532	4747.516667	1358.047852	110.410103
9715.075532	4747.516667	1356.958984	88.012161
9715.075532	4747.516667	1355.871094	33.934723
9715.075532	4747.516667	1354.782227	-75.137108
9715.075532	4747.516667	1353.693359	181.315750
9715.075532	4747.516667	1352.604492	197.224472
9715.075532	4747.516667	1351.515625	306.014343
9715.075532	4747.516667	1350.425781	186.214478
9715.075532	4747.516667	1349.335938	178.999985
9715.075532	4747.516667	1348.246094	154.260040
9715.075532	4747.516667	1347.156250	37.366241
9715.075532	4747.516667	1346.066406	259.205811
9715.075532	4747.516667	1344.975586	173.616577
9715.075532	4747.516667	1343.884766	235.777405
9715.075532	4747.516667	1342.793945	274.338196
9715.075532	4747.516667	1341.702148	220.916183
9715.075532	4747.516667	1340.611328	296.197296
9715.075532	4747.516667	1339.519531	217.049393
9715.075532	4747.516667	1338.427734	304.491943
9715.075532	4747.516667	1337.334961	179.765381
9715.075532	4747.516667	1336.243164	263.268188
9715.075532	4747.516667	1335.150391	217.311905
9715.075532	4747.516667	1334.057617	301.172638
9715.075532	4747.516667	1332.964844	165.015930
9715.075532	4747.516667	1331.871094	320.882172
9715.075532	4747.516667	1330.778320	274.609924
9715.075532	4747.516667	1329.684570	278.846008
9715.075532	4747.516667	1328.590820	308.201355
9715.075532	4747.516667	1327.496094	279.707733
9715.075532	4747.516667	1326.402344	93.272682
9715.075532	4747.516667	1325.307617	179.483795
9715.075532	4747.516667	1324.212891	87.317047
9715.075532	4747.516667	1323.117188	18.057257
9715.075532	4747.516667	1322.022461	180.690857
9715.075532	4747.516667	1320.926758	238.004852
9715.075532	4747.516667	1319.831055	244.448730
9715.075532	4747.516667	1318.735352	213.161621
9715.075532	4747.516667	1317.638672	311.958771
9715.075532	4747.516667	1316.542969	317.360474
9715.075532	4747.516667	1315.446289	246.423553
9715.075532	4747.516667	1314.349609	185.429398
9715.075532	4747.516667	1313.251953	183.238266
9715.075532	4747.516667	1312.155273	296.101685
9715.075532	4747.516667	1311.057617	226.906784
9715.075532	4747.516667	1309.959961	0.818579
9715.075532	4747.516667	1308.862305	264.214478
9715.075532	4747.516667	1307.763672	93.138512
9715.075532	4747.516667	1306.665039	211.710663
9715.075532	4747.516667	1305.566406	233.594498
9715.075532	4747.516667	1304.467773	261.094147
9715.075532	4747.516667	1303.369141	173.346786
9715.075532	4747.516667	1302.269531	231.703171
9715.075532	4747.516667	1301.169922	233.001968
9715.075532	4747.516667	1300.070313	51.229927
9715.075532	4747.516667	1298.970703	264.934387
9715.075532	4747.516667	1297.870117	176.367538
9715.075532	4747.516667	1296.769531	244.024216
9715.075532	4747.516667	1295.668945	174.915588
9715.075532	4747.516667	1294.568359	200.241333
9715.075532	4747.516667	1293.466797	102.022285
9715.075532	4747.516667	1292.366211	81.552086
9715.075532	4747.516667	1291.264648	57.840763
9715.075532	4747.516667	1290.162109	87.604630
9715.075532	4747.516667	1289.060547	-7.182120
9715.075532	4747.516667	1287.958008	77.809006
9715.075532	4747.516667	1286.855469	149.893921
9715.075532	4747.516667	1285.752930	-18.951330
9715.075532	4747.516667	1284.650391	129.219971
9715.075532	4747.516667	1283.546875	50.603653
9715.075532	4747.516667	1282.444336	105.059441
9715.075532	4747.516667	1281.339844	186.003998
9715.075532	4747.516667	1280.236328	120.850647
9715.075532	4747.516667	1279.132813	71.951485
9715.075532	4747.516667	1278.028320	61.197693
9715.075532	4747.516667	1276.923828	43.699986
9715.075532	4747.516667	1275.819336	115.142403
9715.075532	4747.516667	1274.713867	168.623215
9715.075532	4747.516667	1273.608398	73.526520
9715.075532	4747.516667	1272.503906	-42.804623
9715.075532	4747.516667	1271.397461	-70.708107
9715.075532	4747.516667	1270.291992	-90.016022
9715.075532	4747.516667	1269.185547	-55.555672
9715.075532	4747.516667	1268.080078	100.493332
9715.075532	4747.516667	1266.972656	68.894760
9715.075532	4747.516667	1265.866211	-10.203111
9715.075532	4747.516667	1264.759766	-2.231252
9715.075532	4747.516667	1263.652344	36.329594
9715.075532	4747.516667	1262.544922	16.863449
9715.075532	4747.516667	1261.436523	-71.115295
9715.075532	4747.516667	1260.329102	-65.339088
9715.075532	4747.516667	1259.220703	-7.948559
9715.075532	4747.516667	1258.112305	-87.666145
9715.075532	4747.516667	1257.003906	41.652176
9715.075532	4747.516667	1255.895508	24.114300
9715.075532	4747.516667	1254.786133	-45.402069
9715.075532	4747.516667	1253.676758	-70.456291
9715.075532	4747.516667	1252.567383	-55.783253
9715.075532	4747.516667	1251.458008	-144.188126
9715.075532	4747.516667	1250.347656	-2.176991
9715.075532	4747.516667	1249.237305	-56.819954
9715.075532	4747.516667	1248.126953	-2.411455
9715.075532	4747.516667	1247.016602	9.272626
9715.075532	4747.516667	1245.905273	18.526030
9715.075532	4747.516667	1244.793945	28.010092
9715.075532	4747.516667	1243.682617	-8.583284
9715.075532	4747.516667	1242.571289	-32.848335
9715.075532	4747.516667	1241.459961	81.618752
9715.075532	4747.516667	1240.347656	124.226967
9715.075532	4747.516667	1239.235352	108.450150
9715.075532	4747.516667	1238.123047	18.598375
9715.075532	4747.516667	1237.009766	-10.757272
9715.075532	4747.516667	1235.897461	-24.787716
9715.075532	4747.516667	1234.784180	67.044212
9715.075532	4747.516667	1233.670898	55.717266
9715.075532	4747.516667	1232.556641	-20.618372
9715.075532	4747.516667	1231.443359	62.903526
9715.075532	4747.516667	1230.329102	-36.228733
9715.075532	4747.516667	1229.214844	78.175552
9715.075532	4747.516667	1228.099609	91.292915
9715.075532	4747.516667	1226.985352	-22.908794
9715.075532	4747.516667	1225.870117	82.879974
9715.075532	4747.516667	1224.754883	131.066757
9715.075532	4747.516667	1223.639648	-8.299075
9715.075532	4747.516667	1222.523438	111.285133
9715.075532	4747.516667	1221.408203	13.207267
9715.075532	4747.516667	1220.291992	-31.335510
9715.075532	4747.516667	1219.174805	15.614353
9715.075532	4747.516667	1218.058594	44.846161
9715.075532	4747.516667	1216.941406	19.158596
9715.075532	4747.516667	1215.824219	86.307930
9715.075532	4747.516667	1214.707031	60.175568
9715.075532	4747.516667	1213.589844	-24.412733
9715.075532	4747.516667	1212.471680	-77.354767
9715.075532	4747.516667	1211.353516	-55.959641
9715.075532	4747.516667	1210.235352	39.957779
9715.075532	4747.516667	1209.117188	132.512314
9715.075532	4747.516667	1207.998047	-41.201672
9715.075532	4747.516667	1206.878906	44.768482
9715.075532	4747.516667	1205.759766	79.533714
9715.075532	4747.516667	1204.640625	0.138540
9715.075532	4747.516667	1203.520508	45.258327
9715.075532	4747.516667	1202.401367	62.142738
9715.075532	4747.516667	1201.281250	45.132126
9715.075532	4747.516667	1200.160156	104.595207
9715.075532	4747.516667	1199.040039	-54.872562
9715.075532	4747.516667	1197.918945	-142.747314
9715.075532	4747.516667	1196.797852	-31.465849
9715.075532	4747.516667	1195.676758	-59.983631
9715.075532	4747.516667	1194.555664	-15.309811
9715.075532	4747.516667	1193.433594	-105.279892
9715.075532	4747.516667	1192.311523	-35.872601
9715.075532	4747.516667	1191.189453	48.079674
9715.075532	4747.516667	1190.066406	-76.490067
9715.075532	4747.516667	1188.944336	-18.686192
9715.075532	4747.516667	1187.821289	-48.235142
9715.075532	4747.516667	1186.698242	33.627632
9715.075532	4747.516667	1185.574219	2.040145
9715.075532	4747.516667	1184.451172	26.384520
9715.075532	4747.516667	1183.327148	-9.760159
9715.075532	4747.516667	1182.203125	-34.581394
9715.075532	4747.516667	1181.078125	-26.658047
9715.075532	4747.516667	1179.954102	-19.641987
9715.075532	4747.516667	1178.829102	22.312315
9715.075532	4747.516667	1177.704102	-43.403934
9715.075532	4747.516667	1176.579102	-17.085480
9715.075532	4747.516667	1175.453125	-70.217033
9715.075532	4747.516667	1174.327148	-70.321365
9715.075532	4747.516667	1173.201172	-83.039406
9715.075532	4747.516667	1172.075195	0.932258
9715.075532	4747.516667	1170.949219	-99.418381
9715.075532	4747.516667	1169.822266	33.220261
9715.075532	4747.516667	1168.695313	-95.831207
9715.075532	4747.516667	1167.568359	-105.370918
9715.075532	4747.516667	1166.440430	-77.893990
9715.075532	4747.516667	1165.313477	-114.324600
9715.075532	4747.516667	1164.185547	-57.708897
9715.075532	4747.516667	1163.057617	-32.400925
9715.075532	4747.516667	1161.928711	-135.661514
9715.075532	4747.516667	1160.800781	-35.619717
9715.075532	4747.516667	1159.671875	-39.414627
9715.075532	4747.516667	1158.541992	-151.877625
9715.075532	4747.516667	1157.413086	-182.925674
9715.075532	4747.516667	1156.283203	-64.269310
9715.075532	4747.516667	1155.154297	-6.431328
9715.075532	4747.516667	1154.023438	-36.124832
9715.075532	4747.516667	1152.893555	-81.624977
9715.075532	4747.516667	1151.763672	-28.309916
9715.075532	4747.516667	1150.632813	-78.727821
9715.075532	4747.516667	1149.501953	-64.415489
9715.075532	4747.516667	1148.370117	7.565673
9715.075532	4747.516667	1147.239258	-57.549881
9715.075532	4747.516667	1146.107422	-20.531754
9715.075532	4747.516667	1144.975586	25.438374
9715.075532	4747.516667	1143.843750	92.299263
9715.075532	4747.516667	1142.710938	30.030401
9715.075532	4747.516667	1141.578125	25.044432
9715.075532	4747.516667	1140.445313	-141.794571
9715.075532	4747.516667	1139.312500	-59.587383
9715.075532	4747.516667	1138.178711	21.700062
9715.075532	4747.516667	1137.045898	-116.398880
9715.075532	4747.516667	1135.912109	50.520016
9715.075532	4747.516667	1134.777344	15.955023
9715.075532	4747.516667	1133.643555	22.877188
9715.075532	4747.516667	1132.508789	-19.964220
9715.075532	4747.516667	1131.374023	-15.801755
9715.075532	4747.516667	1130.239258	122.999191
9715.075532	4747.516667	1129.104492	-82.601563
9715.075532	4747.516667	1127.968750	38.166130
9715.075532	4747.516667	1126.833008	-50.466766
9715.075532	4747.516667	1125.697266	194.493256
9715.075532	4747.516667	1124.560547	73.303574
9715.075532	4747.516667	1123.424805	93.750778
9715.075532	4747.516667	1122.288086	105.557716
9715.075532	4747.516667	1121.151367	-16.324253
9715.075532	4747.516667	1120.013672	-20.577806
9715.075532	4747.516667	1118.876953	153.430588
9715.075532	4747.516667	1117.739258	177.487991
9715.075532	4747.516667	1116.601563	39.394062
9715.075532	4747.516667	1115.462891	-35.659000
9715.075532	4747.516667	1114.324219	69.466896
9715.075532	4747.516667	1113.186523	9.400204
9715.075532	4747.516667	1112.046875	71.557899
9715.075532	4747.516667	1110.908203	106.636116
9715.075532	4747.516667	1109.769531	27.827003
9715.075532	4747.516667	1108.629883	84.785484
9715.075532	4747.516667	1107.490234	-106.040558
9715.075532	4747.516667	1106.349609	79.176590
9715.075532	4747.516667	1105.209961	19.538082
9715.075532	4747.516667	1104.069336	-109.444649
9715.075532	4747.516667	1102.928711	60.663235
9715.075532	4747.516667	1101.787109	-49.466911
9715.075532	4747.516667	1100.646484	77.293190
9715.075532	4747.516667	1099.504883	-70.898293
9715.075532	4747.516667	1098.363281	164.447342
9715.075532	4747.516667	1097.221680	-28.495169
9715.075532	4747.516667	1096.079102	104.427330
9715.075532	4747.516667	1094.936523	30.709490
9715.075532	4747.516667	1093.793945	275.343964
9715.075532	4747.516667	1092.651367	2.650051
9715.075532	4747.516667	1091.507813	34.786621
9715.075532	4747.516667	1090.364258	113.061966
9715.075532	4747.516667	1089.220703	95.436523
9715.075532	4747.516667	1088.077148	-20.482319
9715.075532	4747.516667	1086.933594	-36.421127
9715.075532	4747.516667	1085.789063	102.798340
9715.075532	4747.516667	1084.644531	-29.975388
9715.075532	4747.516667	1083.499023	-38.941574
9715.075532	4747.516667	1082.354492	96.488678
9715.075532	4747.516667	1081.208984	101.093109
9715.075532	4747.516667	1080.063477	93.974281
9715.075532	4747.516667	1078.917969	21.811907
9715.075532	4747.516667	1077.771484	7.215162
9715.075532	4747.516667	1076.625977	12.528666
9715.075532	4747.516667	1075.479492	104.969292
9715.075532	4747.516667	1074.332031	-41.665680
9715.075532	4747.516667	1073.185547	68.492508
9715.075532	4747.516667	1072.038086	-34.940060
9715.075532	4747.516667	1070.890625	-45.509922
9715.075532	4747.516667	1069.743164	-18.390385
9715.075532	4747.516667	1068.594727	101.252098
9715.075532	4747.516667	1067.447266	111.994644
9715.075532	4747.516667	1066.298828	67.277733
9715.075532	4747.516667	1065.149414	-34.654556
9715.075532	4747.516667	1064.000977	79.328323
9715.075532	4747.516667	1062.851563	-41.849937
9715.075532	4747.516667	1061.702148	97.280029
9715.075532	4747.516667	1060.552734	192.828629
9715.075532	4747.516667	1059.402344	1.281019
9715.075532	4747.516667	1058.252930	59.095253
9715.075532	4747.516667	1057.102539	77.238152
9715.075532	4747.516667	1055.951172	279.705780
9715.075532	4747.516667	1054.800781	83.029594
9715.075532	4747.516667	1053.649414	42.831059
9715.075532	4747.516667	1052.498047	37.855686
9715.075532	4747.516667	1051.346680	27.837448
9715.075532	4747.516667	1050.194336	6.629911
9715.075532	4747.516667	1049.042969	61.565208
9715.075532	4747.516667	1047.890625	-9.520233
9715.075532	4747.516667	1046.738281	14.554363
9715.075532	4747.516667	1045.584961	80.881706
9715.075532	4747.516667	1044.431641	44.403378
9715.075532	4747.516667	1043.278320	125.173195
9715.075532	4747.516667	1042.125000	112.861649
9715.075532	4747.516667	1040.971680	96.019638
9715.075532	4747.516667	1039.817383	100.001907
9715.075532	4747.516667	1038.663086	192.198975
9715.075532	4747.516667	1037.508789	-25.802172
9715.075532	4747.516667	1036.353516	82.201797
9715.075532	4747.516667	1035.198242	63.864655
9715.075532	4747.516667	1034.042969	-71.639656
9715.075532	4747.516667	1032.887695	13.965828
9715.075532	4747.516667	1031.732422	173.345779
9715.075532	4747.516667	1030.576172	165.857162
9715.075532	4747.516667	1029.419922	104.772095
9715.075532	4747.516667	1028.263672	73.729362
9715.075532	4747.516667	1027.106445	94.150787
9715.075532	4747.516667	1025.949219	187.522949
9715.075532	4747.516667	1024.792969	33.973640
9715.075532	4747.516667	1023.634766	77.179031
9715.075532	4747.516667	1022.477539	143.384125
9715.075532	4747.516667	1021.319336	-3.521391
9715.075532	4747.516667	1020.161133	67.995605
9715.075532	4747.516667	1019.002930	-22.727356
9715.075532	4747.516667	1017.843750	-22.536747
9715.075532	4747.516667	1016.684570	19.913637
9715.075532	4747.516667	1015.525391	135.904205
9715.075532	4747.516667	1014.366211	156.372620
9715.075532	4747.516667	1013.207031	81.029442
9715.075532	4747.516667	1012.046875	57.549057
9715.075532	4747.516667	1010.886719	10.403814
9715.075532	4747.516667	1009.726563	39.256939
9715.075532	4747.516667	1008.565430	-129.770996
9715.075532	4747.516667	1007.404297	21.855934
9715.075532	4747.516667	1006.243164	71.210625
9715.075532	4747.516667	1005.082031	-23.719957
9715.075532	4747.516667	1003.920898	114.853409
9715.075532	4747.516667	1002.758789	228.267456
9715.075532	4747.516667	1001.596680	79.673012
9715.075532	4747.516667	1000.433594	10.610858
9715.075532	4747.516667	999.271484	-12.540186
9715.075532	4747.516667	998.108398	-18.938955
9715.075532	4747.516667	996.945313	44.572807
9715.075532	4747.516667	995.782227	69.489395
9715.075532	4747.516667	994.618164	76.524811
9715.075532	4747.516667	993.454102	0.429185
9715.075532	4747.516667	992.290039	215.570358
9715.075532	4747.516667	991.125977	58.776623
9715.075532	4747.516667	989.960938	22.255022
9715.075532	4747.516667	988.796875	-58.038937
9715.075532	4747.516667	987.630859	-1.073874
9715.075532	4747.516667	986.465820	-17.718729
9715.075532	4747.516667	985.300781	146.618286
9715.075532	4747.516667	984.134766	21.892618
9715.075532	4747.516667	982.968750	44.577324
9715.075532	4747.516667	981.801758	82.425644
9715.075532	4747.516667	980.635742	-5.131427
9715.075532	4747.516667	979.468750	112.740540
9715.075532	4747.516667	978.301758	-14.842723
9715.075532	4747.516667	977.133789	-81.774551
9715.075532	4747.516667	975.966797	-114.128136
9715.075532	4747.516667	974.798828	28.360916
9715.075532	4747.516667	973.630859	87.226906
9715.075532	4747.516667	972.461914	-19.620878
9715.075532	4747.516667	971.293945	6.337842
9715.075532	4747.516667	970.125000	-60.623951
9715.075532	4747.516667	968.956055	88.125801
9715.075532	4747.516667	967.786133	47.279976
9715.075532	4747.516667	966.617188	-42.267410
9715.075532	4747.516667	965.447266	-45.122482
9715.075532	4747.516667	964.276367	-102.920891
9715.075532	4747.516667	963.106445	38.316479
9715.075532	4747.516667	961.935547	22.158165
9715.075532	4747.516667	960.764648	147.992264
9715.075532	4747.516667	959.593750	130.110428
9715.075532	4747.516667	958.422852	-49.908550
9715.075532	4747.516667	957.250977	10.456116
9715.075532	4747.516667	956.079102	92.643883
9715.075532	4747.516667	954.907227	-32.991077
9715.075532	4747.516667	953.734375	34.177906
9715.075532	4747.516667	952.562500	18.494150
9715.075532	4747.516667	951.389648	112.930534
9715.075532	4747.516667	950.215820	30.186865
9715.075532	4747.516667	949.042969	23.788231
9715.075532	4747.516667	947.869141	109.163925
9715.075532	4747.516667	946.695313	6.902505
9715.075532	4747.516667	945.521484	55.450916
9715.075532	4747.516667	944.346680	114.191986
9715.075532	4747.516667	943.172852	-3.253258
9715.075532	4747.516667	941.998047	-29.487991
9715.075532	4747.516667	940.822266	158.303314
9715.075532	4747.516667	939.647461	-94.765045
9715.075532	4747.516667	938.471680	-7.434535
9715.075532	4747.516667	937.295898	-22.711153
9715.075532	4747.516667	936.119141	-107.976387
9715.075532	4747.516667	934.943359	-173.329605
9715.075532	4747.516667	933.766602	68.959183
9715.075532	4747.516667	932.589844	239.067200
9715.075532	4747.516667	931.413086	42.545368
9715.075532	4747.516667	930.235352	48.925667
9715.075532	4747.516667	929.057617	61.848736
9715.075532	4747.516667	927.879883	-56.164772
9715.075532	4747.516667	926.702148	124.658730
9715.075532	4747.516667	925.523438	89.484428
9715.075532	4747.516667	924.344727	-48.165119
9715.075532	4747.516667	923.166016	12.580834
9715.075532	4747.516667	921.987305	20.971453
9715.075532	4747.516667	920.807617	85.994110
9715.075532	4747.516667	919.627930	87.076210
9715.075532	4747.516667	919.497070	39.960724
9715.075532	4747.516667	918.331055	-93.348831
9715.075532	4747.516667	917.165039	15.127493
9715.075532	4747.516667	915.999023	42.967937
9715.075532	4747.516667	914.833008	-105.570526
9715.075532	4747.516667	913.666016	-64.702324
9715.075532	4747.516667	912.499023	52.293526
9715.075532	4747.516667	911.332031	-24.424156
9715.075532	4747.516667	910.165039	109.873260
9715.075532	4747.516667	908.997070	-99.537018
9715.075532	4747.516667	907.830078	-52.301826
9715.075532	4747.516667	906.661133	-42.064476
9715.075532	4747.516667	905.493164	-29.680929
9715.075532	4747.516667	904.325195	-145.537582
9715.075532	4747.516667	903.156250	68.876045
9715.075532	4747.516667	901.987305	-3.552876
9715.075532	4747.516667	900.818359	71.707008
9715.075532	4747.516667	899.648438	142.571899
9715.075532	4747.516667	898.478516	96.158485
9715.075532	4747.516667	897.308594	64.934662
9715.075532	4747.516667	896.138672	103.143188
9715.075532	4747.516667	894.968750	-45.268551
9715.075532	4747.516667	893.797852	-20.111021
9715.075532	4747.516667	892.626953	-38.358265
9715.075532	4747.516667	891.456055	-21.927664
9715.075532	4747.516667	890.284180	-1.188327
9715.075532	4747.516667	889.113281	32.524502
9715.075532	4747.516667	887.941406	-52.976730
9715.075532	4747.516667	886.768555	-71.303307
9715.075532	4747.516667	885.596680	72.808250
9715.075532	4747.516667	884.423828	-127.486931
9715.075532	4747.516667	883.250977	-22.436222
9715.075532	4747.516667	882.078125	89.044945
9715.075532	4747.516667	880.905273	7.841416
9715.075532	4747.516667	879.731445	30.513603
9715.075532	4747.516667	878.557617	9.888920
9715.075532	4747.516667	877.383789	15.207190
9715.075532	4747.516667	876.209961	-133.033463
9715.075532	4747.516667	875.035156	6.318608
9715.075532	4747.516667	873.860352	43.998104
9715.075532	4747.516667	872.685547	135.670624
9715.075532	4747.516667	871.510742	127.892876
9715.075532	4747.516667	870.334961	1.283238
9715.075532	4747.516667	869.159180	-4.343946
9715.075532	4747.516667	867.983398	126.052895
9715.075532	4747.516667	866.807617	-117.121384
9715.075532	4747.516667	865.630859	4.571330
9715.075532	4747.516667	864.454102	9.658834
9715.075532	4747.516667	863.277344	-13.324150
9715.075532	4747.516667	862.100586	-14.745727
9715.075532	4747.516667	860.922852	-24.813347
9715.075532	4747.516667	859.745117	-73.709618
9715.075532	4747.516667	858.567383	19.680262
9715.075532	4747.516667	857.389648	-134.859482
9715.075532	4747.516667	856.210938	-0.589584
9715.075532	4747.516667	855.032227	105.596954
9715.075532	4747.516667	853.853516	32.931129
9715.075532	4747.516667	852.674805	65.804596
9715.075532	4747.516667	851.495117	-75.764648
9715.075532	4747.516667	850.315430	-215.141708
9715.075532	4747.516667	849.135742	-188.752823
9715.075532	4747.516667	847.956055	35.577835
9715.075532	4747.516667	846.775391	3.776885
9715.075532	4747.516667	845.595703	118.236794
9715.075532	4747.516667	844.415039	-85.650200
9715.075532	4747.516667	843.233398	22.292171
9715.075532	4747.516667	842.052734	3.341220
9715.075532	4747.516667	840.871094	124.078064
9715.075532	4747.516667	839.689453	51.355492
9715.075532	4747.516667	838.506836	32.351967
9715.075532	4747.516667	837.325195	45.556343
9715.075532	4747.516667	836.142578	11.491510
9715.075532	4747.516667	834.959961	-202.927185
9715.075532	4747.516667	833.777344	33.501934
9715.075532	4747.516667	832.593750	-58.542255
9715.075532	4747.516667	831.410156	33.960609
9715.075532	4747.516667	830.226563	-51.648140
9715.075532	4747.516667	829.042969	57.935230
9715.075532	4747.516667	827.858398	-8.382939
9715.075532	4747.516667	826.673828	34.646778
9715.075532	4747.516667	825.489258	0.475089
9715.075532	4747.516667	824.304688	4.872515
9715.075532	4747.516667	823.120117	-78.597450
9715.075532	4747.516667	821.934570	62.873310
9715.075532	4747.516667	820.749023	56.489376
9715.075532	4747.516667	819.562500	140.020737
9715.075532	4747.516667	818.376953	-74.074509
9715.075532	4747.516667	817.190430	-24.834538
9715.075532	4747.516667	816.003906	161.321762
9715.075532	4747.516667	814.817383	152.688339
9715.075532	4747.516667	813.629883	13.556596
9715.075532	4747.516667	812.442383	184.561401
9715.075532	4747.516667	811.254883	56.132935
9715.075532	4747.516667	810.067383	21.798552
9715.075532	4747.516667	808.878906	-130.091812
9715.075532	4747.516667	807.690430	87.734947
9715.075532	4747.516667	806.501953	286.225128
9715.075532	4747.516667	805.313477	108.684868
9715.075532	4747.516667	804.124023	91.362511
9715.075532	4747.516667	802.934570	22.785603
9715.075532	4747.516667	801.745117	37.469284
9715.075532	4747.516667	800.555664	79.872055
9715.075532	4747.516667	799.365234	60.358391
9715.075532	4747.516667	798.175781	0.301909
9715.075532	4747.516667	796.985352	230.320190
9715.075532	4747.516667	795.793945	-34.499905
9715.075532	4747.516667	794.603516	18.437037
9715.075532	4747.516667	793.412109	13.780721
9715.075532	4747.516667	792.220703	-37.777588
9715.075532	4747.516667	791.028320	-72.289055
9715.075532	4747.516667	789.836914	187.166046
9715.075532	4747.516667	788.644531	173.881363
9715.075532	4747.516667	787.452148	5.141488
9715.075532	4747.516667	786.258789	115.337082
9715.075532	4747.516667	785.066406	78.604790
9715.075532	4747.516667	783.873047	63.148304
9715.075532	4747.516667	782.679688	51.933422
9715.075532	4747.516667	781.485352	-29.491526
9715.075532	4747.516667	780.291992	80.500465
9715.075532	4747.516667	779.097656	50.094410
9715.075532	4747.516667	777.903320	189.746399
9715.075532	4747.516667	776.708008	55.147793
9715.075532	4747.516667	775.512695	-11.416196
9715.075532	4747.516667	774.318359	130.227921
9715.075532	4747.516667	773.122070	87.001205
9715.075532	4747.516667	771.926758	-96.383568
9715.075532	4747.516667	770.730469	-116.229385
9715.075532	4747.516667	769.534180	97.412651
9715.075532	4747.516667	768.337891	-13.761143
9715.075532	4747.516667	767.141602	44.838615
9715.075532	4747.516667	765.944336	27.023762
9715.075532	4747.516667	764.747070	-75.641037
9715.075532	4747.516667	763.549805	124.950714
9715.075532	4747.516667	762.351563	5.308547
9715.075532	4747.516667	761.154297	-48.592861
9715.075532	4747.516667	759.956055	67.042381
9715.075532	4747.516667	758.757813	72.436256
9715.075532	4747.516667	757.558594	52.387325
9715.075532	4747.516667	756.359375	131.868103
9715.075532	4747.516667	755.160156	-72.437782
9715.075532	4747.516667	753.960938	-43.809555
9715.075532	4747.516667	752.761719	-99.873627
9715.075532	4747.516667	751.561523	-69.174278
9715.075532	4747.516667	750.361328	44.003761
9715.075532	4747.516667	749.160156	-50.175800
9715.075532	4747.516667	747.959961	29.077482
9715.075532	4747.516667	746.758789	74.448868
9715.075532	4747.516667	745.557617	-34.530891
9715.075532	4747.516667	744.356445	34.045525
9715.075532	4747.516667	743.154297	223.015579
9715.075532	4747.516667	741.952148	40.076622
9715.075532	4747.516667	740.750000	182.463089
9715.075532	4747.516667	739.547852	-0.427453
9715.075532	4747.516667	738.344727	78.532959
9715.075532	4747.516667	737.142578	75.122833
9715.075532	4747.516667	735.939453	16.825060
9715.075532	4747.516667	734.735352	148.425354
9715.075532	4747.516667	733.532227	-32.248371
9715.075532	4747.516667	732.328125	-25.161047
9715.075532	4747.516667	731.124023	-53.940880
9715.075532	4747.516667	729.918945	-55.321301
9715.075532	4747.516667	728.714844	14.945662
9715.075532	4747.516667	727.509766	-68.667030
9715.075532	4747.516667	726.303711	90.022835
9715.075532	4747.516667	725.098633	-61.008644
9715.075532	4747.516667	723.892578	-1.400394
9715.075532	4747.516667	722.686523	26.583757
9715.075532	4747.516667	721.480469	-12.822642
9715.075532	4747.516667	720.274414	118.246284
9715.075532	4747.516667	719.067383	101.948639
9715.075532	4747.516667	717.860352	-53.205414
9715.075532	4747.516667	716.653320	-19.012585
9715.075532	4747.516667	715.445313	-3.777189
9715.075532	4747.516667	714.238281	-70.557076
9715.075532	4747.516667	713.030273	24.527237
9715.075532	4747.516667	711.821289	-77.990906
9715.075532	4747.516667	710.613281	-24.997879
9715.075532	4747.516667	709.404297	23.755371
9715.075532	4747.516667	708.195313	11.566733
9715.075532	4747.516667	706.986328	-76.223251
9715.075532	4747.516667	705.776367	-157.694824
9715.075532	4747.516667	704.566406	10.623777
9715.075532	4747.516667	703.356445	-64.564583
9715.075532	4747.516667	702.146484	-76.793846
9715.075532	4747.516667	700.935547	51.504639
9715.075532	4747.516667	699.724609	-61.435566
9715.075532	4747.516667	698.513672	-6.604945
9715.075532	4747.516667	697.302734	14.650080
9715.075532	4747.516667	696.090820	-16.513948
9715.075532	4747.516667	694.878906	153.479355
9715.075532	4747.516667	693.666992	15.432989
9715.075532	4747.516667	692.455078	189.513748
9715.075532	4747.516667	691.242188	-9.235135
9715.075532	4747.516667	690.029297	150.097763
9715.075532	4747.516667	688.816406	100.034698
9715.075532	4747.516667	687.602539	29.052519
9715.075532	4747.516667	686.389648	71.076370
9715.075532	4747.516667	685.175781	8.477613
9715.075532	4747.516667	683.960938	81.835648
9715.075532	4747.516667	682.747070	84.062500
9715.075532	4747.516667	681.532227	-34.973915
9715.075532	4747.516667	680.317383	67.581284
9715.075532	4747.516667	679.102539	124.113205
9715.075532	4747.516667	677.886719	61.525448
9715.075532	4747.516667	676.670898	51.175861
9715.075532	4747.516667	675.455078	-7.208633
9715.075532	4747.516667	674.239258	93.105255
9715.075532	4747.516667	673.022461	-21.640001
9715.075532	4747.516667	671.805664	5.574136
9715.075532	4747.516667	670.588867	-146.674789
9715.075532	4747.516667	669.372070	-123.629066
9715.075532	4747.516667	668.154297	74.598831
9715.075532	4747.516667	666.936523	-135.972519
9715.075532	4747.516667	665.718750	70.504944
9715.075532	4747.516667	664.500977	105.972572
9715.075532	4747.516667	663.282227	-23.211384
9715.075532	4747.516667	662.063477	56.006344
9715.075532	4747.516667	660.844727	-114.779068
9715.075532	4747.516667	659.625000	12.318468
9715.075532	4747.516667	658.405273	201.826385
9715.075532	4747.516667	657.185547	12.376484
9715.075532	4747.516667	655.965820	99.818863
9715.075532	4747.516667	654.745117	205.950287
9715.075532	4747.516667	653.525391	116.479454
9715.075532	4747.516667	652.303711	83.202957
9715.075532	4747.516667	651.083008	147.682617
9715.075532	4747.516667	649.861328	76.992996
9715.075532	4747.516667	648.640625	124.821785
9715.075532	4747.516667	647.417969	266.149719
9715.075532	4747.516667	646.196289	149.777908
9715.075532	4747.516667	644.973633	201.722321
9715.075532	4747.516667	643.750977	89.573441
9715.075532	4747.516667	642.528320	124.907013
9715.075532	4747.516667	641.305664	70.961876
9715.075532	4747.516667	640.082031	23.270281
9715.075532	4747.516667	638.858398	4.658550
9715.075532	4747.516667	637.634766	118.843079
9715.075532	4747.516667	636.410156	11.038773
9715.075532	4747.516667	635.185547	89.933769
9715.075532	4747.516667	633.960938	23.666851
9715.075532	4747.516667	632.736328	88.034027
9715.075532	4747.516667	631.510742	63.264431
9715.075532	4747.516667	630.285156	24.012009
9715.075532	4747.516667	629.059570	15.862830
9715.075532	4747.516667	627.833984	94.719376
9715.075532	4747.516667	626.607422	-66.653999
9715.075532	4747.516667	625.380859	34.985023
9715.075532	4747.516667	624.154297	-45.554333
9715.075532	4747.516667	622.927734	105.733475
9715.075532	4747.516667	621.700195	2.483471
9715.075532	4747.516667	620.472656	70.984337
9715.075532	4747.516667	619.245117	36.066803
9715.075532	4747.516667	618.016602	25.992443
9715.075532	4747.516667	616.788086	-29.538488
9715.075532	4747.516667	615.559570	-130.496994
9715.075532	4747.516667	614.331055	-53.684620
9715.075532	4747.516667	613.101563	-100.842178
9715.075532	4747.516667	611.872070	40.001560
9715.075532	4747.516667	610.642578	-77.324112
9715.075532	4747.516667	609.413086	181.182007
9715.075532	4747.516667	608.182617	115.524826
9715.075532	4747.516667	606.952148	47.856152
9715.075532	4747.516667	605.721680	-17.695854
9715.075532	4747.516667	604.491211	127.217178
9715.075532	4747.516667	603.259766	-53.768890
9715.075532	4747.516667	602.028320	95.266243
9715.075532	4747.516667	600.796875	46.357491
9715.075532	4747.516667	599.564453	71.696457
9715.075532	4747.516667	598.332031	-30.707266
9715.075532	4747.516667	597.099609	77.106041
9715.075532	4747.516667	595.867188	92.213287
9715.075532	4747.516667	594.633789	228.846222
9715.075532	4747.516667	593.400391	180.151550
9715.075532	4747.516667	592.166992	123.276520
9715.075532	4747.516667	590.933594	91.156410
9715.075532	4747.516667	589.699219	87.889305
9715.075532	4747.516667	588.464844	72.316162
9715.075532	4747.516667	587.230469	-11.085728
9715.075532	4747.516667	585.995117	84.480049
9715.075532	4747.516667	584.760742	-39.931595
9715.075532	4747.516667	583.525391	-24.484882
9715.075532	4747.516667	582.289063	-89.150673
9715.075532	4747.516667	581.053711	-129.092987
9715.075532	4747.516667	579.817383	-45.733196
9715.075532	4747.516667	578.581055	60.222519
9715.075532	4747.516667	577.343750	123.057114
9715.075532	4747.516667	576.107422	187.961761
9715.075532	4747.516667	574.870117	162.578323
9715.075532	4747.516667	573.631836	10.032152
9715.075532	4747.516667	572.394531	-58.293449
9715.075532	4747.516667	571.156250	-21.941933
9715.075532	4747.516667	569.917969	-75.785286
9715.075532	4747.516667	568.679688	22.153259
9715.075532	4747.516667	567.440430	-121.768867
9715.075532	4747.516667	566.202148	31.565142
9715.075532	4747.516667	564.961914	-124.492424
9715.075532	4747.516667	563.722656	164.070267
9715.075532	4747.516667	562.482422	59.351849
9715.075532	4747.516667	561.243164	-18.651842
9715.075532	4747.516667	560.001953	116.326019
9715.075532	4747.516667	558.761719	-20.904449
9715.075532	4747.516667	557.520508	9.766924
9715.075532	4747.516667	556.279297	-147.732086
9715.075532	4747.516667	555.038086	-65.804184
9715.075532	4747.516667	553.795898	-37.023239
9715.075532	4747.516667	552.554688	4.068327
9715.075532	4747.516667	551.311523	-3.857048
9715.075532	4747.516667	550.069336	-50.549809
9715.075532	4747.516667	548.826172	88.761871
9715.075532	4747.516667	547.583984	7.459951
9715.075532	4747.516667	546.339844	-26.775808
9715.075532	4747.516667	545.096680	86.075020
9715.075532	4747.516667	543.852539	47.874424
9715.075532	4747.516667	542.608398	-147.403107
9715.075532	4747.516667	541.364258	16.596371
9715.075532	4747.516667	540.119141	-19.340776
9715.075532	4747.516667	538.875000	120.209091
9715.075532	4747.516667	537.628906	49.723499
9715.075532	4747.516667	536.383789	22.144581
9715.075532	4747.516667	535.137695	-15.549905
9715.075532	4747.516667	533.892578	52.805874
9715.075532	4747.516667	532.645508	115.084480
9715.075532	4747.516667	531.399414	59.252754
9715.075532	4747.516667	530.152344	-49.440742
9715.075532	4747.516667	528.905273	-131.553055
9715.075532	4747.516667	527.658203	34.792450
9715.075532	4747.516667	526.410156	-108.230362
9715.075532	4747.516667	525.163086	-4.910161
9715.075532	4747.516667	523.914063	126.914093
9715.075532	4747.516667	522.666016	45.180130
9715.075532	4747.516667	521.416992	-77.123215
9715.075532	4747.516667	520.167969	50.763329
9715.075532	4747.516667	518.918945	-38.834110
9715.075532	4747.516667	517.669922	-32.812572
9715.075532	4747.516667	516.419922	85.021965
9715.075532	4747.516667	515.169922	-40.891380
9715.075532	4747.516667	513.919922	5.943291
9715.075532	4747.516667	512.668945	-30.424965
9715.075532	4747.516667	511.417969	107.870903
9715.075532	4747.516667	510.166992	85.834015
9715.075532	4747.516667	508.916016	110.541649
9715.075532	4747.516667	507.664063	181.965256
9715.075532	4747.516667	506.412109	139.837738
9715.075532	4747.516667	505.160156	41.011639
9715.075532	4747.516667	503.907227	169.364166
9715.075532	4747.516667	502.655273	70.699829
9715.075532	4747.516667	501.402344	229.513794
9715.075532	4747.516667	500.148438	167.475464
9715.075532	4747.516667	498.895508	218.960648
9715.075532	4747.516667	497.641602	229.980759
9715.075532	4747.516667	496.387695	291.675598
9715.075532	4747.516667	495.132813	331.136261
9715.075532	4747.516667	493.878906	154.072922
9715.075532	4747.516667	492.624023	321.140198
9715.075532	4747.516667	491.368164	328.370819
9715.075532	4747.516667	490.113281	206.202103
9715.075532	4747.516667	488.857422	332.871246
9715.075532	4747.516667	487.601563	334.188202
9715.075532	4747.516667	486.344727	495.242462
9715.075532	4747.516667	485.088867	324.848114
9715.075532	4747.516667	483.832031	639.486572
9715.075532	4747.516667	482.575195	533.871704
9715.075532	4747.516667	481.317383	585.876953
9715.075532	4747.516667	480.059570	676.266724
9715.075532	4747.516667	478.801758	540.563171
9715.075532	4747.516667	477.543945	552.291321
9715.075532	4747.516667	476.285156	541.858582
9715.075532	4747.516667	475.027344	408.401764
9715.075532	4747.516667	473.767578	396.059113
9715.075532	4747.516667	472.508789	470.462067
9715.075532	4747.516667	471.249023	589.219177
9715.075532	4747.516667	469.989258	546.697998
9715.075532	4747.516667	468.729492	548.555298
9715.075532	4747.516667	467.469727	419.471588
9715.075532	4747.516667	466.208984	407.298615
9715.075532	4747.516667	464.948242	727.445435
9715.075532	4747.516667	463.686523	493.760193
9715.075532	4747.516667	462.425781	431.293854
9715.075532	4747.516667	461.164063	491.635040
9715.075532	4747.516667	459.901367	537.872375
9715.075532	4747.516667	458.639648	684.676208
9715.075532	4747.516667	457.376953	513.629333
9715.075532	4747.516667	456.114258	543.739136
9715.075532	4747.516667	454.851563	614.035767
9715.075532	4747.516667	453.587891	583.791748
9715.075532	4747.516667	452.324219	471.151306
9715.075532	4747.516667	451.060547	527.307312
9715.075532	4747.516667	449.796875	569.353333
9715.075532	4747.516667	448.532227	663.571106
9715.075532	4747.516667	447.267578	677.400879
9715.075532	4747.516667	446.002930	643.008972
9715.075532	4747.516667	444.737305	656.760315
9715.075532	4747.516667	443.471680	818.942749
9715.075532	4747.516667	442.206055	796.441101
9715.075532	4747.516667	440.940430	707.705505
9715.075532	4747.516667	439.673828	907.702942
9715.075532	4747.516667	438.407227	818.854370
9715.075532	4747.516667	437.140625	984.526855
9715.075532	4747.516667	435.873047	1019.794739
9715.075532	4747.516667	434.605469	830.571716
9715.075532	4747.516667	433.337891	825.621948
9715.075532	4747.516667	432.070313	818.575073
9715.075532	4747.516667	430.801758	707.316528
9715.075532	4747.516667	429.533203	802.178589
9715.075532	4747.516667	428.264648	838.845154
9715.075532	4747.516667	426.996094	747.315796
9715.075532	4747.516667	425.726563	859.744934
9715.075532	4747.516667	424.457031	683.984497
9715.075532	4747.516667	423.186523	844.089050
9715.075532	4747.516667	421.916992	882.022034
9715.075532	4747.516667	420.646484	871.811584
9715.075532	4747.516667	419.375977	703.571045
9715.075532	4747.516667	418.104492	749.000732
9715.075532	4747.516667	416.833008	868.131409
9715.075532	4747.516667	415.561523	759.359314
9715.075532	4747.516667	414.290039	782.206116
9715.075532	4747.516667	413.017578	828.786255
9715.075532	4747.516667	411.746094	777.337158
9715.075532	4747.516667	410.472656	913.235901
9715.075532	4747.516667	409.200195	753.601257
9715.075532	4747.516667	407.926758	697.495300
9715.075532	4747.516667	406.653320	846.533264
9715.075532	4747.516667	405.379883	807.845032
9715.075532	4747.516667	404.105469	719.064148
9715.075532	4747.516667	402.831055	978.748474
9715.075532	4747.516667	401.556641	833.593140
9715.075532	4747.516667	400.282227	843.547974
9715.075532	4747.516667	399.006836	845.205933
9715.075532	4747.516667	397.731445	822.634094
9715.075532	4747.516667	396.456055	761.903503
9715.075532	4747.516667	395.179688	674.963074
9715.075532	4747.516667	393.903320	890.111694
9715.075532	4747.516667	392.626953	806.396667
9715.075532	4747.516667	391.350586	662.654175
9715.075532	4747.516667	390.073242	733.297058
9715.075532	4747.516667	388.795898	642.459106
9715.075532	4747.516667	387.518555	881.139832
9715.075532	4747.516667	386.240234	769.533203
9715.075532	4747.516667	384.961914	921.722961
9715.075532	4747.516667	383.683594	733.721252
9715.075532	4747.516667	382.405273	749.831360
9715.075532	4747.516667	381.125977	763.423767
9715.075532	4747.516667	379.846680	824.112793
9715.075532	4747.516667	378.567383	652.041931
9715.075532	4747.516667	377.287109	743.345642
9715.075532	4747.516667	376.006836	768.565613
9715.075532	4747.516667	374.726563	799.119873
9715.075532	4747.516667	373.446289	712.060303
9715.075532	4747.516667	372.165039	541.132874
9715.075532	4747.516667	370.883789	593.572937
9715.075532	4747.516667	369.602539	696.831360
9715.075532	4747.516667	368.320313	557.654236
9715.075532	4747.516667	367.039063	556.473389
9715.075532	4747.516667	365.755859	497.109009
9715.075532	4747.516667	364.473633	662.713074
9715.075532	4747.516667	363.190430	528.583008
9715.075532	4747.516667	361.907227	609.405823
9715.075532	4747.516667	360.624023	667.610657
9715.075532	4747.516667	359.340820	533.082214
9715.075532	4747.516667	358.056641	708.208069
9715.075532	4747.516667	356.772461	583.821716
9715.075532	4747.516667	355.487305	598.905151
9715.075532	4747.516667	354.202148	575.496277
9715.075532	4747.516667	352.916992	564.966919
9715.075532	4747.516667	351.631836	484.316467
9715.075532	4747.516667	350.346680	566.614014
9715.075532	4747.516667	349.060547	551.064392
9715.075532	4747.516667	347.774414	617.370728
9715.075532	4747.516667	346.487305	398.325958
9715.075532	4747.516667	345.200195	488.056824
9715.075532	4747.516667	343.913086	367.484619
9715.075532	4747.516667	342.625977	364.133698
9715.075532	4747.516667	341.338867	377.329712
9715.075532	4747.516667	340.050781	345.888000
9715.075532	4747.516667	338.762695	256.034668
9715.075532	4747.516667	337.473633	292.992188
9715.075532	4747.516667	336.184570	368.013885
9715.075532	4747.516667	334.895508	193.450058
9715.075532	4747.516667	333.606445	-49.383636
9715.075532	4747.516667	332.317383	226.271286
9715.075532	4747.516667	331.027344	370.395020
9715.075532	4747.516667	329.736328	243.305069
9715.075532	4747.516667	328.446289	234.809921
9715.075532	4747.516667	327.155273	187.346100
9715.075532	4747.516667	325.864258	22.268370
9715.075532	4747.516667	324.573242	73.899117
9715.075532	4747.516667	323.281250	210.301605
9715.075532	4747.516667	321.989258	4.904591
9715.075532	4747.516667	320.697266	159.429947
9715.075532	4747.516667	319.405273	143.145859
9715.075532	4747.516667	318.112305	38.575584
9715.075532	4747.516667	316.819336	14.666999
9715.075532	4747.516667	315.526367	51.694141
9715.075532	4747.516667	314.232422	-34.992020
9715.075532	4747.516667	312.938477	-105.966881
9715.075532	4747.516667	311.644531	95.749565
9715.075532	4747.516667	310.349609	159.894226
9715.075532	4747.516667	309.054688	-27.184111
9715.075532	4747.516667	307.759766	-26.150143
9715.075532	4747.516667	306.464844	19.721380
9715.075532	4747.516667	305.168945	14.256590
9715.075532	4747.516667	303.873047	-115.002861
9715.075532	4747.516667	302.577148	4.202165
9715.075532	4747.516667	301.281250	120.953346
9715.075532	4747.516667	299.984375	33.434845
