#X		#Y		#Wave		#Intensity
9124.599468	4874.830000	1999.946289	67.646370
9124.599468	4874.830000	1998.981445	75.566574
9124.599468	4874.830000	1998.017578	-28.605186
9124.599468	4874.830000	1997.052734	144.868088
9124.599468	4874.830000	1996.088867	-33.489586
9124.599468	4874.830000	1995.124023	8.743885
9124.599468	4874.830000	1994.159180	23.773262
9124.599468	4874.830000	1993.193359	-32.962872
9124.599468	4874.830000	1992.228516	36.643127
9124.599468	4874.830000	1991.262695	32.011948
9124.599468	4874.830000	1990.296875	27.432688
9124.599468	4874.830000	1989.331055	-34.008095
9124.599468	4874.830000	1988.365234	65.429749
9124.599468	4874.830000	1987.398438	18.937683
9124.599468	4874.830000	1986.432617	-84.371254
9124.599468	4874.830000	1985.465820	86.859406
9124.599468	4874.830000	1984.499023	87.491119
9124.599468	4874.830000	1983.532227	53.560528
9124.599468	4874.830000	1982.565430	69.106979
9124.599468	4874.830000	1981.597656	-46.264828
9124.599468	4874.830000	1980.629883	100.296692
9124.599468	4874.830000	1979.662109	86.300682
9124.599468	4874.830000	1978.694336	-11.613810
9124.599468	4874.830000	1977.726563	-87.236687
9124.599468	4874.830000	1976.758789	-17.157858
9124.599468	4874.830000	1975.790039	112.159096
9124.599468	4874.830000	1974.821289	39.120098
9124.599468	4874.830000	1973.852539	-93.071495
9124.599468	4874.830000	1972.883789	33.813320
9124.599468	4874.830000	1971.915039	15.175191
9124.599468	4874.830000	1970.945313	75.474129
9124.599468	4874.830000	1969.975586	-36.790993
9124.599468	4874.830000	1969.005859	-30.677225
9124.599468	4874.830000	1968.036133	-24.540443
9124.599468	4874.830000	1967.066406	75.246414
9124.599468	4874.830000	1966.096680	-19.591675
9124.599468	4874.830000	1965.125977	-3.538298
9124.599468	4874.830000	1964.155273	-41.644436
9124.599468	4874.830000	1963.184570	45.850086
9124.599468	4874.830000	1962.213867	37.329983
9124.599468	4874.830000	1961.242188	75.593796
9124.599468	4874.830000	1960.271484	22.817549
9124.599468	4874.830000	1959.299805	31.584255
9124.599468	4874.830000	1958.328125	77.261841
9124.599468	4874.830000	1957.356445	51.618885
9124.599468	4874.830000	1956.384766	-28.093361
9124.599468	4874.830000	1955.412109	7.784194
9124.599468	4874.830000	1954.439453	65.784744
9124.599468	4874.830000	1953.467773	42.680935
9124.599468	4874.830000	1952.495117	167.020721
9124.599468	4874.830000	1951.521484	121.823051
9124.599468	4874.830000	1950.548828	-36.326572
9124.599468	4874.830000	1949.575195	-51.977497
9124.599468	4874.830000	1948.601563	42.872471
9124.599468	4874.830000	1947.627930	-4.677402
9124.599468	4874.830000	1946.654297	50.880386
9124.599468	4874.830000	1945.680664	-72.703011
9124.599468	4874.830000	1944.706055	90.813568
9124.599468	4874.830000	1943.732422	43.326595
9124.599468	4874.830000	1942.757813	-67.899078
9124.599468	4874.830000	1941.783203	44.056717
9124.599468	4874.830000	1940.807617	-18.082617
9124.599468	4874.830000	1939.833008	22.753942
9124.599468	4874.830000	1938.857422	100.340385
9124.599468	4874.830000	1937.881836	-64.664337
9124.599468	4874.830000	1936.906250	-143.862228
9124.599468	4874.830000	1935.930664	-46.678795
9124.599468	4874.830000	1934.955078	60.268124
9124.599468	4874.830000	1933.978516	-75.208603
9124.599468	4874.830000	1933.001953	-27.038864
9124.599468	4874.830000	1932.025391	21.115801
9124.599468	4874.830000	1931.048828	88.831184
9124.599468	4874.830000	1930.072266	127.165016
9124.599468	4874.830000	1929.094727	45.628719
9124.599468	4874.830000	1928.118164	125.535515
9124.599468	4874.830000	1927.140625	56.258251
9124.599468	4874.830000	1926.163086	-22.771112
9124.599468	4874.830000	1925.184570	93.769684
9124.599468	4874.830000	1924.207031	141.840851
9124.599468	4874.830000	1923.228516	67.726906
9124.599468	4874.830000	1922.250000	-47.888943
9124.599468	4874.830000	1921.271484	12.392672
9124.599468	4874.830000	1920.292969	-78.751785
9124.599468	4874.830000	1919.314453	-47.787682
9124.599468	4874.830000	1918.334961	-65.657845
9124.599468	4874.830000	1917.355469	-37.151924
9124.599468	4874.830000	1916.375977	30.383884
9124.599468	4874.830000	1915.396484	-4.575087
9124.599468	4874.830000	1914.416992	9.261201
9124.599468	4874.830000	1913.436523	164.538818
9124.599468	4874.830000	1912.457031	71.045975
9124.599468	4874.830000	1911.476563	-46.794323
9124.599468	4874.830000	1910.496094	-28.098568
9124.599468	4874.830000	1909.515625	78.317360
9124.599468	4874.830000	1908.534180	-93.072823
9124.599468	4874.830000	1907.552734	23.051439
9124.599468	4874.830000	1906.572266	34.397442
9124.599468	4874.830000	1905.590820	18.947742
9124.599468	4874.830000	1904.608398	30.280764
9124.599468	4874.830000	1903.626953	136.540070
9124.599468	4874.830000	1902.644531	130.800278
9124.599468	4874.830000	1901.663086	39.891472
9124.599468	4874.830000	1900.680664	112.013504
9124.599468	4874.830000	1899.698242	13.833679
9124.599468	4874.830000	1898.714844	83.490280
9124.599468	4874.830000	1897.732422	63.149437
9124.599468	4874.830000	1896.749023	54.965294
9124.599468	4874.830000	1895.765625	80.806381
9124.599468	4874.830000	1894.782227	126.072960
9124.599468	4874.830000	1893.798828	125.152130
9124.599468	4874.830000	1892.814453	107.220490
9124.599468	4874.830000	1891.831055	21.283136
9124.599468	4874.830000	1890.846680	161.205597
9124.599468	4874.830000	1889.862305	24.291515
9124.599468	4874.830000	1888.877930	-44.610558
9124.599468	4874.830000	1887.892578	22.415709
9124.599468	4874.830000	1886.908203	19.041513
9124.599468	4874.830000	1885.922852	64.182396
9124.599468	4874.830000	1884.937500	89.894241
9124.599468	4874.830000	1883.952148	21.008295
9124.599468	4874.830000	1882.965820	-33.311329
9124.599468	4874.830000	1881.980469	50.563931
9124.599468	4874.830000	1880.994141	30.177246
9124.599468	4874.830000	1880.007813	53.410500
9124.599468	4874.830000	1879.021484	71.781693
9124.599468	4874.830000	1878.035156	-28.560534
9124.599468	4874.830000	1877.047852	18.867010
9124.599468	4874.830000	1876.061523	92.905876
9124.599468	4874.830000	1875.074219	111.224174
9124.599468	4874.830000	1874.086914	78.695061
9124.599468	4874.830000	1873.098633	34.069046
9124.599468	4874.830000	1872.111328	-29.905258
9124.599468	4874.830000	1871.123047	106.933121
9124.599468	4874.830000	1870.135742	163.892395
9124.599468	4874.830000	1869.147461	39.446522
9124.599468	4874.830000	1868.158203	-19.678493
9124.599468	4874.830000	1867.169922	-81.206352
9124.599468	4874.830000	1866.180664	16.800707
9124.599468	4874.830000	1865.192383	54.350212
9124.599468	4874.830000	1864.203125	9.730489
9124.599468	4874.830000	1863.213867	-34.880749
9124.599468	4874.830000	1862.223633	-40.841446
9124.599468	4874.830000	1861.234375	20.804241
9124.599468	4874.830000	1860.244141	-14.152490
9124.599468	4874.830000	1859.253906	52.275688
9124.599468	4874.830000	1858.263672	80.056786
9124.599468	4874.830000	1857.273438	105.406380
9124.599468	4874.830000	1856.282227	-91.207329
9124.599468	4874.830000	1855.291992	25.803923
9124.599468	4874.830000	1854.300781	46.300594
9124.599468	4874.830000	1853.309570	76.425827
9124.599468	4874.830000	1852.317383	80.013756
9124.599468	4874.830000	1851.326172	6.466926
9124.599468	4874.830000	1850.333984	-62.241707
9124.599468	4874.830000	1849.342773	1.577786
9124.599468	4874.830000	1848.350586	26.823378
9124.599468	4874.830000	1847.357422	71.317329
9124.599468	4874.830000	1846.365234	-59.990864
9124.599468	4874.830000	1845.372070	116.896835
9124.599468	4874.830000	1844.379883	98.742462
9124.599468	4874.830000	1843.386719	-42.148373
9124.599468	4874.830000	1842.393555	100.925926
9124.599468	4874.830000	1841.399414	65.919060
9124.599468	4874.830000	1840.406250	66.996208
9124.599468	4874.830000	1839.412109	-6.483121
9124.599468	4874.830000	1838.417969	141.252045
9124.599468	4874.830000	1837.423828	74.981499
9124.599468	4874.830000	1836.429688	44.778782
9124.599468	4874.830000	1835.434570	62.637333
9124.599468	4874.830000	1834.440430	10.809832
9124.599468	4874.830000	1833.445313	-28.996878
9124.599468	4874.830000	1832.450195	140.141052
9124.599468	4874.830000	1831.454102	126.720703
9124.599468	4874.830000	1830.458984	77.288277
9124.599468	4874.830000	1829.462891	90.271515
9124.599468	4874.830000	1828.466797	129.639450
9124.599468	4874.830000	1827.470703	101.803734
9124.599468	4874.830000	1826.474609	-5.191640
9124.599468	4874.830000	1825.478516	108.499306
9124.599468	4874.830000	1824.481445	219.740814
9124.599468	4874.830000	1823.484375	122.349602
9124.599468	4874.830000	1822.487305	29.781538
9124.599468	4874.830000	1821.490234	30.708038
9124.599468	4874.830000	1820.493164	12.457512
9124.599468	4874.830000	1819.495117	-17.773077
9124.599468	4874.830000	1818.498047	-21.650980
9124.599468	4874.830000	1817.500000	82.229645
9124.599468	4874.830000	1816.500977	-22.244953
9124.599468	4874.830000	1815.502930	-6.992224
9124.599468	4874.830000	1814.504883	115.952118
9124.599468	4874.830000	1813.505859	52.188797
9124.599468	4874.830000	1812.506836	86.536102
9124.599468	4874.830000	1811.507813	161.528748
9124.599468	4874.830000	1810.508789	37.980000
9124.599468	4874.830000	1809.508789	31.638025
9124.599468	4874.830000	1808.508789	154.390228
9124.599468	4874.830000	1807.508789	107.379478
9124.599468	4874.830000	1806.508789	-92.569733
9124.599468	4874.830000	1805.508789	65.955742
9124.599468	4874.830000	1804.508789	198.136108
9124.599468	4874.830000	1803.507813	31.699957
9124.599468	4874.830000	1802.506836	34.868729
9124.599468	4874.830000	1801.505859	-45.535275
9124.599468	4874.830000	1800.504883	29.246536
9124.599468	4874.830000	1799.502930	27.619246
9124.599468	4874.830000	1798.501953	-28.896391
9124.599468	4874.830000	1797.500000	60.133293
9124.599468	4874.830000	1796.498047	-63.170345
9124.599468	4874.830000	1795.496094	99.749138
9124.599468	4874.830000	1794.493164	-13.991776
9124.599468	4874.830000	1793.491211	-29.953325
9124.599468	4874.830000	1792.488281	113.778313
9124.599468	4874.830000	1791.485352	47.740311
9124.599468	4874.830000	1790.482422	-8.748694
9124.599468	4874.830000	1789.478516	-19.962872
9124.599468	4874.830000	1788.475586	-21.651611
9124.599468	4874.830000	1787.471680	19.515112
9124.599468	4874.830000	1786.467773	8.282502
9124.599468	4874.830000	1785.463867	37.513878
9124.599468	4874.830000	1784.459961	173.822815
9124.599468	4874.830000	1783.455078	153.029572
9124.599468	4874.830000	1782.450195	-48.565453
9124.599468	4874.830000	1781.445313	30.577593
9124.599468	4874.830000	1780.440430	-25.866459
9124.599468	4874.830000	1779.435547	3.299455
9124.599468	4874.830000	1778.429688	27.692699
9124.599468	4874.830000	1777.424805	-2.592978
9124.599468	4874.830000	1776.418945	2.769884
9124.599468	4874.830000	1775.413086	50.889584
9124.599468	4874.830000	1774.406250	-60.166588
9124.599468	4874.830000	1773.400391	75.807465
9124.599468	4874.830000	1772.393555	66.879395
9124.599468	4874.830000	1771.386719	188.520554
9124.599468	4874.830000	1770.379883	-3.202620
9124.599468	4874.830000	1769.373047	68.558304
9124.599468	4874.830000	1768.365234	-2.075696
9124.599468	4874.830000	1767.358398	43.551720
9124.599468	4874.830000	1766.350586	-38.920815
9124.599468	4874.830000	1765.342773	9.054993
9124.599468	4874.830000	1764.334961	-28.344559
9124.599468	4874.830000	1763.326172	-34.921127
9124.599468	4874.830000	1762.318359	-22.539801
9124.599468	4874.830000	1761.309570	-5.430892
9124.599468	4874.830000	1760.300781	4.558642
9124.599468	4874.830000	1759.291016	-16.254467
9124.599468	4874.830000	1758.282227	-22.854660
9124.599468	4874.830000	1757.272461	-36.562374
9124.599468	4874.830000	1756.262695	79.929504
9124.599468	4874.830000	1755.252930	75.663979
9124.599468	4874.830000	1754.243164	12.235561
9124.599468	4874.830000	1753.233398	-48.808109
9124.599468	4874.830000	1752.222656	72.305466
9124.599468	4874.830000	1751.211914	37.276989
9124.599468	4874.830000	1750.201172	77.922401
9124.599468	4874.830000	1749.190430	-9.114958
9124.599468	4874.830000	1748.179688	71.695702
9124.599468	4874.830000	1747.167969	-8.229334
9124.599468	4874.830000	1746.156250	-43.236477
9124.599468	4874.830000	1745.144531	20.981672
9124.599468	4874.830000	1744.132813	-44.732327
9124.599468	4874.830000	1743.121094	33.619602
9124.599468	4874.830000	1742.108398	71.799179
9124.599468	4874.830000	1741.095703	-43.474079
9124.599468	4874.830000	1740.083008	-33.625183
9124.599468	4874.830000	1739.070313	28.126408
9124.599468	4874.830000	1738.057617	-21.031050
9124.599468	4874.830000	1737.043945	-60.741375
9124.599468	4874.830000	1736.030273	5.680311
9124.599468	4874.830000	1735.016602	-17.524754
9124.599468	4874.830000	1734.002930	-36.011578
9124.599468	4874.830000	1732.989258	138.770401
9124.599468	4874.830000	1731.974609	84.903183
9124.599468	4874.830000	1730.959961	-32.560677
9124.599468	4874.830000	1729.945313	-41.628712
9124.599468	4874.830000	1728.930664	78.832886
9124.599468	4874.830000	1727.916016	8.516286
9124.599468	4874.830000	1726.900391	-26.466280
9124.599468	4874.830000	1725.885742	-44.962757
9124.599468	4874.830000	1724.870117	-77.577797
9124.599468	4874.830000	1723.853516	2.750376
9124.599468	4874.830000	1722.837891	-41.632797
9124.599468	4874.830000	1721.822266	-116.579208
9124.599468	4874.830000	1720.805664	-41.006416
9124.599468	4874.830000	1719.789063	-28.945795
9124.599468	4874.830000	1718.772461	70.078018
9124.599468	4874.830000	1717.754883	-91.809105
9124.599468	4874.830000	1716.738281	35.376019
9124.599468	4874.830000	1715.720703	0.408052
9124.599468	4874.830000	1714.703125	66.447784
9124.599468	4874.830000	1713.685547	-20.185661
9124.599468	4874.830000	1712.667969	41.127598
9124.599468	4874.830000	1711.649414	-26.698500
9124.599468	4874.830000	1710.630859	81.522484
9124.599468	4874.830000	1709.612305	105.221237
9124.599468	4874.830000	1708.593750	-2.475272
9124.599468	4874.830000	1707.575195	-11.617317
9124.599468	4874.830000	1706.555664	30.832802
9124.599468	4874.830000	1705.536133	80.296402
9124.599468	4874.830000	1704.516602	26.587225
9124.599468	4874.830000	1703.497070	-34.137241
9124.599468	4874.830000	1702.477539	12.954073
9124.599468	4874.830000	1701.457031	55.335625
9124.599468	4874.830000	1700.437500	-14.742464
9124.599468	4874.830000	1699.416992	60.408188
9124.599468	4874.830000	1698.395508	135.524414
9124.599468	4874.830000	1697.375000	-37.554058
9124.599468	4874.830000	1696.354492	28.182142
9124.599468	4874.830000	1695.333008	-4.403398
9124.599468	4874.830000	1694.311523	9.815507
9124.599468	4874.830000	1693.290039	68.472664
9124.599468	4874.830000	1692.267578	-48.316883
9124.599468	4874.830000	1691.246094	80.474396
9124.599468	4874.830000	1690.223633	3.465488
9124.599468	4874.830000	1689.201172	-66.505493
9124.599468	4874.830000	1688.178711	31.818556
9124.599468	4874.830000	1687.155273	27.286055
9124.599468	4874.830000	1686.132813	-47.333729
9124.599468	4874.830000	1685.109375	-56.529022
9124.599468	4874.830000	1684.085938	-119.436790
9124.599468	4874.830000	1683.062500	37.152454
9124.599468	4874.830000	1682.039063	-65.442421
9124.599468	4874.830000	1681.014648	4.710010
9124.599468	4874.830000	1679.990234	-41.844112
9124.599468	4874.830000	1678.965820	42.267307
9124.599468	4874.830000	1677.941406	-43.938866
9124.599468	4874.830000	1676.916992	30.803986
9124.599468	4874.830000	1675.891602	-69.366440
9124.599468	4874.830000	1674.866211	12.336758
9124.599468	4874.830000	1673.840820	40.396011
9124.599468	4874.830000	1672.815430	17.172182
9124.599468	4874.830000	1671.790039	35.891853
9124.599468	4874.830000	1670.763672	59.258141
9124.599468	4874.830000	1669.737305	24.385828
9124.599468	4874.830000	1668.710938	17.466103
9124.599468	4874.830000	1667.684570	45.467243
9124.599468	4874.830000	1666.658203	5.951036
9124.599468	4874.830000	1665.630859	-28.900654
9124.599468	4874.830000	1664.603516	31.654907
9124.599468	4874.830000	1663.576172	-7.848330
9124.599468	4874.830000	1662.548828	-7.800478
9124.599468	4874.830000	1661.520508	-3.106843
9124.599468	4874.830000	1660.493164	-84.441376
9124.599468	4874.830000	1659.464844	73.676804
9124.599468	4874.830000	1658.436523	48.127876
9124.599468	4874.830000	1657.408203	-91.272690
9124.599468	4874.830000	1656.378906	43.510944
9124.599468	4874.830000	1655.350586	22.617359
9124.599468	4874.830000	1654.321289	15.660208
9124.599468	4874.830000	1653.291992	62.104668
9124.599468	4874.830000	1652.261719	-47.006832
9124.599468	4874.830000	1651.232422	15.671095
9124.599468	4874.830000	1650.202148	29.589487
9124.599468	4874.830000	1649.171875	41.179111
9124.599468	4874.830000	1648.141602	71.317429
9124.599468	4874.830000	1647.111328	89.845039
9124.599468	4874.830000	1646.080078	59.667881
9124.599468	4874.830000	1645.049805	50.364532
9124.599468	4874.830000	1644.018555	73.509293
9124.599468	4874.830000	1642.987305	59.564190
9124.599468	4874.830000	1641.955078	22.450541
9124.599468	4874.830000	1640.923828	182.247421
9124.599468	4874.830000	1639.891602	131.221985
9124.599468	4874.830000	1638.859375	-3.146868
9124.599468	4874.830000	1637.827148	75.522224
9124.599468	4874.830000	1636.794922	91.662148
9124.599468	4874.830000	1635.761719	174.902954
9124.599468	4874.830000	1634.729492	56.813240
9124.599468	4874.830000	1633.696289	54.429928
9124.599468	4874.830000	1632.662109	107.551369
9124.599468	4874.830000	1631.628906	160.650482
9124.599468	4874.830000	1630.594727	125.870140
9124.599468	4874.830000	1629.561523	93.413231
9124.599468	4874.830000	1628.527344	130.296387
9124.599468	4874.830000	1627.493164	291.935059
9124.599468	4874.830000	1626.458008	9.955100
9124.599468	4874.830000	1625.423828	127.663940
9124.599468	4874.830000	1624.388672	116.003731
9124.599468	4874.830000	1623.353516	238.256378
9124.599468	4874.830000	1622.318359	134.239029
9124.599468	4874.830000	1621.282227	78.723564
9124.599468	4874.830000	1620.247070	184.751556
9124.599468	4874.830000	1619.210938	150.005844
9124.599468	4874.830000	1618.174805	168.321838
9124.599468	4874.830000	1617.137695	184.320236
9124.599468	4874.830000	1616.101563	128.835617
9124.599468	4874.830000	1615.064453	110.251984
9124.599468	4874.830000	1614.027344	144.682816
9124.599468	4874.830000	1612.990234	356.530701
9124.599468	4874.830000	1611.953125	165.115051
9124.599468	4874.830000	1610.916016	222.541840
9124.599468	4874.830000	1609.877930	332.910553
9124.599468	4874.830000	1608.839844	300.476990
9124.599468	4874.830000	1607.801758	127.626465
9124.599468	4874.830000	1606.763672	173.496201
9124.599468	4874.830000	1605.724609	244.657364
9124.599468	4874.830000	1604.685547	223.758835
9124.599468	4874.830000	1603.646484	230.469604
9124.599468	4874.830000	1602.607422	209.577530
9124.599468	4874.830000	1601.568359	239.278000
9124.599468	4874.830000	1600.528320	266.664368
9124.599468	4874.830000	1599.489258	300.934753
9124.599468	4874.830000	1598.449219	325.996124
9124.599468	4874.830000	1597.408203	300.496674
9124.599468	4874.830000	1596.368164	297.978546
9124.599468	4874.830000	1595.327148	300.051025
9124.599468	4874.830000	1594.287109	343.455048
9124.599468	4874.830000	1593.246094	251.386292
9124.599468	4874.830000	1592.204102	191.484726
9124.599468	4874.830000	1591.163086	184.389633
9124.599468	4874.830000	1590.121094	204.827042
9124.599468	4874.830000	1589.079102	234.430954
9124.599468	4874.830000	1588.037109	204.389160
9124.599468	4874.830000	1586.995117	254.616501
9124.599468	4874.830000	1585.953125	362.138885
9124.599468	4874.830000	1584.910156	254.148087
9124.599468	4874.830000	1583.867188	302.038147
9124.599468	4874.830000	1582.824219	345.325165
9124.599468	4874.830000	1581.781250	235.105942
9124.599468	4874.830000	1580.737305	253.190109
9124.599468	4874.830000	1579.693359	335.385284
9124.599468	4874.830000	1578.649414	227.516479
9124.599468	4874.830000	1577.605469	243.299042
9124.599468	4874.830000	1576.561523	220.167374
9124.599468	4874.830000	1575.516602	297.721893
9124.599468	4874.830000	1574.472656	151.049011
9124.599468	4874.830000	1573.427734	221.722824
9124.599468	4874.830000	1572.381836	194.032471
9124.599468	4874.830000	1571.336914	207.508621
9124.599468	4874.830000	1570.291016	218.691025
9124.599468	4874.830000	1569.246094	163.590805
9124.599468	4874.830000	1568.200195	218.191574
9124.599468	4874.830000	1567.153320	211.084671
9124.599468	4874.830000	1566.107422	174.287842
9124.599468	4874.830000	1565.060547	130.651871
9124.599468	4874.830000	1564.013672	87.032692
9124.599468	4874.830000	1562.966797	79.954781
9124.599468	4874.830000	1561.919922	269.161591
9124.599468	4874.830000	1560.872070	202.718674
9124.599468	4874.830000	1559.825195	243.531723
9124.599468	4874.830000	1558.777344	167.995697
9124.599468	4874.830000	1557.729492	222.480698
9124.599468	4874.830000	1556.680664	229.060089
9124.599468	4874.830000	1555.632813	155.850510
9124.599468	4874.830000	1554.583984	148.765213
9124.599468	4874.830000	1553.535156	102.943619
9124.599468	4874.830000	1552.486328	134.602814
9124.599468	4874.830000	1551.436523	280.141602
9124.599468	4874.830000	1550.387695	191.050629
9124.599468	4874.830000	1549.337891	204.457047
9124.599468	4874.830000	1548.288086	220.135025
9124.599468	4874.830000	1547.238281	210.770401
9124.599468	4874.830000	1546.187500	278.779327
9124.599468	4874.830000	1545.136719	185.224533
9124.599468	4874.830000	1544.086914	182.697815
9124.599468	4874.830000	1543.035156	136.958237
9124.599468	4874.830000	1541.984375	293.610352
9124.599468	4874.830000	1540.933594	193.308380
9124.599468	4874.830000	1539.881836	106.683075
9124.599468	4874.830000	1538.830078	226.889435
9124.599468	4874.830000	1537.778320	176.645782
9124.599468	4874.830000	1536.725586	253.630997
9124.599468	4874.830000	1535.673828	60.321762
9124.599468	4874.830000	1534.621094	125.948051
9124.599468	4874.830000	1533.568359	121.171951
9124.599468	4874.830000	1532.515625	202.651245
9124.599468	4874.830000	1531.461914	349.909546
9124.599468	4874.830000	1530.409180	145.432266
9124.599468	4874.830000	1529.355469	186.028809
9124.599468	4874.830000	1528.301758	185.786758
9124.599468	4874.830000	1527.247070	110.715080
9124.599468	4874.830000	1526.193359	289.593170
9124.599468	4874.830000	1525.138672	357.334381
9124.599468	4874.830000	1524.083984	191.629623
9124.599468	4874.830000	1523.029297	191.393478
9124.599468	4874.830000	1521.974609	157.179504
9124.599468	4874.830000	1520.918945	156.952713
9124.599468	4874.830000	1519.863281	122.761658
9124.599468	4874.830000	1518.807617	20.666691
9124.599468	4874.830000	1517.751953	185.711090
9124.599468	4874.830000	1516.696289	140.225494
9124.599468	4874.830000	1515.639648	183.001633
9124.599468	4874.830000	1514.583008	67.410011
9124.599468	4874.830000	1513.526367	173.517120
9124.599468	4874.830000	1512.469727	-9.860571
9124.599468	4874.830000	1511.412109	152.744446
9124.599468	4874.830000	1510.355469	64.385406
9124.599468	4874.830000	1509.297852	-28.457582
9124.599468	4874.830000	1508.240234	75.315735
9124.599468	4874.830000	1507.181641	59.319374
9124.599468	4874.830000	1506.124023	52.368492
9124.599468	4874.830000	1505.065430	0.258663
9124.599468	4874.830000	1504.006836	90.408005
9124.599468	4874.830000	1502.948242	58.632740
9124.599468	4874.830000	1501.888672	17.844753
9124.599468	4874.830000	1500.830078	56.050331
9124.599468	4874.830000	1499.770508	112.289963
9124.599468	4874.830000	1498.710938	67.014702
9124.599468	4874.830000	1497.650391	60.094688
9124.599468	4874.830000	1496.590820	68.964653
9124.599468	4874.830000	1495.530273	-12.331717
9124.599468	4874.830000	1494.469727	43.882206
9124.599468	4874.830000	1493.409180	82.051559
9124.599468	4874.830000	1492.348633	102.187645
9124.599468	4874.830000	1491.287109	2.944324
9124.599468	4874.830000	1490.225586	88.399323
9124.599468	4874.830000	1489.164063	7.217756
9124.599468	4874.830000	1488.102539	16.112579
9124.599468	4874.830000	1487.041016	-22.253540
9124.599468	4874.830000	1485.978516	47.403168
9124.599468	4874.830000	1484.916016	-26.922352
9124.599468	4874.830000	1483.853516	60.692574
9124.599468	4874.830000	1482.791016	-78.826202
9124.599468	4874.830000	1481.727539	-13.685855
9124.599468	4874.830000	1480.664063	42.433243
9124.599468	4874.830000	1479.600586	96.285553
9124.599468	4874.830000	1478.537109	33.304745
9124.599468	4874.830000	1477.473633	55.723545
9124.599468	4874.830000	1476.409180	57.931004
9124.599468	4874.830000	1475.344727	-94.810410
9124.599468	4874.830000	1474.280273	-103.852928
9124.599468	4874.830000	1473.215820	-7.353449
9124.599468	4874.830000	1472.151367	-76.865379
9124.599468	4874.830000	1471.085938	84.589211
9124.599468	4874.830000	1470.020508	46.549141
9124.599468	4874.830000	1468.955078	-132.836105
9124.599468	4874.830000	1467.888672	-54.397167
9124.599468	4874.830000	1466.823242	77.785011
9124.599468	4874.830000	1465.756836	59.992691
9124.599468	4874.830000	1464.690430	127.223885
9124.599468	4874.830000	1463.624023	19.878807
9124.599468	4874.830000	1462.556641	35.387344
9124.599468	4874.830000	1461.490234	80.145302
9124.599468	4874.830000	1460.422852	84.787292
9124.599468	4874.830000	1459.355469	82.558617
9124.599468	4874.830000	1458.287109	147.070343
9124.599468	4874.830000	1457.219727	122.899841
9124.599468	4874.830000	1456.151367	109.463547
9124.599468	4874.830000	1455.083008	201.245728
9124.599468	4874.830000	1454.014648	102.676376
9124.599468	4874.830000	1452.945313	149.808731
9124.599468	4874.830000	1451.876953	-76.646568
9124.599468	4874.830000	1450.807617	116.977173
9124.599468	4874.830000	1449.738281	-36.978848
9124.599468	4874.830000	1448.668945	65.621658
9124.599468	4874.830000	1447.598633	-27.441727
9124.599468	4874.830000	1446.528320	37.119919
9124.599468	4874.830000	1445.458008	1.255386
9124.599468	4874.830000	1444.387695	-69.117538
9124.599468	4874.830000	1443.317383	28.676996
9124.599468	4874.830000	1442.246094	97.634422
9124.599468	4874.830000	1441.174805	57.490646
9124.599468	4874.830000	1440.103516	139.835815
9124.599468	4874.830000	1439.032227	-1.468926
9124.599468	4874.830000	1437.960938	-18.152763
9124.599468	4874.830000	1436.888672	-38.722660
9124.599468	4874.830000	1435.816406	-150.720596
9124.599468	4874.830000	1434.744141	23.761467
9124.599468	4874.830000	1433.670898	78.837662
9124.599468	4874.830000	1432.598633	-78.338768
9124.599468	4874.830000	1431.525391	-59.092072
9124.599468	4874.830000	1430.452148	-47.482563
9124.599468	4874.830000	1429.378906	52.260563
9124.599468	4874.830000	1428.304688	80.201447
9124.599468	4874.830000	1427.231445	12.288650
9124.599468	4874.830000	1426.157227	8.038832
9124.599468	4874.830000	1425.083008	-80.090309
9124.599468	4874.830000	1424.007813	-18.609299
9124.599468	4874.830000	1422.933594	33.526047
9124.599468	4874.830000	1421.858398	-68.052795
9124.599468	4874.830000	1420.783203	-83.490944
9124.599468	4874.830000	1419.708008	-19.516130
9124.599468	4874.830000	1418.631836	-66.871758
9124.599468	4874.830000	1417.555664	20.385904
9124.599468	4874.830000	1416.479492	-23.688656
9124.599468	4874.830000	1415.403320	-46.799240
9124.599468	4874.830000	1414.327148	-31.601805
9124.599468	4874.830000	1413.250000	-68.878777
9124.599468	4874.830000	1412.173828	28.409231
9124.599468	4874.830000	1411.096680	45.355030
9124.599468	4874.830000	1410.018555	-166.935104
9124.599468	4874.830000	1408.941406	44.326946
9124.599468	4874.830000	1407.863281	0.046786
9124.599468	4874.830000	1406.785156	11.409012
9124.599468	4874.830000	1405.707031	-0.579734
9124.599468	4874.830000	1404.628906	-144.628876
9124.599468	4874.830000	1403.549805	22.848862
9124.599468	4874.830000	1402.470703	29.445271
9124.599468	4874.830000	1401.391602	-46.728767
9124.599468	4874.830000	1400.312500	-26.719841
9124.599468	4874.830000	1399.233398	-42.879467
9124.599468	4874.830000	1398.153320	-66.524368
9124.599468	4874.830000	1397.073242	-72.746902
9124.599468	4874.830000	1395.993164	-51.530167
9124.599468	4874.830000	1394.913086	-62.646839
9124.599468	4874.830000	1393.832031	74.448944
9124.599468	4874.830000	1392.750977	42.565678
9124.599468	4874.830000	1391.669922	41.323757
9124.599468	4874.830000	1390.588867	-10.599773
9124.599468	4874.830000	1389.506836	33.558750
9124.599468	4874.830000	1388.425781	27.287012
9124.599468	4874.830000	1387.343750	-0.212147
9124.599468	4874.830000	1386.261719	29.562086
9124.599468	4874.830000	1385.178711	72.062622
9124.599468	4874.830000	1384.096680	-13.854767
9124.599468	4874.830000	1383.013672	27.783581
9124.599468	4874.830000	1381.930664	5.852706
9124.599468	4874.830000	1380.846680	27.363665
9124.599468	4874.830000	1379.763672	-33.062969
9124.599468	4874.830000	1378.679688	-44.427326
9124.599468	4874.830000	1377.595703	-37.168129
9124.599468	4874.830000	1376.511719	-58.205513
9124.599468	4874.830000	1375.427734	15.816012
9124.599468	4874.830000	1374.342773	-23.102930
9124.599468	4874.830000	1373.257813	53.237804
9124.599468	4874.830000	1372.172852	3.957623
9124.599468	4874.830000	1371.087891	6.743324
9124.599468	4874.830000	1370.001953	34.242290
9124.599468	4874.830000	1368.916992	122.280205
9124.599468	4874.830000	1367.831055	22.002642
9124.599468	4874.830000	1366.744141	50.194572
9124.599468	4874.830000	1365.658203	-154.430939
9124.599468	4874.830000	1364.571289	28.047153
9124.599468	4874.830000	1363.484375	14.452656
9124.599468	4874.830000	1362.397461	16.814161
9124.599468	4874.830000	1361.310547	-6.250882
9124.599468	4874.830000	1360.222656	-51.907745
9124.599468	4874.830000	1359.135742	118.359489
9124.599468	4874.830000	1358.047852	61.583054
9124.599468	4874.830000	1356.958984	44.333801
9124.599468	4874.830000	1355.871094	56.611221
9124.599468	4874.830000	1354.782227	94.653183
9124.599468	4874.830000	1353.693359	98.482620
9124.599468	4874.830000	1352.604492	92.570747
9124.599468	4874.830000	1351.515625	51.800381
9124.599468	4874.830000	1350.425781	127.458733
9124.599468	4874.830000	1349.335938	138.236176
9124.599468	4874.830000	1348.246094	86.503090
9124.599468	4874.830000	1347.156250	113.709183
9124.599468	4874.830000	1346.066406	190.399384
9124.599468	4874.830000	1344.975586	228.973755
9124.599468	4874.830000	1343.884766	212.910202
9124.599468	4874.830000	1342.793945	168.473389
9124.599468	4874.830000	1341.702148	101.524811
9124.599468	4874.830000	1340.611328	171.925476
9124.599468	4874.830000	1339.519531	222.199158
9124.599468	4874.830000	1338.427734	107.280540
9124.599468	4874.830000	1337.334961	133.278946
9124.599468	4874.830000	1336.243164	166.050644
9124.599468	4874.830000	1335.150391	73.150291
9124.599468	4874.830000	1334.057617	127.687286
9124.599468	4874.830000	1332.964844	73.701172
9124.599468	4874.830000	1331.871094	76.332596
9124.599468	4874.830000	1330.778320	65.699203
9124.599468	4874.830000	1329.684570	30.917255
9124.599468	4874.830000	1328.590820	109.107811
9124.599468	4874.830000	1327.496094	107.080269
9124.599468	4874.830000	1326.402344	82.960960
9124.599468	4874.830000	1325.307617	165.680679
9124.599468	4874.830000	1324.212891	81.401726
9124.599468	4874.830000	1323.117188	98.101227
9124.599468	4874.830000	1322.022461	51.197193
9124.599468	4874.830000	1320.926758	29.599993
9124.599468	4874.830000	1319.831055	119.301941
9124.599468	4874.830000	1318.735352	97.713425
9124.599468	4874.830000	1317.638672	-28.907345
9124.599468	4874.830000	1316.542969	13.944912
9124.599468	4874.830000	1315.446289	22.325697
9124.599468	4874.830000	1314.349609	-46.605743
9124.599468	4874.830000	1313.251953	5.505025
9124.599468	4874.830000	1312.155273	52.019157
9124.599468	4874.830000	1311.057617	110.639214
9124.599468	4874.830000	1309.959961	93.835419
9124.599468	4874.830000	1308.862305	69.142670
9124.599468	4874.830000	1307.763672	0.921068
9124.599468	4874.830000	1306.665039	111.017036
9124.599468	4874.830000	1305.566406	19.363655
9124.599468	4874.830000	1304.467773	29.904995
9124.599468	4874.830000	1303.369141	159.772873
9124.599468	4874.830000	1302.269531	34.287144
9124.599468	4874.830000	1301.169922	27.412102
9124.599468	4874.830000	1300.070313	60.058853
9124.599468	4874.830000	1298.970703	57.879955
9124.599468	4874.830000	1297.870117	144.604736
9124.599468	4874.830000	1296.769531	111.852234
9124.599468	4874.830000	1295.668945	44.697105
9124.599468	4874.830000	1294.568359	-17.149973
9124.599468	4874.830000	1293.466797	44.523762
9124.599468	4874.830000	1292.366211	72.060272
9124.599468	4874.830000	1291.264648	28.473019
9124.599468	4874.830000	1290.162109	23.301554
9124.599468	4874.830000	1289.060547	75.994705
9124.599468	4874.830000	1287.958008	69.272301
9124.599468	4874.830000	1286.855469	62.899250
9124.599468	4874.830000	1285.752930	42.698277
9124.599468	4874.830000	1284.650391	124.740631
9124.599468	4874.830000	1283.546875	58.785305
9124.599468	4874.830000	1282.444336	115.486084
9124.599468	4874.830000	1281.339844	51.854427
9124.599468	4874.830000	1280.236328	79.688850
9124.599468	4874.830000	1279.132813	3.613842
9124.599468	4874.830000	1278.028320	34.066898
9124.599468	4874.830000	1276.923828	26.178078
9124.599468	4874.830000	1275.819336	-24.449635
9124.599468	4874.830000	1274.713867	-12.378949
9124.599468	4874.830000	1273.608398	-24.669296
9124.599468	4874.830000	1272.503906	6.077619
9124.599468	4874.830000	1271.397461	59.634502
9124.599468	4874.830000	1270.291992	-13.787315
9124.599468	4874.830000	1269.185547	62.571129
9124.599468	4874.830000	1268.080078	12.861895
9124.599468	4874.830000	1266.972656	107.314575
9124.599468	4874.830000	1265.866211	-62.629620
9124.599468	4874.830000	1264.759766	-1.522378
9124.599468	4874.830000	1263.652344	79.032181
9124.599468	4874.830000	1262.544922	28.172766
9124.599468	4874.830000	1261.436523	-4.081200
9124.599468	4874.830000	1260.329102	10.805016
9124.599468	4874.830000	1259.220703	11.832726
9124.599468	4874.830000	1258.112305	-15.330836
9124.599468	4874.830000	1257.003906	-33.235287
9124.599468	4874.830000	1255.895508	-25.252506
9124.599468	4874.830000	1254.786133	-54.022446
9124.599468	4874.830000	1253.676758	-56.274391
9124.599468	4874.830000	1252.567383	-32.726910
9124.599468	4874.830000	1251.458008	-82.528984
9124.599468	4874.830000	1250.347656	-42.407448
9124.599468	4874.830000	1249.237305	-113.232979
9124.599468	4874.830000	1248.126953	-26.338652
9124.599468	4874.830000	1247.016602	46.368248
9124.599468	4874.830000	1245.905273	45.654819
9124.599468	4874.830000	1244.793945	-15.611626
9124.599468	4874.830000	1243.682617	15.329839
9124.599468	4874.830000	1242.571289	-6.406350
9124.599468	4874.830000	1241.459961	83.342339
9124.599468	4874.830000	1240.347656	70.829376
9124.599468	4874.830000	1239.235352	-5.924897
9124.599468	4874.830000	1238.123047	45.930042
9124.599468	4874.830000	1237.009766	32.981663
9124.599468	4874.830000	1235.897461	52.535542
9124.599468	4874.830000	1234.784180	108.512299
9124.599468	4874.830000	1233.670898	-7.914189
9124.599468	4874.830000	1232.556641	33.899971
9124.599468	4874.830000	1231.443359	143.633820
9124.599468	4874.830000	1230.329102	-37.502163
9124.599468	4874.830000	1229.214844	-28.888582
9124.599468	4874.830000	1228.099609	27.394123
9124.599468	4874.830000	1226.985352	139.550568
9124.599468	4874.830000	1225.870117	126.369164
9124.599468	4874.830000	1224.754883	13.183637
9124.599468	4874.830000	1223.639648	64.332283
9124.599468	4874.830000	1222.523438	-1.445473
9124.599468	4874.830000	1221.408203	94.009491
9124.599468	4874.830000	1220.291992	109.828453
9124.599468	4874.830000	1219.174805	35.120968
9124.599468	4874.830000	1218.058594	74.198463
9124.599468	4874.830000	1216.941406	39.120964
9124.599468	4874.830000	1215.824219	111.193794
9124.599468	4874.830000	1214.707031	27.781130
9124.599468	4874.830000	1213.589844	152.651703
9124.599468	4874.830000	1212.471680	67.086731
9124.599468	4874.830000	1211.353516	62.509689
9124.599468	4874.830000	1210.235352	24.902672
9124.599468	4874.830000	1209.117188	43.916233
9124.599468	4874.830000	1207.998047	-64.571205
9124.599468	4874.830000	1206.878906	45.873070
9124.599468	4874.830000	1205.759766	48.307331
9124.599468	4874.830000	1204.640625	-41.999466
9124.599468	4874.830000	1203.520508	-9.609785
9124.599468	4874.830000	1202.401367	-36.848629
9124.599468	4874.830000	1201.281250	3.241906
9124.599468	4874.830000	1200.160156	-15.017683
9124.599468	4874.830000	1199.040039	10.461628
9124.599468	4874.830000	1197.918945	-36.199619
9124.599468	4874.830000	1196.797852	27.174631
9124.599468	4874.830000	1195.676758	103.052315
9124.599468	4874.830000	1194.555664	-42.938229
9124.599468	4874.830000	1193.433594	30.929152
9124.599468	4874.830000	1192.311523	-32.075760
9124.599468	4874.830000	1191.189453	-23.798018
9124.599468	4874.830000	1190.066406	-25.772440
9124.599468	4874.830000	1188.944336	-39.064888
9124.599468	4874.830000	1187.821289	7.237020
9124.599468	4874.830000	1186.698242	72.361786
9124.599468	4874.830000	1185.574219	-23.527393
9124.599468	4874.830000	1184.451172	21.249914
9124.599468	4874.830000	1183.327148	-48.403141
9124.599468	4874.830000	1182.203125	-36.133327
9124.599468	4874.830000	1181.078125	-12.776695
9124.599468	4874.830000	1179.954102	-27.312277
9124.599468	4874.830000	1178.829102	-11.329070
9124.599468	4874.830000	1177.704102	-16.702869
9124.599468	4874.830000	1176.579102	-85.358566
9124.599468	4874.830000	1175.453125	-126.915382
9124.599468	4874.830000	1174.327148	-140.063339
9124.599468	4874.830000	1173.201172	-85.942177
9124.599468	4874.830000	1172.075195	19.532497
9124.599468	4874.830000	1170.949219	-36.775631
9124.599468	4874.830000	1169.822266	-66.709892
9124.599468	4874.830000	1168.695313	-40.806282
9124.599468	4874.830000	1167.568359	-20.718191
9124.599468	4874.830000	1166.440430	-67.034065
9124.599468	4874.830000	1165.313477	-41.947891
9124.599468	4874.830000	1164.185547	-96.924286
9124.599468	4874.830000	1163.057617	17.364258
9124.599468	4874.830000	1161.928711	-51.520035
9124.599468	4874.830000	1160.800781	-46.063427
9124.599468	4874.830000	1159.671875	13.249232
9124.599468	4874.830000	1158.541992	-90.620468
9124.599468	4874.830000	1157.413086	-50.953972
9124.599468	4874.830000	1156.283203	-12.667509
9124.599468	4874.830000	1155.154297	-9.061824
9124.599468	4874.830000	1154.023438	22.500643
9124.599468	4874.830000	1152.893555	61.572346
9124.599468	4874.830000	1151.763672	3.555364
9124.599468	4874.830000	1150.632813	23.858868
9124.599468	4874.830000	1149.501953	98.517609
9124.599468	4874.830000	1148.370117	119.612404
9124.599468	4874.830000	1147.239258	94.265312
9124.599468	4874.830000	1146.107422	77.404388
9124.599468	4874.830000	1144.975586	165.106873
9124.599468	4874.830000	1143.843750	127.230347
9124.599468	4874.830000	1142.710938	116.369530
9124.599468	4874.830000	1141.578125	52.095547
9124.599468	4874.830000	1140.445313	50.259144
9124.599468	4874.830000	1139.312500	-46.859734
9124.599468	4874.830000	1138.178711	54.279457
9124.599468	4874.830000	1137.045898	-18.361650
9124.599468	4874.830000	1135.912109	-21.515850
9124.599468	4874.830000	1134.777344	127.033096
9124.599468	4874.830000	1133.643555	61.195770
9124.599468	4874.830000	1132.508789	-39.882664
9124.599468	4874.830000	1131.374023	24.722162
9124.599468	4874.830000	1130.239258	83.723053
9124.599468	4874.830000	1129.104492	-69.010681
9124.599468	4874.830000	1127.968750	-9.747085
9124.599468	4874.830000	1126.833008	20.960438
9124.599468	4874.830000	1125.697266	52.829082
9124.599468	4874.830000	1124.560547	34.593517
9124.599468	4874.830000	1123.424805	63.786369
9124.599468	4874.830000	1122.288086	-12.126613
9124.599468	4874.830000	1121.151367	-34.353153
9124.599468	4874.830000	1120.013672	7.044048
9124.599468	4874.830000	1118.876953	89.378876
9124.599468	4874.830000	1117.739258	8.140759
9124.599468	4874.830000	1116.601563	40.946438
9124.599468	4874.830000	1115.462891	65.288635
9124.599468	4874.830000	1114.324219	43.405434
9124.599468	4874.830000	1113.186523	39.574703
9124.599468	4874.830000	1112.046875	34.601192
9124.599468	4874.830000	1110.908203	-5.603692
9124.599468	4874.830000	1109.769531	139.175919
9124.599468	4874.830000	1108.629883	78.642975
9124.599468	4874.830000	1107.490234	65.542374
9124.599468	4874.830000	1106.349609	3.806791
9124.599468	4874.830000	1105.209961	-0.932021
9124.599468	4874.830000	1104.069336	-46.888721
9124.599468	4874.830000	1102.928711	70.044395
9124.599468	4874.830000	1101.787109	32.945999
9124.599468	4874.830000	1100.646484	-11.372956
9124.599468	4874.830000	1099.504883	30.033512
9124.599468	4874.830000	1098.363281	-57.274734
9124.599468	4874.830000	1097.221680	-8.289466
9124.599468	4874.830000	1096.079102	-13.150029
9124.599468	4874.830000	1094.936523	-58.838066
9124.599468	4874.830000	1093.793945	94.881706
9124.599468	4874.830000	1092.651367	4.208680
9124.599468	4874.830000	1091.507813	45.829929
9124.599468	4874.830000	1090.364258	26.478899
9124.599468	4874.830000	1089.220703	34.149422
9124.599468	4874.830000	1088.077148	16.256960
9124.599468	4874.830000	1086.933594	-70.437325
9124.599468	4874.830000	1085.789063	26.041485
9124.599468	4874.830000	1084.644531	45.878010
9124.599468	4874.830000	1083.499023	-52.485065
9124.599468	4874.830000	1082.354492	-1.797554
9124.599468	4874.830000	1081.208984	91.762253
9124.599468	4874.830000	1080.063477	-8.420572
9124.599468	4874.830000	1078.917969	76.827492
9124.599468	4874.830000	1077.771484	-13.005700
9124.599468	4874.830000	1076.625977	31.909145
9124.599468	4874.830000	1075.479492	50.219658
9124.599468	4874.830000	1074.332031	-37.383064
9124.599468	4874.830000	1073.185547	-14.229857
9124.599468	4874.830000	1072.038086	14.036119
9124.599468	4874.830000	1070.890625	-11.689299
9124.599468	4874.830000	1069.743164	49.890465
9124.599468	4874.830000	1068.594727	34.194885
9124.599468	4874.830000	1067.447266	40.713455
9124.599468	4874.830000	1066.298828	77.051788
9124.599468	4874.830000	1065.149414	41.173447
9124.599468	4874.830000	1064.000977	62.667061
9124.599468	4874.830000	1062.851563	59.649704
9124.599468	4874.830000	1061.702148	91.797752
9124.599468	4874.830000	1060.552734	5.074281
9124.599468	4874.830000	1059.402344	56.354576
9124.599468	4874.830000	1058.252930	14.947256
9124.599468	4874.830000	1057.102539	-69.655617
9124.599468	4874.830000	1055.951172	63.192875
9124.599468	4874.830000	1054.800781	17.300388
9124.599468	4874.830000	1053.649414	-18.573933
9124.599468	4874.830000	1052.498047	68.696251
9124.599468	4874.830000	1051.346680	71.601379
9124.599468	4874.830000	1050.194336	3.954220
9124.599468	4874.830000	1049.042969	-2.432910
9124.599468	4874.830000	1047.890625	-17.468122
9124.599468	4874.830000	1046.738281	158.408539
9124.599468	4874.830000	1045.584961	107.459770
9124.599468	4874.830000	1044.431641	24.714790
9124.599468	4874.830000	1043.278320	41.207970
9124.599468	4874.830000	1042.125000	-36.087582
9124.599468	4874.830000	1040.971680	10.109108
9124.599468	4874.830000	1039.817383	83.737740
9124.599468	4874.830000	1038.663086	51.260635
9124.599468	4874.830000	1037.508789	86.801537
9124.599468	4874.830000	1036.353516	149.933685
9124.599468	4874.830000	1035.198242	43.410931
9124.599468	4874.830000	1034.042969	84.123360
9124.599468	4874.830000	1032.887695	50.823627
9124.599468	4874.830000	1031.732422	47.093254
9124.599468	4874.830000	1030.576172	8.943214
9124.599468	4874.830000	1029.419922	5.187418
9124.599468	4874.830000	1028.263672	33.060455
9124.599468	4874.830000	1027.106445	-6.333685
9124.599468	4874.830000	1025.949219	225.577225
9124.599468	4874.830000	1024.792969	114.977707
9124.599468	4874.830000	1023.634766	81.923927
9124.599468	4874.830000	1022.477539	-56.797794
9124.599468	4874.830000	1021.319336	-49.223354
9124.599468	4874.830000	1020.161133	13.272943
9124.599468	4874.830000	1019.002930	37.135910
9124.599468	4874.830000	1017.843750	-60.624729
9124.599468	4874.830000	1016.684570	23.694143
9124.599468	4874.830000	1015.525391	-52.999290
9124.599468	4874.830000	1014.366211	-125.628387
9124.599468	4874.830000	1013.207031	35.986275
9124.599468	4874.830000	1012.046875	107.057549
9124.599468	4874.830000	1010.886719	-19.735859
9124.599468	4874.830000	1009.726563	12.971769
9124.599468	4874.830000	1008.565430	47.196247
9124.599468	4874.830000	1007.404297	-61.069733
9124.599468	4874.830000	1006.243164	26.873037
9124.599468	4874.830000	1005.082031	86.887825
9124.599468	4874.830000	1003.920898	-38.517559
9124.599468	4874.830000	1002.758789	-83.774590
9124.599468	4874.830000	1001.596680	61.143639
9124.599468	4874.830000	1000.433594	97.209702
9124.599468	4874.830000	999.271484	-17.710554
9124.599468	4874.830000	998.108398	68.367592
9124.599468	4874.830000	996.945313	91.581413
9124.599468	4874.830000	995.782227	85.676979
9124.599468	4874.830000	994.618164	177.066345
9124.599468	4874.830000	993.454102	99.508575
9124.599468	4874.830000	992.290039	144.247345
9124.599468	4874.830000	991.125977	253.184509
9124.599468	4874.830000	989.960938	41.804344
9124.599468	4874.830000	988.796875	119.076012
9124.599468	4874.830000	987.630859	-40.928978
9124.599468	4874.830000	986.465820	18.790628
9124.599468	4874.830000	985.300781	8.067745
9124.599468	4874.830000	984.134766	-24.177320
9124.599468	4874.830000	982.968750	38.132195
9124.599468	4874.830000	981.801758	3.900233
9124.599468	4874.830000	980.635742	32.274242
9124.599468	4874.830000	979.468750	11.878264
9124.599468	4874.830000	978.301758	-50.605453
9124.599468	4874.830000	977.133789	15.821259
9124.599468	4874.830000	975.966797	8.555880
9124.599468	4874.830000	974.798828	19.315687
9124.599468	4874.830000	973.630859	25.923084
9124.599468	4874.830000	972.461914	31.344490
9124.599468	4874.830000	971.293945	-23.957157
9124.599468	4874.830000	970.125000	31.111862
9124.599468	4874.830000	968.956055	29.934269
9124.599468	4874.830000	967.786133	-38.821621
9124.599468	4874.830000	966.617188	-67.490944
9124.599468	4874.830000	965.447266	128.342026
9124.599468	4874.830000	964.276367	3.833056
9124.599468	4874.830000	963.106445	101.114807
9124.599468	4874.830000	961.935547	58.070259
9124.599468	4874.830000	960.764648	-2.681262
9124.599468	4874.830000	959.593750	-39.467861
9124.599468	4874.830000	958.422852	23.806179
9124.599468	4874.830000	957.250977	-29.860039
9124.599468	4874.830000	956.079102	84.757317
9124.599468	4874.830000	954.907227	-32.186710
9124.599468	4874.830000	953.734375	-30.256008
9124.599468	4874.830000	952.562500	38.567650
9124.599468	4874.830000	951.389648	-15.110886
9124.599468	4874.830000	950.215820	-83.093353
9124.599468	4874.830000	949.042969	58.615540
9124.599468	4874.830000	947.869141	-107.063202
9124.599468	4874.830000	946.695313	-9.324914
9124.599468	4874.830000	945.521484	-11.577279
9124.599468	4874.830000	944.346680	-43.535339
9124.599468	4874.830000	943.172852	83.679787
9124.599468	4874.830000	941.998047	32.723927
9124.599468	4874.830000	940.822266	-50.262512
9124.599468	4874.830000	939.647461	-8.604738
9124.599468	4874.830000	938.471680	-30.317099
9124.599468	4874.830000	937.295898	-162.096359
9124.599468	4874.830000	936.119141	-96.051865
9124.599468	4874.830000	934.943359	-5.655758
9124.599468	4874.830000	933.766602	16.374704
9124.599468	4874.830000	932.589844	-32.295902
9124.599468	4874.830000	931.413086	45.819759
9124.599468	4874.830000	930.235352	77.648712
9124.599468	4874.830000	929.057617	-17.325121
9124.599468	4874.830000	927.879883	99.811623
9124.599468	4874.830000	926.702148	41.408817
9124.599468	4874.830000	925.523438	63.453548
9124.599468	4874.830000	924.344727	-7.118104
9124.599468	4874.830000	923.166016	-36.247028
9124.599468	4874.830000	921.987305	41.805088
9124.599468	4874.830000	920.807617	-74.994461
9124.599468	4874.830000	919.627930	-74.146591
9124.599468	4874.830000	919.497070	29.916458
9124.599468	4874.830000	918.331055	68.952194
9124.599468	4874.830000	917.165039	42.255600
9124.599468	4874.830000	915.999023	71.534233
9124.599468	4874.830000	914.833008	1.051056
9124.599468	4874.830000	913.666016	91.130287
9124.599468	4874.830000	912.499023	62.008820
9124.599468	4874.830000	911.332031	37.759434
9124.599468	4874.830000	910.165039	127.768394
9124.599468	4874.830000	908.997070	-42.311718
9124.599468	4874.830000	907.830078	20.943052
9124.599468	4874.830000	906.661133	38.012562
9124.599468	4874.830000	905.493164	21.067421
9124.599468	4874.830000	904.325195	89.120544
9124.599468	4874.830000	903.156250	-122.064651
9124.599468	4874.830000	901.987305	50.364693
9124.599468	4874.830000	900.818359	-0.554758
9124.599468	4874.830000	899.648438	1.926235
9124.599468	4874.830000	898.478516	55.348297
9124.599468	4874.830000	897.308594	-111.967979
9124.599468	4874.830000	896.138672	31.173977
9124.599468	4874.830000	894.968750	-10.002407
9124.599468	4874.830000	893.797852	38.522602
9124.599468	4874.830000	892.626953	9.475188
9124.599468	4874.830000	891.456055	-55.906574
9124.599468	4874.830000	890.284180	-17.097092
9124.599468	4874.830000	889.113281	-7.369853
9124.599468	4874.830000	887.941406	-7.333623
9124.599468	4874.830000	886.768555	38.699860
9124.599468	4874.830000	885.596680	89.553070
9124.599468	4874.830000	884.423828	24.224649
9124.599468	4874.830000	883.250977	104.090942
9124.599468	4874.830000	882.078125	46.039684
9124.599468	4874.830000	880.905273	-16.826307
9124.599468	4874.830000	879.731445	-26.471693
9124.599468	4874.830000	878.557617	89.596336
9124.599468	4874.830000	877.383789	-28.836052
9124.599468	4874.830000	876.209961	9.852763
9124.599468	4874.830000	875.035156	29.196650
9124.599468	4874.830000	873.860352	2.635931
9124.599468	4874.830000	872.685547	-26.330580
9124.599468	4874.830000	871.510742	2.662633
9124.599468	4874.830000	870.334961	77.510277
9124.599468	4874.830000	869.159180	-26.277748
9124.599468	4874.830000	867.983398	147.478287
9124.599468	4874.830000	866.807617	-43.136871
9124.599468	4874.830000	865.630859	55.774902
9124.599468	4874.830000	864.454102	87.120728
9124.599468	4874.830000	863.277344	34.064213
9124.599468	4874.830000	862.100586	29.240164
9124.599468	4874.830000	860.922852	55.749081
9124.599468	4874.830000	859.745117	50.920952
9124.599468	4874.830000	858.567383	-23.770567
9124.599468	4874.830000	857.389648	164.107178
9124.599468	4874.830000	856.210938	29.218422
9124.599468	4874.830000	855.032227	7.543034
9124.599468	4874.830000	853.853516	31.611082
9124.599468	4874.830000	852.674805	84.548088
9124.599468	4874.830000	851.495117	-16.530565
9124.599468	4874.830000	850.315430	-35.776329
9124.599468	4874.830000	849.135742	74.864044
9124.599468	4874.830000	847.956055	0.298547
9124.599468	4874.830000	846.775391	-26.153090
9124.599468	4874.830000	845.595703	-11.732289
9124.599468	4874.830000	844.415039	-6.930480
9124.599468	4874.830000	843.233398	-28.560135
9124.599468	4874.830000	842.052734	7.470333
9124.599468	4874.830000	840.871094	-76.599068
9124.599468	4874.830000	839.689453	93.893936
9124.599468	4874.830000	838.506836	14.642349
9124.599468	4874.830000	837.325195	29.030733
9124.599468	4874.830000	836.142578	-6.980934
9124.599468	4874.830000	834.959961	9.805009
9124.599468	4874.830000	833.777344	67.362221
9124.599468	4874.830000	832.593750	127.294113
9124.599468	4874.830000	831.410156	-11.812736
9124.599468	4874.830000	830.226563	55.301708
9124.599468	4874.830000	829.042969	-102.907700
9124.599468	4874.830000	827.858398	117.559189
9124.599468	4874.830000	826.673828	139.085556
9124.599468	4874.830000	825.489258	38.442940
9124.599468	4874.830000	824.304688	74.344719
9124.599468	4874.830000	823.120117	100.654449
9124.599468	4874.830000	821.934570	26.413763
9124.599468	4874.830000	820.749023	-4.716790
9124.599468	4874.830000	819.562500	23.986069
9124.599468	4874.830000	818.376953	-26.270105
9124.599468	4874.830000	817.190430	45.478065
9124.599468	4874.830000	816.003906	-11.935289
9124.599468	4874.830000	814.817383	124.332626
9124.599468	4874.830000	813.629883	9.558545
9124.599468	4874.830000	812.442383	-2.404599
9124.599468	4874.830000	811.254883	100.326508
9124.599468	4874.830000	810.067383	-11.982985
9124.599468	4874.830000	808.878906	-64.536079
9124.599468	4874.830000	807.690430	-40.655376
9124.599468	4874.830000	806.501953	35.737740
9124.599468	4874.830000	805.313477	-35.887726
9124.599468	4874.830000	804.124023	47.632664
9124.599468	4874.830000	802.934570	-35.894566
9124.599468	4874.830000	801.745117	-66.908363
9124.599468	4874.830000	800.555664	-16.822046
9124.599468	4874.830000	799.365234	-76.439217
9124.599468	4874.830000	798.175781	-16.836012
9124.599468	4874.830000	796.985352	57.043701
9124.599468	4874.830000	795.793945	35.576149
9124.599468	4874.830000	794.603516	-57.356564
9124.599468	4874.830000	793.412109	68.889587
9124.599468	4874.830000	792.220703	95.062057
9124.599468	4874.830000	791.028320	23.604805
9124.599468	4874.830000	789.836914	-35.921116
9124.599468	4874.830000	788.644531	-62.101906
9124.599468	4874.830000	787.452148	-16.887138
9124.599468	4874.830000	786.258789	75.889557
9124.599468	4874.830000	785.066406	23.538496
9124.599468	4874.830000	783.873047	-62.082184
9124.599468	4874.830000	782.679688	-64.454292
9124.599468	4874.830000	781.485352	94.812668
9124.599468	4874.830000	780.291992	201.729202
9124.599468	4874.830000	779.097656	-78.691292
9124.599468	4874.830000	777.903320	30.593065
9124.599468	4874.830000	776.708008	101.832130
9124.599468	4874.830000	775.512695	92.306801
9124.599468	4874.830000	774.318359	-64.407135
9124.599468	4874.830000	773.122070	82.761948
9124.599468	4874.830000	771.926758	56.634987
9124.599468	4874.830000	770.730469	-26.422567
9124.599468	4874.830000	769.534180	66.088669
9124.599468	4874.830000	768.337891	149.075180
9124.599468	4874.830000	767.141602	120.585541
9124.599468	4874.830000	765.944336	113.443565
9124.599468	4874.830000	764.747070	175.037567
9124.599468	4874.830000	763.549805	295.846771
9124.599468	4874.830000	762.351563	376.330719
9124.599468	4874.830000	761.154297	212.810989
9124.599468	4874.830000	759.956055	172.503098
9124.599468	4874.830000	758.757813	129.844177
9124.599468	4874.830000	757.558594	68.266426
9124.599468	4874.830000	756.359375	155.813431
9124.599468	4874.830000	755.160156	179.437317
9124.599468	4874.830000	753.960938	186.491333
9124.599468	4874.830000	752.761719	221.924423
9124.599468	4874.830000	751.561523	181.672714
9124.599468	4874.830000	750.361328	101.246071
9124.599468	4874.830000	749.160156	143.765915
9124.599468	4874.830000	747.959961	183.903885
9124.599468	4874.830000	746.758789	337.435547
9124.599468	4874.830000	745.557617	214.522415
9124.599468	4874.830000	744.356445	200.299683
9124.599468	4874.830000	743.154297	75.104836
9124.599468	4874.830000	741.952148	1.897943
9124.599468	4874.830000	740.750000	63.255638
9124.599468	4874.830000	739.547852	100.989403
9124.599468	4874.830000	738.344727	79.725784
9124.599468	4874.830000	737.142578	-47.675362
9124.599468	4874.830000	735.939453	124.478767
9124.599468	4874.830000	734.735352	-35.887791
9124.599468	4874.830000	733.532227	-24.105846
9124.599468	4874.830000	732.328125	-21.756531
9124.599468	4874.830000	731.124023	112.544785
9124.599468	4874.830000	729.918945	147.845032
9124.599468	4874.830000	728.714844	143.088303
9124.599468	4874.830000	727.509766	46.494747
9124.599468	4874.830000	726.303711	58.240822
9124.599468	4874.830000	725.098633	-61.835087
9124.599468	4874.830000	723.892578	91.128014
9124.599468	4874.830000	722.686523	-54.787979
9124.599468	4874.830000	721.480469	13.422016
9124.599468	4874.830000	720.274414	60.435200
9124.599468	4874.830000	719.067383	43.940590
9124.599468	4874.830000	717.860352	34.504208
9124.599468	4874.830000	716.653320	104.984161
9124.599468	4874.830000	715.445313	86.137085
9124.599468	4874.830000	714.238281	13.259147
9124.599468	4874.830000	713.030273	64.904182
9124.599468	4874.830000	711.821289	-24.379763
9124.599468	4874.830000	710.613281	43.683704
9124.599468	4874.830000	709.404297	38.946754
9124.599468	4874.830000	708.195313	-15.076094
9124.599468	4874.830000	706.986328	-8.069951
9124.599468	4874.830000	705.776367	55.235474
9124.599468	4874.830000	704.566406	-85.544472
9124.599468	4874.830000	703.356445	-17.563395
9124.599468	4874.830000	702.146484	5.841977
9124.599468	4874.830000	700.935547	160.500275
9124.599468	4874.830000	699.724609	45.587650
9124.599468	4874.830000	698.513672	12.726851
9124.599468	4874.830000	697.302734	24.385595
9124.599468	4874.830000	696.090820	-29.538885
9124.599468	4874.830000	694.878906	-53.003254
9124.599468	4874.830000	693.666992	-55.390621
9124.599468	4874.830000	692.455078	143.508926
9124.599468	4874.830000	691.242188	87.255432
9124.599468	4874.830000	690.029297	148.001877
9124.599468	4874.830000	688.816406	23.932772
9124.599468	4874.830000	687.602539	42.567642
9124.599468	4874.830000	686.389648	-13.627602
9124.599468	4874.830000	685.175781	30.715734
9124.599468	4874.830000	683.960938	114.769218
9124.599468	4874.830000	682.747070	95.972404
9124.599468	4874.830000	681.532227	11.769421
9124.599468	4874.830000	680.317383	67.737312
9124.599468	4874.830000	679.102539	90.986610
9124.599468	4874.830000	677.886719	60.526340
9124.599468	4874.830000	676.670898	6.734331
9124.599468	4874.830000	675.455078	53.309505
9124.599468	4874.830000	674.239258	90.529396
9124.599468	4874.830000	673.022461	50.751873
9124.599468	4874.830000	671.805664	55.299374
9124.599468	4874.830000	670.588867	106.475800
9124.599468	4874.830000	669.372070	66.709793
9124.599468	4874.830000	668.154297	54.926125
9124.599468	4874.830000	666.936523	-71.037384
9124.599468	4874.830000	665.718750	29.033318
9124.599468	4874.830000	664.500977	12.595698
9124.599468	4874.830000	663.282227	21.778120
9124.599468	4874.830000	662.063477	40.265827
9124.599468	4874.830000	660.844727	56.413990
9124.599468	4874.830000	659.625000	191.243546
9124.599468	4874.830000	658.405273	186.404587
9124.599468	4874.830000	657.185547	114.100906
9124.599468	4874.830000	655.965820	13.914020
9124.599468	4874.830000	654.745117	-74.607826
9124.599468	4874.830000	653.525391	-39.881138
9124.599468	4874.830000	652.303711	48.287556
9124.599468	4874.830000	651.083008	20.221771
9124.599468	4874.830000	649.861328	45.601082
9124.599468	4874.830000	648.640625	-14.981235
9124.599468	4874.830000	647.417969	133.471970
9124.599468	4874.830000	646.196289	140.222977
9124.599468	4874.830000	644.973633	-59.636810
9124.599468	4874.830000	643.750977	21.411900
9124.599468	4874.830000	642.528320	-41.443687
9124.599468	4874.830000	641.305664	-11.480474
9124.599468	4874.830000	640.082031	95.006508
9124.599468	4874.830000	638.858398	-39.725655
9124.599468	4874.830000	637.634766	-28.343506
9124.599468	4874.830000	636.410156	71.111328
9124.599468	4874.830000	635.185547	33.789017
9124.599468	4874.830000	633.960938	-12.790460
9124.599468	4874.830000	632.736328	12.455375
9124.599468	4874.830000	631.510742	79.373795
9124.599468	4874.830000	630.285156	-129.285400
9124.599468	4874.830000	629.059570	-36.910664
9124.599468	4874.830000	627.833984	34.589012
9124.599468	4874.830000	626.607422	82.913193
9124.599468	4874.830000	625.380859	45.611015
9124.599468	4874.830000	624.154297	38.388496
9124.599468	4874.830000	622.927734	82.040031
9124.599468	4874.830000	621.700195	144.164337
9124.599468	4874.830000	620.472656	21.331079
9124.599468	4874.830000	619.245117	4.854190
9124.599468	4874.830000	618.016602	64.628517
9124.599468	4874.830000	616.788086	59.689064
9124.599468	4874.830000	615.559570	1.624924
9124.599468	4874.830000	614.331055	91.363548
9124.599468	4874.830000	613.101563	181.058807
9124.599468	4874.830000	611.872070	-135.522568
9124.599468	4874.830000	610.642578	-73.520508
9124.599468	4874.830000	609.413086	69.199730
9124.599468	4874.830000	608.182617	-14.199453
9124.599468	4874.830000	606.952148	-65.282616
9124.599468	4874.830000	605.721680	81.938995
9124.599468	4874.830000	604.491211	51.592060
9124.599468	4874.830000	603.259766	111.136086
9124.599468	4874.830000	602.028320	-4.471972
9124.599468	4874.830000	600.796875	-48.621052
9124.599468	4874.830000	599.564453	-164.157562
9124.599468	4874.830000	598.332031	-56.284466
9124.599468	4874.830000	597.099609	-12.926313
9124.599468	4874.830000	595.867188	-59.361694
9124.599468	4874.830000	594.633789	66.812714
9124.599468	4874.830000	593.400391	34.172810
9124.599468	4874.830000	592.166992	-5.360035
9124.599468	4874.830000	590.933594	51.709774
9124.599468	4874.830000	589.699219	-13.114596
9124.599468	4874.830000	588.464844	78.402924
9124.599468	4874.830000	587.230469	-23.185186
9124.599468	4874.830000	585.995117	-14.439247
9124.599468	4874.830000	584.760742	-1.108499
9124.599468	4874.830000	583.525391	97.194466
9124.599468	4874.830000	582.289063	-64.041107
9124.599468	4874.830000	581.053711	-32.359848
9124.599468	4874.830000	579.817383	-37.424168
9124.599468	4874.830000	578.581055	42.419041
9124.599468	4874.830000	577.343750	44.211723
9124.599468	4874.830000	576.107422	119.403191
9124.599468	4874.830000	574.870117	187.676208
9124.599468	4874.830000	573.631836	74.770767
9124.599468	4874.830000	572.394531	65.067848
9124.599468	4874.830000	571.156250	211.217712
9124.599468	4874.830000	569.917969	144.190399
9124.599468	4874.830000	568.679688	15.328715
9124.599468	4874.830000	567.440430	110.985832
9124.599468	4874.830000	566.202148	-49.886402
9124.599468	4874.830000	564.961914	-9.217207
9124.599468	4874.830000	563.722656	-92.179878
9124.599468	4874.830000	562.482422	-12.625916
9124.599468	4874.830000	561.243164	96.632645
9124.599468	4874.830000	560.001953	84.597191
9124.599468	4874.830000	558.761719	134.311768
9124.599468	4874.830000	557.520508	12.504447
9124.599468	4874.830000	556.279297	32.481739
9124.599468	4874.830000	555.038086	-52.693836
9124.599468	4874.830000	553.795898	115.810120
9124.599468	4874.830000	552.554688	142.588135
9124.599468	4874.830000	551.311523	36.868080
9124.599468	4874.830000	550.069336	29.384766
9124.599468	4874.830000	548.826172	44.730442
9124.599468	4874.830000	547.583984	55.497730
9124.599468	4874.830000	546.339844	59.408321
9124.599468	4874.830000	545.096680	29.085527
9124.599468	4874.830000	543.852539	51.237770
9124.599468	4874.830000	542.608398	-1.889645
9124.599468	4874.830000	541.364258	63.572437
9124.599468	4874.830000	540.119141	35.530830
9124.599468	4874.830000	538.875000	-1.621981
9124.599468	4874.830000	537.628906	47.829010
9124.599468	4874.830000	536.383789	-34.888054
9124.599468	4874.830000	535.137695	-15.074339
9124.599468	4874.830000	533.892578	-88.644951
9124.599468	4874.830000	532.645508	22.232996
9124.599468	4874.830000	531.399414	-60.431065
9124.599468	4874.830000	530.152344	-79.341660
9124.599468	4874.830000	528.905273	-25.438503
9124.599468	4874.830000	527.658203	3.412211
9124.599468	4874.830000	526.410156	39.067673
9124.599468	4874.830000	525.163086	58.784962
9124.599468	4874.830000	523.914063	-85.197395
9124.599468	4874.830000	522.666016	-10.923580
9124.599468	4874.830000	521.416992	47.405472
9124.599468	4874.830000	520.167969	-7.893340
9124.599468	4874.830000	518.918945	-54.088570
9124.599468	4874.830000	517.669922	45.072220
9124.599468	4874.830000	516.419922	71.529427
9124.599468	4874.830000	515.169922	25.329454
9124.599468	4874.830000	513.919922	-23.126101
9124.599468	4874.830000	512.668945	-14.841195
9124.599468	4874.830000	511.417969	-22.445696
9124.599468	4874.830000	510.166992	13.040359
9124.599468	4874.830000	508.916016	16.759041
9124.599468	4874.830000	507.664063	-33.939152
9124.599468	4874.830000	506.412109	17.374275
9124.599468	4874.830000	505.160156	-71.838066
9124.599468	4874.830000	503.907227	74.604858
9124.599468	4874.830000	502.655273	51.094772
9124.599468	4874.830000	501.402344	84.204216
9124.599468	4874.830000	500.148438	74.274689
9124.599468	4874.830000	498.895508	-57.894623
9124.599468	4874.830000	497.641602	-110.802246
9124.599468	4874.830000	496.387695	-64.135666
9124.599468	4874.830000	495.132813	-15.233420
9124.599468	4874.830000	493.878906	-29.686697
9124.599468	4874.830000	492.624023	-12.483339
9124.599468	4874.830000	491.368164	4.705653
9124.599468	4874.830000	490.113281	12.839653
9124.599468	4874.830000	488.857422	7.404399
9124.599468	4874.830000	487.601563	-29.665281
9124.599468	4874.830000	486.344727	-89.314224
9124.599468	4874.830000	485.088867	-24.738064
9124.599468	4874.830000	483.832031	19.482206
9124.599468	4874.830000	482.575195	108.822426
9124.599468	4874.830000	481.317383	51.421688
9124.599468	4874.830000	480.059570	52.702850
9124.599468	4874.830000	478.801758	33.672581
9124.599468	4874.830000	477.543945	-86.849709
9124.599468	4874.830000	476.285156	65.513550
9124.599468	4874.830000	475.027344	-82.033859
9124.599468	4874.830000	473.767578	36.436234
9124.599468	4874.830000	472.508789	62.455460
9124.599468	4874.830000	471.249023	-3.916996
9124.599468	4874.830000	469.989258	-7.201433
9124.599468	4874.830000	468.729492	-19.502096
9124.599468	4874.830000	467.469727	10.971042
9124.599468	4874.830000	466.208984	16.659119
9124.599468	4874.830000	464.948242	116.856033
9124.599468	4874.830000	463.686523	-93.505920
9124.599468	4874.830000	462.425781	42.642334
9124.599468	4874.830000	461.164063	3.293092
9124.599468	4874.830000	459.901367	78.625931
9124.599468	4874.830000	458.639648	90.967728
9124.599468	4874.830000	457.376953	-29.317230
9124.599468	4874.830000	456.114258	-10.241978
9124.599468	4874.830000	454.851563	116.650124
9124.599468	4874.830000	453.587891	39.073650
9124.599468	4874.830000	452.324219	42.360531
9124.599468	4874.830000	451.060547	63.592342
9124.599468	4874.830000	449.796875	-38.658131
9124.599468	4874.830000	448.532227	16.213953
9124.599468	4874.830000	447.267578	32.902790
9124.599468	4874.830000	446.002930	107.891747
9124.599468	4874.830000	444.737305	-10.045974
9124.599468	4874.830000	443.471680	-0.141488
9124.599468	4874.830000	442.206055	14.224003
9124.599468	4874.830000	440.940430	19.598724
9124.599468	4874.830000	439.673828	51.840698
9124.599468	4874.830000	438.407227	45.962673
9124.599468	4874.830000	437.140625	-62.966209
9124.599468	4874.830000	435.873047	5.038427
9124.599468	4874.830000	434.605469	180.457077
9124.599468	4874.830000	433.337891	134.175934
9124.599468	4874.830000	432.070313	27.467686
9124.599468	4874.830000	430.801758	-14.334846
9124.599468	4874.830000	429.533203	-67.329826
9124.599468	4874.830000	428.264648	36.222862
9124.599468	4874.830000	426.996094	126.287422
9124.599468	4874.830000	425.726563	151.454788
9124.599468	4874.830000	424.457031	26.837212
9124.599468	4874.830000	423.186523	-44.129269
9124.599468	4874.830000	421.916992	-30.202765
9124.599468	4874.830000	420.646484	23.888130
9124.599468	4874.830000	419.375977	19.862560
9124.599468	4874.830000	418.104492	18.035482
9124.599468	4874.830000	416.833008	-104.359329
9124.599468	4874.830000	415.561523	161.560501
9124.599468	4874.830000	414.290039	135.050339
9124.599468	4874.830000	413.017578	37.130474
9124.599468	4874.830000	411.746094	1.657431
9124.599468	4874.830000	410.472656	113.313477
9124.599468	4874.830000	409.200195	106.731537
9124.599468	4874.830000	407.926758	68.904488
9124.599468	4874.830000	406.653320	131.316757
9124.599468	4874.830000	405.379883	10.979786
9124.599468	4874.830000	404.105469	84.414795
9124.599468	4874.830000	402.831055	77.602768
9124.599468	4874.830000	401.556641	88.551109
9124.599468	4874.830000	400.282227	-7.398341
9124.599468	4874.830000	399.006836	110.265999
9124.599468	4874.830000	397.731445	32.035828
9124.599468	4874.830000	396.456055	36.080471
9124.599468	4874.830000	395.179688	64.522057
9124.599468	4874.830000	393.903320	10.622041
9124.599468	4874.830000	392.626953	45.595490
9124.599468	4874.830000	391.350586	113.821732
9124.599468	4874.830000	390.073242	55.296013
9124.599468	4874.830000	388.795898	134.453094
9124.599468	4874.830000	387.518555	144.651154
9124.599468	4874.830000	386.240234	-36.195728
9124.599468	4874.830000	384.961914	33.816673
9124.599468	4874.830000	383.683594	65.984825
9124.599468	4874.830000	382.405273	71.426163
9124.599468	4874.830000	381.125977	41.279137
9124.599468	4874.830000	379.846680	42.108612
9124.599468	4874.830000	378.567383	16.234465
9124.599468	4874.830000	377.287109	39.050598
9124.599468	4874.830000	376.006836	44.025669
9124.599468	4874.830000	374.726563	57.762318
9124.599468	4874.830000	373.446289	20.429024
9124.599468	4874.830000	372.165039	-19.212502
9124.599468	4874.830000	370.883789	-23.511951
9124.599468	4874.830000	369.602539	23.004110
9124.599468	4874.830000	368.320313	-127.641380
9124.599468	4874.830000	367.039063	-28.241386
9124.599468	4874.830000	365.755859	37.794262
9124.599468	4874.830000	364.473633	-31.272051
9124.599468	4874.830000	363.190430	-69.476753
9124.599468	4874.830000	361.907227	42.570492
9124.599468	4874.830000	360.624023	19.569345
9124.599468	4874.830000	359.340820	-12.404879
9124.599468	4874.830000	358.056641	-40.095371
9124.599468	4874.830000	356.772461	4.985905
9124.599468	4874.830000	355.487305	32.218143
9124.599468	4874.830000	354.202148	17.319389
9124.599468	4874.830000	352.916992	24.343235
9124.599468	4874.830000	351.631836	-81.384361
9124.599468	4874.830000	350.346680	-37.162792
9124.599468	4874.830000	349.060547	-112.293427
9124.599468	4874.830000	347.774414	59.501930
9124.599468	4874.830000	346.487305	50.176044
9124.599468	4874.830000	345.200195	-5.643961
9124.599468	4874.830000	343.913086	-48.409378
9124.599468	4874.830000	342.625977	40.888100
9124.599468	4874.830000	341.338867	28.572351
9124.599468	4874.830000	340.050781	-30.222811
9124.599468	4874.830000	338.762695	-1.104486
9124.599468	4874.830000	337.473633	102.644539
9124.599468	4874.830000	336.184570	-104.321777
9124.599468	4874.830000	334.895508	-1.062495
9124.599468	4874.830000	333.606445	-91.756195
9124.599468	4874.830000	332.317383	21.964811
9124.599468	4874.830000	331.027344	3.387479
9124.599468	4874.830000	329.736328	-90.226830
9124.599468	4874.830000	328.446289	0.638367
9124.599468	4874.830000	327.155273	-137.446136
9124.599468	4874.830000	325.864258	-97.726624
9124.599468	4874.830000	324.573242	75.725510
9124.599468	4874.830000	323.281250	33.501015
9124.599468	4874.830000	321.989258	-26.581284
9124.599468	4874.830000	320.697266	27.239300
9124.599468	4874.830000	319.405273	78.520660
9124.599468	4874.830000	318.112305	63.593197
9124.599468	4874.830000	316.819336	41.752815
9124.599468	4874.830000	315.526367	61.263477
9124.599468	4874.830000	314.232422	27.758259
9124.599468	4874.830000	312.938477	-111.361214
9124.599468	4874.830000	311.644531	-49.072708
9124.599468	4874.830000	310.349609	8.413949
9124.599468	4874.830000	309.054688	65.486488
9124.599468	4874.830000	307.759766	45.446163
9124.599468	4874.830000	306.464844	18.434601
9124.599468	4874.830000	305.168945	-13.374456
9124.599468	4874.830000	303.873047	39.801182
9124.599468	4874.830000	302.577148	-8.188431
9124.599468	4874.830000	301.281250	160.081039
9124.599468	4874.830000	299.984375	84.907677
