#X		#Y		#Wave		#Intensity
9290.896809	5136.801667	1999.946289	33.045200
9290.896809	5136.801667	1998.981445	-27.079996
9290.896809	5136.801667	1998.017578	13.998199
9290.896809	5136.801667	1997.052734	50.115601
9290.896809	5136.801667	1996.088867	49.066330
9290.896809	5136.801667	1995.124023	102.525391
9290.896809	5136.801667	1994.159180	9.847105
9290.896809	5136.801667	1993.193359	-1.070931
9290.896809	5136.801667	1992.228516	67.250435
9290.896809	5136.801667	1991.262695	115.751472
9290.896809	5136.801667	1990.296875	50.396885
9290.896809	5136.801667	1989.331055	98.898117
9290.896809	5136.801667	1988.365234	41.007149
9290.896809	5136.801667	1987.398438	-11.909286
9290.896809	5136.801667	1986.432617	-12.865223
9290.896809	5136.801667	1985.465820	-13.815720
9290.896809	5136.801667	1984.499023	-69.147621
9290.896809	5136.801667	1983.532227	-5.813456
9290.896809	5136.801667	1982.565430	64.915642
9290.896809	5136.801667	1981.597656	41.732910
9290.896809	5136.801667	1980.629883	23.502996
9290.896809	5136.801667	1979.662109	34.921608
9290.896809	5136.801667	1978.694336	-42.558956
9290.896809	5136.801667	1977.726563	-87.911911
9290.896809	5136.801667	1976.758789	0.052375
9290.896809	5136.801667	1975.790039	1.604863
9290.896809	5136.801667	1974.821289	-80.738152
9290.896809	5136.801667	1973.852539	-74.233292
9290.896809	5136.801667	1972.883789	26.002722
9290.896809	5136.801667	1971.915039	-34.099228
9290.896809	5136.801667	1970.945313	38.970901
9290.896809	5136.801667	1969.975586	-55.623837
9290.896809	5136.801667	1969.005859	7.564577
9290.896809	5136.801667	1968.036133	78.123070
9290.896809	5136.801667	1967.066406	35.316086
9290.896809	5136.801667	1966.096680	4.841894
9290.896809	5136.801667	1965.125977	45.804337
9290.896809	5136.801667	1964.155273	-31.449881
9290.896809	5136.801667	1963.184570	78.440628
9290.896809	5136.801667	1962.213867	-1.254290
9290.896809	5136.801667	1961.242188	74.130753
9290.896809	5136.801667	1960.271484	-3.075600
9290.896809	5136.801667	1959.299805	89.500816
9290.896809	5136.801667	1958.328125	145.144501
9290.896809	5136.801667	1957.356445	-82.055565
9290.896809	5136.801667	1956.384766	-26.404453
9290.896809	5136.801667	1955.412109	-5.194021
9290.896809	5136.801667	1954.439453	-18.404875
9290.896809	5136.801667	1953.467773	113.379364
9290.896809	5136.801667	1952.495117	36.263844
9290.896809	5136.801667	1951.521484	77.089767
9290.896809	5136.801667	1950.548828	-4.907391
9290.896809	5136.801667	1949.575195	40.816982
9290.896809	5136.801667	1948.601563	-43.604156
9290.896809	5136.801667	1947.627930	38.926289
9290.896809	5136.801667	1946.654297	-3.745812
9290.896809	5136.801667	1945.680664	2.671712
9290.896809	5136.801667	1944.706055	-52.251144
9290.896809	5136.801667	1943.732422	37.566143
9290.896809	5136.801667	1942.757813	-24.706575
9290.896809	5136.801667	1941.783203	72.421379
9290.896809	5136.801667	1940.807617	-2.099127
9290.896809	5136.801667	1939.833008	65.568817
9290.896809	5136.801667	1938.857422	133.207596
9290.896809	5136.801667	1937.881836	63.607735
9290.896809	5136.801667	1936.906250	16.077791
9290.896809	5136.801667	1935.930664	-68.176689
9290.896809	5136.801667	1934.955078	-10.372276
9290.896809	5136.801667	1933.978516	30.268311
9290.896809	5136.801667	1933.001953	-4.994654
9290.896809	5136.801667	1932.025391	-18.221237
9290.896809	5136.801667	1931.048828	22.387629
9290.896809	5136.801667	1930.072266	53.191555
9290.896809	5136.801667	1929.094727	17.936089
9290.896809	5136.801667	1928.118164	-36.874260
9290.896809	5136.801667	1927.140625	8.583394
9290.896809	5136.801667	1926.163086	27.128939
9290.896809	5136.801667	1925.184570	-49.662491
9290.896809	5136.801667	1924.207031	-26.232395
9290.896809	5136.801667	1923.228516	-29.691988
9290.896809	5136.801667	1922.250000	64.561852
9290.896809	5136.801667	1921.271484	46.425129
9290.896809	5136.801667	1920.292969	-20.547440
9290.896809	5136.801667	1919.314453	27.252567
9290.896809	5136.801667	1918.334961	48.179329
9290.896809	5136.801667	1917.355469	-33.410591
9290.896809	5136.801667	1916.375977	-14.927325
9290.896809	5136.801667	1915.396484	47.460461
9290.896809	5136.801667	1914.416992	39.083603
9290.896809	5136.801667	1913.436523	-69.284035
9290.896809	5136.801667	1912.457031	24.767452
9290.896809	5136.801667	1911.476563	13.951513
9290.896809	5136.801667	1910.496094	51.884747
9290.896809	5136.801667	1909.515625	60.557182
9290.896809	5136.801667	1908.534180	42.421131
9290.896809	5136.801667	1907.552734	-17.124077
9290.896809	5136.801667	1906.572266	-86.391754
9290.896809	5136.801667	1905.590820	-24.139421
9290.896809	5136.801667	1904.608398	72.172012
9290.896809	5136.801667	1903.626953	61.338757
9290.896809	5136.801667	1902.644531	21.300528
9290.896809	5136.801667	1901.663086	10.475370
9290.896809	5136.801667	1900.680664	118.861351
9290.896809	5136.801667	1899.698242	-28.199310
9290.896809	5136.801667	1898.714844	4.756673
9290.896809	5136.801667	1897.732422	44.993065
9290.896809	5136.801667	1896.749023	17.141699
9290.896809	5136.801667	1895.765625	42.771378
9290.896809	5136.801667	1894.782227	19.786205
9290.896809	5136.801667	1893.798828	-12.911673
9290.896809	5136.801667	1892.814453	0.555326
9290.896809	5136.801667	1891.831055	45.589905
9290.896809	5136.801667	1890.846680	165.882721
9290.896809	5136.801667	1889.862305	14.206680
9290.896809	5136.801667	1888.877930	-1.479420
9290.896809	5136.801667	1887.892578	75.062340
9290.896809	5136.801667	1886.908203	42.381168
9290.896809	5136.801667	1885.922852	-31.533470
9290.896809	5136.801667	1884.937500	69.220985
9290.896809	5136.801667	1883.952148	43.828171
9290.896809	5136.801667	1882.965820	69.360725
9290.896809	5136.801667	1881.980469	27.004097
9290.896809	5136.801667	1880.994141	-32.305729
9290.896809	5136.801667	1880.007813	-47.975029
9290.896809	5136.801667	1879.021484	52.658112
9290.896809	5136.801667	1878.035156	46.665028
9290.896809	5136.801667	1877.047852	-2.923160
9290.896809	5136.801667	1876.061523	41.945221
9290.896809	5136.801667	1875.074219	101.321129
9290.896809	5136.801667	1874.086914	32.381054
9290.896809	5136.801667	1873.098633	-0.232807
9290.896809	5136.801667	1872.111328	44.595192
9290.896809	5136.801667	1871.123047	31.342510
9290.896809	5136.801667	1870.135742	-27.862999
9290.896809	5136.801667	1869.147461	31.450747
9290.896809	5136.801667	1868.158203	61.725437
9290.896809	5136.801667	1867.169922	0.126037
9290.896809	5136.801667	1866.180664	3.806509
9290.896809	5136.801667	1865.192383	-57.761051
9290.896809	5136.801667	1864.203125	30.489178
9290.896809	5136.801667	1863.213867	-74.544144
9290.896809	5136.801667	1862.223633	59.561687
9290.896809	5136.801667	1861.234375	19.757771
9290.896809	5136.801667	1860.244141	57.223442
9290.896809	5136.801667	1859.253906	-86.361389
9290.896809	5136.801667	1858.263672	-41.651463
9290.896809	5136.801667	1857.273438	-35.565460
9290.896809	5136.801667	1856.282227	-41.545437
9290.896809	5136.801667	1855.291992	36.896332
9290.896809	5136.801667	1854.300781	-5.269571
9290.896809	5136.801667	1853.309570	3.212697
9290.896809	5136.801667	1852.317383	-2.773736
9290.896809	5136.801667	1851.326172	-8.757504
9290.896809	5136.801667	1850.333984	40.683144
9290.896809	5136.801667	1849.342773	37.101357
9290.896809	5136.801667	1848.350586	38.337341
9290.896809	5136.801667	1847.357422	-1.370603
9290.896809	5136.801667	1846.365234	57.661289
9290.896809	5136.801667	1845.372070	-37.408176
9290.896809	5136.801667	1844.379883	21.607201
9290.896809	5136.801667	1843.386719	30.061537
9290.896809	5136.801667	1842.393555	43.324184
9290.896809	5136.801667	1841.399414	68.609314
9290.896809	5136.801667	1840.406250	-52.832176
9290.896809	5136.801667	1839.412109	71.055237
9290.896809	5136.801667	1838.417969	-14.278038
9290.896809	5136.801667	1837.423828	6.189488
9290.896809	5136.801667	1836.429688	53.085999
9290.896809	5136.801667	1835.434570	-0.959300
9290.896809	5136.801667	1834.440430	5.078160
9290.896809	5136.801667	1833.445313	1.504143
9290.896809	5136.801667	1832.450195	41.159428
9290.896809	5136.801667	1831.454102	-12.845101
9290.896809	5136.801667	1830.458984	96.416740
9290.896809	5136.801667	1829.462891	25.619843
9290.896809	5136.801667	1828.466797	10.043950
9290.896809	5136.801667	1827.470703	13.668306
9290.896809	5136.801667	1826.474609	-33.085461
9290.896809	5136.801667	1825.478516	-34.252026
9290.896809	5136.801667	1824.481445	-45.011272
9290.896809	5136.801667	1823.484375	76.096451
9290.896809	5136.801667	1822.487305	-32.959610
9290.896809	5136.801667	1821.490234	9.011441
9290.896809	5136.801667	1820.493164	60.550613
9290.896809	5136.801667	1819.495117	42.593983
9290.896809	5136.801667	1818.498047	53.387531
9290.896809	5136.801667	1817.500000	11.490176
9290.896809	5136.801667	1816.500977	94.113335
9290.896809	5136.801667	1815.502930	33.072075
9290.896809	5136.801667	1814.504883	-71.028343
9290.896809	5136.801667	1813.505859	57.028912
9290.896809	5136.801667	1812.506836	-59.001358
9290.896809	5136.801667	1811.507813	-5.150409
9290.896809	5136.801667	1810.508789	31.938175
9290.896809	5136.801667	1809.508789	-12.288555
9290.896809	5136.801667	1808.508789	-3.903183
9290.896809	5136.801667	1807.508789	-36.156219
9290.896809	5136.801667	1806.508789	5.686687
9290.896809	5136.801667	1805.508789	-33.725567
9290.896809	5136.801667	1804.508789	-85.068298
9290.896809	5136.801667	1803.507813	-19.358097
9290.896809	5136.801667	1802.506836	-42.030090
9290.896809	5136.801667	1801.505859	2.157631
9290.896809	5136.801667	1800.504883	82.134239
9290.896809	5136.801667	1799.502930	4.559407
9290.896809	5136.801667	1798.501953	-13.330896
9290.896809	5136.801667	1797.500000	40.356689
9290.896809	5136.801667	1796.498047	48.701927
9290.896809	5136.801667	1795.496094	9.346128
9290.896809	5136.801667	1794.493164	-1.383793
9290.896809	5136.801667	1793.491211	-26.413738
9290.896809	5136.801667	1792.488281	-56.203136
9290.896809	5136.801667	1791.485352	-21.640007
9290.896809	5136.801667	1790.482422	8.143774
9290.896809	5136.801667	1789.478516	118.907234
9290.896809	5136.801667	1788.475586	51.000851
9290.896809	5136.801667	1787.471680	64.080406
9290.896809	5136.801667	1786.467773	10.491530
9290.896809	5136.801667	1785.463867	-7.373244
9290.896809	5136.801667	1784.459961	39.024124
9290.896809	5136.801667	1783.455078	71.125275
9290.896809	5136.801667	1782.450195	-3.842093
9290.896809	5136.801667	1781.445313	-107.324799
9290.896809	5136.801667	1780.440430	41.306992
9290.896809	5136.801667	1779.435547	42.467537
9290.896809	5136.801667	1778.429688	24.607500
9290.896809	5136.801667	1777.424805	6.753390
9290.896809	5136.801667	1776.418945	-1.591620
9290.896809	5136.801667	1775.413086	-28.942009
9290.896809	5136.801667	1774.406250	-30.155474
9290.896809	5136.801667	1773.400391	35.128490
9290.896809	5136.801667	1772.393555	-20.713911
9290.896809	5136.801667	1771.386719	-36.178596
9290.896809	5136.801667	1770.379883	100.269531
9290.896809	5136.801667	1769.373047	4.096979
9290.896809	5136.801667	1768.365234	97.771965
9290.896809	5136.801667	1767.358398	-45.812531
9290.896809	5136.801667	1766.350586	50.203579
9290.896809	5136.801667	1765.342773	25.243071
9290.896809	5136.801667	1764.334961	73.786606
9290.896809	5136.801667	1763.326172	6.157856
9290.896809	5136.801667	1762.318359	-47.227215
9290.896809	5136.801667	1761.309570	-55.574722
9290.896809	5136.801667	1760.300781	66.377235
9290.896809	5136.801667	1759.291016	27.213074
9290.896809	5136.801667	1758.282227	-33.251823
9290.896809	5136.801667	1757.272461	1.011277
9290.896809	5136.801667	1756.262695	144.152710
9290.896809	5136.801667	1755.252930	38.720776
9290.896809	5136.801667	1754.243164	68.209053
9290.896809	5136.801667	1753.233398	-72.663277
9290.896809	5136.801667	1752.222656	1.771431
9290.896809	5136.801667	1751.211914	19.414263
9290.896809	5136.801667	1750.201172	-17.337868
9290.896809	5136.801667	1749.190430	54.669521
9290.896809	5136.801667	1748.179688	-12.809967
9290.896809	5136.801667	1747.167969	-37.730042
9290.896809	5136.801667	1746.156250	20.052334
9290.896809	5136.801667	1745.144531	49.461182
9290.896809	5136.801667	1744.132813	67.045998
9290.896809	5136.801667	1743.121094	32.669273
9290.896809	5136.801667	1742.108398	33.715416
9290.896809	5136.801667	1741.095703	25.315277
9290.896809	5136.801667	1740.083008	-6.686231
9290.896809	5136.801667	1739.070313	29.749165
9290.896809	5136.801667	1738.057617	35.497379
9290.896809	5136.801667	1737.043945	-5.935613
9290.896809	5136.801667	1736.030273	-2.550047
9290.896809	5136.801667	1735.016602	-34.537144
9290.896809	5136.801667	1734.002930	81.997086
9290.896809	5136.801667	1732.989258	87.707848
9290.896809	5136.801667	1731.974609	20.360874
9290.896809	5136.801667	1730.959961	0.155405
9290.896809	5136.801667	1729.945313	107.153152
9290.896809	5136.801667	1728.930664	-16.695011
9290.896809	5136.801667	1727.916016	36.098652
9290.896809	5136.801667	1726.900391	-28.843716
9290.896809	5136.801667	1725.885742	-13.737521
9290.896809	5136.801667	1724.870117	-29.235882
9290.896809	5136.801667	1723.853516	75.261719
9290.896809	5136.801667	1722.837891	52.685169
9290.896809	5136.801667	1721.822266	20.704691
9290.896809	5136.801667	1720.805664	-13.621305
9290.896809	5136.801667	1719.789063	-69.098648
9290.896809	5136.801667	1718.772461	-58.743027
9290.896809	5136.801667	1717.754883	-50.747753
9290.896809	5136.801667	1716.738281	15.982880
9290.896809	5136.801667	1715.720703	28.648706
9290.896809	5136.801667	1714.703125	20.165110
9290.896809	5136.801667	1713.685547	-79.906677
9290.896809	5136.801667	1712.667969	14.930361
9290.896809	5136.801667	1711.649414	6.436740
9290.896809	5136.801667	1710.630859	-41.958462
9290.896809	5136.801667	1709.612305	118.502762
9290.896809	5136.801667	1708.593750	4.402393
9290.896809	5136.801667	1707.575195	-60.401455
9290.896809	5136.801667	1706.555664	-29.033552
9290.896809	5136.801667	1705.536133	72.659088
9290.896809	5136.801667	1704.516602	96.944489
9290.896809	5136.801667	1703.497070	149.341156
9290.896809	5136.801667	1702.477539	126.722336
9290.896809	5136.801667	1701.457031	80.675652
9290.896809	5136.801667	1700.437500	11.216408
9290.896809	5136.801667	1699.416992	42.485207
9290.896809	5136.801667	1698.395508	-36.320744
9290.896809	5136.801667	1697.375000	140.084656
9290.896809	5136.801667	1696.354492	124.477730
9290.896809	5136.801667	1695.333008	38.661648
9290.896809	5136.801667	1694.311523	53.484035
9290.896809	5136.801667	1693.290039	2.792023
9290.896809	5136.801667	1692.267578	29.296232
9290.896809	5136.801667	1691.246094	46.431019
9290.896809	5136.801667	1690.223633	2.763170
9290.896809	5136.801667	1689.201172	52.607868
9290.896809	5136.801667	1688.178711	55.684814
9290.896809	5136.801667	1687.155273	-6.673820
9290.896809	5136.801667	1686.132813	-15.281413
9290.896809	5136.801667	1685.109375	-47.250927
9290.896809	5136.801667	1684.085938	77.251175
9290.896809	5136.801667	1683.062500	80.285408
9290.896809	5136.801667	1682.039063	31.954773
9290.896809	5136.801667	1681.014648	-16.365368
9290.896809	5136.801667	1679.990234	75.337257
9290.896809	5136.801667	1678.965820	62.009396
9290.896809	5136.801667	1677.941406	25.353668
9290.896809	5136.801667	1676.916992	133.299744
9290.896809	5136.801667	1675.891602	66.316933
9290.896809	5136.801667	1674.866211	-7.641035
9290.896809	5136.801667	1673.840820	146.843048
9290.896809	5136.801667	1672.815430	5.303359
9290.896809	5136.801667	1671.790039	145.731567
9290.896809	5136.801667	1670.763672	83.433395
9290.896809	5136.801667	1669.737305	67.732483
9290.896809	5136.801667	1668.710938	79.973282
9290.896809	5136.801667	1667.684570	-38.172825
9290.896809	5136.801667	1666.658203	29.933556
9290.896809	5136.801667	1665.630859	60.769753
9290.896809	5136.801667	1664.603516	131.141846
9290.896809	5136.801667	1663.576172	47.941925
9290.896809	5136.801667	1662.548828	36.868950
9290.896809	5136.801667	1661.520508	72.300621
9290.896809	5136.801667	1660.493164	175.136795
9290.896809	5136.801667	1659.464844	-7.992383
9290.896809	5136.801667	1658.436523	159.877914
9290.896809	5136.801667	1657.408203	120.872932
9290.896809	5136.801667	1656.378906	123.691635
9290.896809	5136.801667	1655.350586	121.857948
9290.896809	5136.801667	1654.321289	117.693886
9290.896809	5136.801667	1653.291992	206.397446
9290.896809	5136.801667	1652.261719	153.453720
9290.896809	5136.801667	1651.232422	170.152557
9290.896809	5136.801667	1650.202148	177.554199
9290.896809	5136.801667	1649.171875	159.425278
9290.896809	5136.801667	1648.141602	183.048767
9290.896809	5136.801667	1647.111328	132.442993
9290.896809	5136.801667	1646.080078	144.453110
9290.896809	5136.801667	1645.049805	181.953033
9290.896809	5136.801667	1644.018555	110.493675
9290.896809	5136.801667	1642.987305	147.969864
9290.896809	5136.801667	1641.955078	236.394745
9290.896809	5136.801667	1640.923828	127.881264
9290.896809	5136.801667	1639.891602	72.669273
9290.896809	5136.801667	1638.859375	79.991043
9290.896809	5136.801667	1637.827148	159.070969
9290.896809	5136.801667	1636.794922	92.290176
9290.896809	5136.801667	1635.761719	111.151962
9290.896809	5136.801667	1634.729492	236.433487
9290.896809	5136.801667	1633.696289	213.606155
9290.896809	5136.801667	1632.662109	68.198074
9290.896809	5136.801667	1631.628906	98.583344
9290.896809	5136.801667	1630.594727	179.811478
9290.896809	5136.801667	1629.561523	108.442902
9290.896809	5136.801667	1628.527344	321.353760
9290.896809	5136.801667	1627.493164	196.825775
9290.896809	5136.801667	1626.458008	305.664185
9290.896809	5136.801667	1625.423828	174.244629
9290.896809	5136.801667	1624.388672	273.794098
9290.896809	5136.801667	1623.353516	244.004410
9290.896809	5136.801667	1622.318359	216.527756
9290.896809	5136.801667	1621.282227	237.519958
9290.896809	5136.801667	1620.247070	265.420654
9290.896809	5136.801667	1619.210938	242.548111
9290.896809	5136.801667	1618.174805	279.648651
9290.896809	5136.801667	1617.137695	335.175415
9290.896809	5136.801667	1616.101563	388.369720
9290.896809	5136.801667	1615.064453	351.631683
9290.896809	5136.801667	1614.027344	314.901123
9290.896809	5136.801667	1612.990234	227.483200
9290.896809	5136.801667	1611.953125	370.480774
9290.896809	5136.801667	1610.916016	308.411011
9290.896809	5136.801667	1609.877930	239.448441
9290.896809	5136.801667	1608.839844	218.859787
9290.896809	5136.801667	1607.801758	329.491516
9290.896809	5136.801667	1606.763672	354.913513
9290.896809	5136.801667	1605.724609	290.571594
9290.896809	5136.801667	1604.685547	272.263489
9290.896809	5136.801667	1603.646484	309.163269
9290.896809	5136.801667	1602.607422	295.446106
9290.896809	5136.801667	1601.568359	295.524841
9290.896809	5136.801667	1600.528320	343.873901
9290.896809	5136.801667	1599.489258	270.379425
9290.896809	5136.801667	1598.449219	295.722473
9290.896809	5136.801667	1597.408203	327.941254
9290.896809	5136.801667	1596.368164	298.120178
9290.896809	5136.801667	1595.327148	360.171722
9290.896809	5136.801667	1594.287109	325.752441
9290.896809	5136.801667	1593.246094	286.748169
9290.896809	5136.801667	1592.204102	155.937790
9290.896809	5136.801667	1591.163086	208.767380
9290.896809	5136.801667	1590.121094	238.624969
9290.896809	5136.801667	1589.079102	254.701660
9290.896809	5136.801667	1588.037109	213.427979
9290.896809	5136.801667	1586.995117	318.924561
9290.896809	5136.801667	1585.953125	387.692505
9290.896809	5136.801667	1584.910156	231.789856
9290.896809	5136.801667	1583.867188	376.165039
9290.896809	5136.801667	1582.824219	337.173401
9290.896809	5136.801667	1581.781250	268.410919
9290.896809	5136.801667	1580.737305	380.612701
9290.896809	5136.801667	1579.693359	240.869247
9290.896809	5136.801667	1578.649414	288.916748
9290.896809	5136.801667	1577.605469	259.112976
9290.896809	5136.801667	1576.561523	341.459229
9290.896809	5136.801667	1575.516602	316.222992
9290.896809	5136.801667	1574.472656	265.829285
9290.896809	5136.801667	1573.427734	249.758774
9290.896809	5136.801667	1572.381836	359.465179
9290.896809	5136.801667	1571.336914	313.652313
9290.896809	5136.801667	1570.291016	272.423676
9290.896809	5136.801667	1569.246094	249.493576
9290.896809	5136.801667	1568.200195	276.837830
9290.896809	5136.801667	1567.153320	192.221664
9290.896809	5136.801667	1566.107422	395.438995
9290.896809	5136.801667	1565.060547	262.868469
9290.896809	5136.801667	1564.013672	262.775269
9290.896809	5136.801667	1562.966797	278.658508
9290.896809	5136.801667	1561.919922	246.603470
9290.896809	5136.801667	1560.872070	225.966049
9290.896809	5136.801667	1559.825195	305.719635
9290.896809	5136.801667	1558.777344	218.924210
9290.896809	5136.801667	1557.729492	241.627243
9290.896809	5136.801667	1556.680664	175.392807
9290.896809	5136.801667	1555.632813	225.446777
9290.896809	5136.801667	1554.583984	400.833771
9290.896809	5136.801667	1553.535156	291.304077
9290.896809	5136.801667	1552.486328	275.226715
9290.896809	5136.801667	1551.436523	286.486359
9290.896809	5136.801667	1550.387695	356.954407
9290.896809	5136.801667	1549.337891	122.277222
9290.896809	5136.801667	1548.288086	201.851151
9290.896809	5136.801667	1547.238281	240.423141
9290.896809	5136.801667	1546.187500	374.553131
9290.896809	5136.801667	1545.136719	258.359406
9290.896809	5136.801667	1544.086914	296.893738
9290.896809	5136.801667	1543.035156	346.779938
9290.896809	5136.801667	1541.984375	353.444489
9290.896809	5136.801667	1540.933594	250.983017
9290.896809	5136.801667	1539.881836	253.114929
9290.896809	5136.801667	1538.830078	273.425507
9290.896809	5136.801667	1537.778320	273.279083
9290.896809	5136.801667	1536.725586	245.871658
9290.896809	5136.801667	1535.673828	302.509186
9290.896809	5136.801667	1534.621094	252.399597
9290.896809	5136.801667	1533.568359	179.607452
9290.896809	5136.801667	1532.515625	165.859177
9290.896809	5136.801667	1531.461914	158.923004
9290.896809	5136.801667	1530.409180	213.252090
9290.896809	5136.801667	1529.355469	192.699677
9290.896809	5136.801667	1528.301758	149.475800
9290.896809	5136.801667	1527.247070	301.278625
9290.896809	5136.801667	1526.193359	239.915314
9290.896809	5136.801667	1525.138672	203.508896
9290.896809	5136.801667	1524.083984	153.520874
9290.896809	5136.801667	1523.029297	78.630302
9290.896809	5136.801667	1521.974609	135.159592
9290.896809	5136.801667	1520.918945	146.368942
9290.896809	5136.801667	1519.863281	44.354355
9290.896809	5136.801667	1518.807617	51.052727
9290.896809	5136.801667	1517.751953	168.663406
9290.896809	5136.801667	1516.696289	44.079823
9290.896809	5136.801667	1515.639648	-32.938297
9290.896809	5136.801667	1514.583008	12.234103
9290.896809	5136.801667	1513.526367	-46.648701
9290.896809	5136.801667	1512.469727	116.100922
9290.896809	5136.801667	1511.412109	91.137230
9290.896809	5136.801667	1510.355469	70.708717
9290.896809	5136.801667	1509.297852	23.170187
9290.896809	5136.801667	1508.240234	127.040230
9290.896809	5136.801667	1507.181641	41.110329
9290.896809	5136.801667	1506.124023	41.046436
9290.896809	5136.801667	1505.065430	65.824226
9290.896809	5136.801667	1504.006836	90.595818
9290.896809	5136.801667	1502.948242	126.647484
9290.896809	5136.801667	1501.888672	153.660126
9290.896809	5136.801667	1500.830078	103.951027
9290.896809	5136.801667	1499.770508	108.406296
9290.896809	5136.801667	1498.710938	92.565002
9290.896809	5136.801667	1497.650391	0.062185
9290.896809	5136.801667	1496.590820	92.477036
9290.896809	5136.801667	1495.530273	241.211594
9290.896809	5136.801667	1494.469727	51.840042
9290.896809	5136.801667	1493.409180	236.584930
9290.896809	5136.801667	1492.348633	159.938828
9290.896809	5136.801667	1491.287109	146.392273
9290.896809	5136.801667	1490.225586	180.145889
9290.896809	5136.801667	1489.164063	155.354111
9290.896809	5136.801667	1488.102539	171.095932
9290.896809	5136.801667	1487.041016	245.351212
9290.896809	5136.801667	1485.978516	256.578522
9290.896809	5136.801667	1484.916016	247.554672
9290.896809	5136.801667	1483.853516	231.805176
9290.896809	5136.801667	1482.791016	218.310608
9290.896809	5136.801667	1481.727539	103.656303
9290.896809	5136.801667	1480.664063	225.069458
9290.896809	5136.801667	1479.600586	144.186676
9290.896809	5136.801667	1478.537109	155.467804
9290.896809	5136.801667	1477.473633	204.926132
9290.896809	5136.801667	1476.409180	63.480042
9290.896809	5136.801667	1475.344727	202.758057
9290.896809	5136.801667	1474.280273	-35.047077
9290.896809	5136.801667	1473.215820	88.465408
9290.896809	5136.801667	1472.151367	117.716522
9290.896809	5136.801667	1471.085938	66.210121
9290.896809	5136.801667	1470.020508	191.878647
9290.896809	5136.801667	1468.955078	97.721016
9290.896809	5136.801667	1467.888672	-29.807261
9290.896809	5136.801667	1466.823242	156.316971
9290.896809	5136.801667	1465.756836	113.959259
9290.896809	5136.801667	1464.690430	58.086658
9290.896809	5136.801667	1463.624023	-33.533852
9290.896809	5136.801667	1462.556641	47.229561
9290.896809	5136.801667	1461.490234	150.395325
9290.896809	5136.801667	1460.422852	175.042923
9290.896809	5136.801667	1459.355469	135.216537
9290.896809	5136.801667	1458.287109	168.495056
9290.896809	5136.801667	1457.219727	63.954456
9290.896809	5136.801667	1456.151367	124.623497
9290.896809	5136.801667	1455.083008	19.875923
9290.896809	5136.801667	1454.014648	100.535812
9290.896809	5136.801667	1452.945313	114.297592
9290.896809	5136.801667	1451.876953	43.140446
9290.896809	5136.801667	1450.807617	90.074440
9290.896809	5136.801667	1449.738281	101.738388
9290.896809	5136.801667	1448.668945	101.848961
9290.896809	5136.801667	1447.598633	131.222443
9290.896809	5136.801667	1446.528320	4.281564
9290.896809	5136.801667	1445.458008	62.889210
9290.896809	5136.801667	1444.387695	103.237633
9290.896809	5136.801667	1443.317383	109.693153
9290.896809	5136.801667	1442.246094	124.126556
9290.896809	5136.801667	1441.174805	15.888472
9290.896809	5136.801667	1440.103516	74.707771
9290.896809	5136.801667	1439.032227	58.725185
9290.896809	5136.801667	1437.960938	-9.555034
9290.896809	5136.801667	1436.888672	28.846098
9290.896809	5136.801667	1435.816406	28.937857
9290.896809	5136.801667	1434.744141	2.488653
9290.896809	5136.801667	1433.670898	74.846649
9290.896809	5136.801667	1432.598633	62.099274
9290.896809	5136.801667	1431.525391	8.866105
9290.896809	5136.801667	1430.452148	66.358986
9290.896809	5136.801667	1429.378906	-8.732525
9290.896809	5136.801667	1428.304688	-55.366131
9290.896809	5136.801667	1427.231445	-25.284595
9290.896809	5136.801667	1426.157227	10.229911
9290.896809	5136.801667	1425.083008	-23.985582
9290.896809	5136.801667	1424.007813	-109.881401
9290.896809	5136.801667	1422.933594	7.785922
9290.896809	5136.801667	1421.858398	20.927174
9290.896809	5136.801667	1420.783203	-82.690002
9290.896809	5136.801667	1419.708008	14.924957
9290.896809	5136.801667	1418.631836	5.540048
9290.896809	5136.801667	1417.555664	-20.887920
9290.896809	5136.801667	1416.479492	-19.554667
9290.896809	5136.801667	1415.403320	-74.360985
9290.896809	5136.801667	1414.327148	0.574790
9290.896809	5136.801667	1413.250000	-141.480255
9290.896809	5136.801667	1412.173828	47.889427
9290.896809	5136.801667	1411.096680	-37.045742
9290.896809	5136.801667	1410.018555	14.030759
9290.896809	5136.801667	1408.941406	-21.989031
9290.896809	5136.801667	1407.863281	-52.355621
9290.896809	5136.801667	1406.785156	1.333458
9290.896809	5136.801667	1405.707031	5.590487
9290.896809	5136.801667	1404.628906	-44.192863
9290.896809	5136.801667	1403.549805	38.981792
9290.896809	5136.801667	1402.470703	-49.745338
9290.896809	5136.801667	1401.391602	11.787670
9290.896809	5136.801667	1400.312500	49.301102
9290.896809	5136.801667	1399.233398	-3.503319
9290.896809	5136.801667	1398.153320	-87.833199
9290.896809	5136.801667	1397.073242	12.817559
9290.896809	5136.801667	1395.993164	-8.703574
9290.896809	5136.801667	1394.913086	66.784370
9290.896809	5136.801667	1393.832031	22.970318
9290.896809	5136.801667	1392.750977	40.772663
9290.896809	5136.801667	1391.669922	34.201714
9290.896809	5136.801667	1390.588867	-8.402151
9290.896809	5136.801667	1389.506836	-15.964689
9290.896809	5136.801667	1388.425781	149.909988
9290.896809	5136.801667	1387.343750	47.900326
9290.896809	5136.801667	1386.261719	26.240311
9290.896809	5136.801667	1385.178711	-12.666917
9290.896809	5136.801667	1384.096680	12.193789
9290.896809	5136.801667	1383.013672	-49.491673
9290.896809	5136.801667	1381.930664	29.352646
9290.896809	5136.801667	1380.846680	-41.464539
9290.896809	5136.801667	1379.763672	-59.350327
9290.896809	5136.801667	1378.679688	34.531689
9290.896809	5136.801667	1377.595703	47.868717
9290.896809	5136.801667	1376.511719	29.339987
9290.896809	5136.801667	1375.427734	48.803204
9290.896809	5136.801667	1374.342773	-48.807106
9290.896809	5136.801667	1373.257813	37.868080
9290.896809	5136.801667	1372.172852	-19.560862
9290.896809	5136.801667	1371.087891	96.122406
9290.896809	5136.801667	1370.001953	33.368835
9290.896809	5136.801667	1368.916992	-15.375970
9290.896809	5136.801667	1367.831055	31.173172
9290.896809	5136.801667	1366.744141	106.678925
9290.896809	5136.801667	1365.658203	-56.080917
9290.896809	5136.801667	1364.571289	-53.434860
9290.896809	5136.801667	1363.484375	-61.774765
9290.896809	5136.801667	1362.397461	12.318566
9290.896809	5136.801667	1361.310547	-61.570374
9290.896809	5136.801667	1360.222656	92.242874
9290.896809	5136.801667	1359.135742	17.125282
9290.896809	5136.801667	1358.047852	3.382050
9290.896809	5136.801667	1356.958984	182.366257
9290.896809	5136.801667	1355.871094	50.869591
9290.896809	5136.801667	1354.782227	36.631897
9290.896809	5136.801667	1353.693359	184.254822
9290.896809	5136.801667	1352.604492	177.890472
9290.896809	5136.801667	1351.515625	98.160172
9290.896809	5136.801667	1350.425781	103.218987
9290.896809	5136.801667	1349.335938	113.464371
9290.896809	5136.801667	1348.246094	45.711033
9290.896809	5136.801667	1347.156250	98.837372
9290.896809	5136.801667	1346.066406	51.356812
9290.896809	5136.801667	1344.975586	27.976965
9290.896809	5136.801667	1343.884766	176.662842
9290.896809	5136.801667	1342.793945	100.605583
9290.896809	5136.801667	1341.702148	169.659576
9290.896809	5136.801667	1340.611328	180.353348
9290.896809	5136.801667	1339.519531	146.460114
9290.896809	5136.801667	1338.427734	257.970947
9290.896809	5136.801667	1337.334961	174.018341
9290.896809	5136.801667	1336.243164	48.146557
9290.896809	5136.801667	1335.150391	219.931686
9290.896809	5136.801667	1334.057617	205.907944
9290.896809	5136.801667	1332.964844	62.005684
9290.896809	5136.801667	1331.871094	139.191254
9290.896809	5136.801667	1330.778320	219.374710
9290.896809	5136.801667	1329.684570	124.354210
9290.896809	5136.801667	1328.590820	94.810349
9290.896809	5136.801667	1327.496094	223.855255
9290.896809	5136.801667	1326.402344	332.475281
9290.896809	5136.801667	1325.307617	264.230652
9290.896809	5136.801667	1324.212891	183.757965
9290.896809	5136.801667	1323.117188	223.593460
9290.896809	5136.801667	1322.022461	272.096924
9290.896809	5136.801667	1320.926758	341.558411
9290.896809	5136.801667	1319.831055	218.651306
9290.896809	5136.801667	1318.735352	281.220795
9290.896809	5136.801667	1317.638672	269.479706
9290.896809	5136.801667	1316.542969	272.181915
9290.896809	5136.801667	1315.446289	138.713135
9290.896809	5136.801667	1314.349609	156.758865
9290.896809	5136.801667	1313.251953	118.320549
9290.896809	5136.801667	1312.155273	83.914421
9290.896809	5136.801667	1311.057617	233.901367
9290.896809	5136.801667	1309.959961	115.806679
9290.896809	5136.801667	1308.862305	127.912529
9290.896809	5136.801667	1307.763672	108.951134
9290.896809	5136.801667	1306.665039	104.511475
9290.896809	5136.801667	1305.566406	-6.675085
9290.896809	5136.801667	1304.467773	27.172163
9290.896809	5136.801667	1303.369141	13.146411
9290.896809	5136.801667	1302.269531	94.578835
9290.896809	5136.801667	1301.169922	50.054161
9290.896809	5136.801667	1300.070313	34.327698
9290.896809	5136.801667	1298.970703	31.394972
9290.896809	5136.801667	1297.870117	26.071829
9290.896809	5136.801667	1296.769531	20.230049
9290.896809	5136.801667	1295.668945	11.934253
9290.896809	5136.801667	1294.568359	73.699493
9290.896809	5136.801667	1293.466797	135.433716
9290.896809	5136.801667	1292.366211	89.758072
9290.896809	5136.801667	1291.264648	14.667728
9290.896809	5136.801667	1290.162109	16.508581
9290.896809	5136.801667	1289.060547	150.342865
9290.896809	5136.801667	1287.958008	138.523987
9290.896809	5136.801667	1286.855469	59.736561
9290.896809	5136.801667	1285.752930	74.848671
9290.896809	5136.801667	1284.650391	32.025990
9290.896809	5136.801667	1283.546875	-23.081982
9290.896809	5136.801667	1282.444336	-0.977376
9290.896809	5136.801667	1281.339844	17.545835
9290.896809	5136.801667	1280.236328	14.633237
9290.896809	5136.801667	1279.132813	85.840828
9290.896809	5136.801667	1278.028320	48.852093
9290.896809	5136.801667	1276.923828	68.509254
9290.896809	5136.801667	1275.819336	-9.207316
9290.896809	5136.801667	1274.713867	-65.418304
9290.896809	5136.801667	1273.608398	-3.176793
9290.896809	5136.801667	1272.503906	-29.291780
9290.896809	5136.801667	1271.397461	-58.958519
9290.896809	5136.801667	1270.291992	-15.260045
9290.896809	5136.801667	1269.185547	-33.264194
9290.896809	5136.801667	1268.080078	17.467972
9290.896809	5136.801667	1266.972656	-51.577034
9290.896809	5136.801667	1265.866211	-25.422567
9290.896809	5136.801667	1264.759766	-0.715130
9290.896809	5136.801667	1263.652344	-18.329199
9290.896809	5136.801667	1262.544922	-38.519161
9290.896809	5136.801667	1261.436523	-32.704891
9290.896809	5136.801667	1260.329102	-11.857530
9290.896809	5136.801667	1259.220703	46.257282
9290.896809	5136.801667	1258.112305	-21.170807
9290.896809	5136.801667	1257.003906	-27.558659
9290.896809	5136.801667	1255.895508	70.284523
9290.896809	5136.801667	1254.786133	13.364946
9290.896809	5136.801667	1253.676758	70.122467
9290.896809	5136.801667	1252.567383	-27.979662
9290.896809	5136.801667	1251.458008	-4.806070
9290.896809	5136.801667	1250.347656	-48.449867
9290.896809	5136.801667	1249.237305	-12.111148
9290.896809	5136.801667	1248.126953	-49.232906
9290.896809	5136.801667	1247.016602	-15.556242
9290.896809	5136.801667	1245.905273	10.757165
9290.896809	5136.801667	1244.793945	11.538187
9290.896809	5136.801667	1243.682617	-13.617360
9290.896809	5136.801667	1242.571289	77.720566
9290.896809	5136.801667	1241.459961	6.502026
9290.896809	5136.801667	1240.347656	-32.073292
9290.896809	5136.801667	1239.235352	-27.981451
9290.896809	5136.801667	1238.123047	79.130928
9290.896809	5136.801667	1237.009766	74.091003
9290.896809	5136.801667	1235.897461	84.078285
9290.896809	5136.801667	1234.784180	99.880768
9290.896809	5136.801667	1233.670898	73.471077
9290.896809	5136.801667	1232.556641	16.762333
9290.896809	5136.801667	1231.443359	71.351219
9290.896809	5136.801667	1230.329102	6.548984
9290.896809	5136.801667	1229.214844	22.198086
9290.896809	5136.801667	1228.099609	52.553959
9290.896809	5136.801667	1226.985352	137.311127
9290.896809	5136.801667	1225.870117	24.497194
9290.896809	5136.801667	1224.754883	54.299324
9290.896809	5136.801667	1223.639648	126.706627
9290.896809	5136.801667	1222.523438	134.922806
9290.896809	5136.801667	1221.408203	97.509491
9290.896809	5136.801667	1220.291992	154.053955
9290.896809	5136.801667	1219.174805	153.417862
9290.896809	5136.801667	1218.058594	139.860825
9290.896809	5136.801667	1216.941406	115.801170
9290.896809	5136.801667	1215.824219	201.704071
9290.896809	5136.801667	1214.707031	125.533989
9290.896809	5136.801667	1213.589844	96.036125
9290.896809	5136.801667	1212.471680	34.442066
9290.896809	5136.801667	1211.353516	33.527012
9290.896809	5136.801667	1210.235352	36.496380
9290.896809	5136.801667	1209.117188	30.639324
9290.896809	5136.801667	1207.998047	41.221146
9290.896809	5136.801667	1206.878906	-45.857738
9290.896809	5136.801667	1205.759766	63.972343
9290.896809	5136.801667	1204.640625	-50.916943
9290.896809	5136.801667	1203.520508	-46.909924
9290.896809	5136.801667	1202.401367	-13.465443
9290.896809	5136.801667	1201.281250	-49.586632
9290.896809	5136.801667	1200.160156	-3.656440
9290.896809	5136.801667	1199.040039	-5.409133
9290.896809	5136.801667	1197.918945	85.234467
9290.896809	5136.801667	1196.797852	2.817784
9290.896809	5136.801667	1195.676758	13.095554
9290.896809	5136.801667	1194.555664	-34.609138
9290.896809	5136.801667	1193.433594	78.252022
9290.896809	5136.801667	1192.311523	-16.077843
9290.896809	5136.801667	1191.189453	35.983635
9290.896809	5136.801667	1190.066406	24.510170
9290.896809	5136.801667	1188.944336	46.322853
9290.896809	5136.801667	1187.821289	54.520943
9290.896809	5136.801667	1186.698242	103.416145
9290.896809	5136.801667	1185.574219	32.841225
9290.896809	5136.801667	1184.451172	103.425842
9290.896809	5136.801667	1183.327148	19.834211
9290.896809	5136.801667	1182.203125	14.979111
9290.896809	5136.801667	1181.078125	38.740185
9290.896809	5136.801667	1179.954102	29.065193
9290.896809	5136.801667	1178.829102	33.110069
9290.896809	5136.801667	1177.704102	-34.071308
9290.896809	5136.801667	1176.579102	10.934474
9290.896809	5136.801667	1175.453125	-51.565189
9290.896809	5136.801667	1174.327148	11.550708
9290.896809	5136.801667	1173.201172	10.877715
9290.896809	5136.801667	1172.075195	21.413477
9290.896809	5136.801667	1170.949219	-22.466429
9290.896809	5136.801667	1169.822266	39.442852
9290.896809	5136.801667	1168.695313	38.641964
9290.896809	5136.801667	1167.568359	-29.080671
9290.896809	5136.801667	1166.440430	-27.308285
9290.896809	5136.801667	1165.313477	-22.036020
9290.896809	5136.801667	1164.185547	4.293948
9290.896809	5136.801667	1163.057617	14.548470
9290.896809	5136.801667	1161.928711	11.048375
9290.896809	5136.801667	1160.800781	-20.310125
9290.896809	5136.801667	1159.671875	81.510529
9290.896809	5136.801667	1158.541992	102.657654
9290.896809	5136.801667	1157.413086	45.903671
9290.896809	5136.801667	1156.283203	7.169209
9290.896809	5136.801667	1155.154297	23.117085
9290.896809	5136.801667	1154.023438	20.044308
9290.896809	5136.801667	1152.893555	54.362797
9290.896809	5136.801667	1151.763672	145.245178
9290.896809	5136.801667	1150.632813	76.805504
9290.896809	5136.801667	1149.501953	128.989243
9290.896809	5136.801667	1148.370117	70.015884
9290.896809	5136.801667	1147.239258	121.546333
9290.896809	5136.801667	1146.107422	189.136688
9290.896809	5136.801667	1144.975586	103.280273
9290.896809	5136.801667	1143.843750	82.881737
9290.896809	5136.801667	1142.710938	44.679855
9290.896809	5136.801667	1141.578125	139.054214
9290.896809	5136.801667	1140.445313	68.050301
9290.896809	5136.801667	1139.312500	69.706085
9290.896809	5136.801667	1138.178711	115.793282
9290.896809	5136.801667	1137.045898	3.874933
9290.896809	5136.801667	1135.912109	19.381121
9290.896809	5136.801667	1134.777344	16.955736
9290.896809	5136.801667	1133.643555	21.862280
9290.896809	5136.801667	1132.508789	13.713921
9290.896809	5136.801667	1131.374023	83.330452
9290.896809	5136.801667	1130.239258	66.330872
9290.896809	5136.801667	1129.104492	16.092731
9290.896809	5136.801667	1127.968750	4.317673
9290.896809	5136.801667	1126.833008	-39.079525
9290.896809	5136.801667	1125.697266	46.293587
9290.896809	5136.801667	1124.560547	21.470173
9290.896809	5136.801667	1123.424805	6.393991
9290.896809	5136.801667	1122.288086	57.465252
9290.896809	5136.801667	1121.151367	20.189585
9290.896809	5136.801667	1120.013672	11.562793
9290.896809	5136.801667	1118.876953	10.592388
9290.896809	5136.801667	1117.739258	26.639978
9290.896809	5136.801667	1116.601563	29.755646
9290.896809	5136.801667	1115.462891	8.902709
9290.896809	5136.801667	1114.324219	-51.335289
9290.896809	5136.801667	1113.186523	30.451628
9290.896809	5136.801667	1112.046875	51.780830
9290.896809	5136.801667	1110.908203	-9.104792
9290.896809	5136.801667	1109.769531	-97.192856
9290.896809	5136.801667	1108.629883	-43.543270
9290.896809	5136.801667	1107.490234	-48.020691
9290.896809	5136.801667	1106.349609	-99.115700
9290.896809	5136.801667	1105.209961	-48.705643
9290.896809	5136.801667	1104.069336	9.780191
9290.896809	5136.801667	1102.928711	20.615841
9290.896809	5136.801667	1101.787109	-25.090172
9290.896809	5136.801667	1100.646484	37.085152
9290.896809	5136.801667	1099.504883	40.843826
9290.896809	5136.801667	1098.363281	22.736042
9290.896809	5136.801667	1097.221680	36.355202
9290.896809	5136.801667	1096.079102	-28.260513
9290.896809	5136.801667	1094.936523	50.095123
9290.896809	5136.801667	1093.793945	3.984257
9290.896809	5136.801667	1092.651367	25.986626
9290.896809	5136.801667	1091.507813	23.602058
9290.896809	5136.801667	1090.364258	1.129583
9290.896809	5136.801667	1089.220703	0.827403
9290.896809	5136.801667	1088.077148	6.504748
9290.896809	5136.801667	1086.933594	16.438623
9290.896809	5136.801667	1085.789063	-15.404374
9290.896809	5136.801667	1084.644531	-36.012283
9290.896809	5136.801667	1083.499023	-69.744934
9290.896809	5136.801667	1082.354492	-37.272839
9290.896809	5136.801667	1081.208984	41.474472
9290.896809	5136.801667	1080.063477	51.475296
9290.896809	5136.801667	1078.917969	3.525455
9290.896809	5136.801667	1077.771484	31.648623
9290.896809	5136.801667	1076.625977	-20.351252
9290.896809	5136.801667	1075.479492	20.284939
9290.896809	5136.801667	1074.332031	-71.230019
9290.896809	5136.801667	1073.185547	-69.845787
9290.896809	5136.801667	1072.038086	72.197426
9290.896809	5136.801667	1070.890625	-18.539232
9290.896809	5136.801667	1069.743164	-21.622723
9290.896809	5136.801667	1068.594727	35.830189
9290.896809	5136.801667	1067.447266	-32.043385
9290.896809	5136.801667	1066.298828	-103.039162
9290.896809	5136.801667	1065.149414	12.644776
9290.896809	5136.801667	1064.000977	-5.562179
9290.896809	5136.801667	1062.851563	-71.957733
9290.896809	5136.801667	1061.702148	-82.501167
9290.896809	5136.801667	1060.552734	106.451263
9290.896809	5136.801667	1059.402344	-23.023415
9290.896809	5136.801667	1058.252930	31.495504
9290.896809	5136.801667	1057.102539	25.319361
9290.896809	5136.801667	1055.951172	-33.432545
9290.896809	5136.801667	1054.800781	17.017982
9290.896809	5136.801667	1053.649414	-80.394730
9290.896809	5136.801667	1052.498047	-34.607403
9290.896809	5136.801667	1051.346680	13.555203
9290.896809	5136.801667	1050.194336	27.756725
9290.896809	5136.801667	1049.042969	58.656563
9290.896809	5136.801667	1047.890625	45.866936
9290.896809	5136.801667	1046.738281	46.678715
9290.896809	5136.801667	1045.584961	-4.090441
9290.896809	5136.801667	1044.431641	0.063243
9290.896809	5136.801667	1043.278320	-14.720619
9290.896809	5136.801667	1042.125000	-34.900314
9290.896809	5136.801667	1040.971680	19.860306
9290.896809	5136.801667	1039.817383	48.168900
9290.896809	5136.801667	1038.663086	54.456787
9290.896809	5136.801667	1037.508789	27.836254
9290.896809	5136.801667	1036.353516	45.865852
9290.896809	5136.801667	1035.198242	-39.862408
9290.896809	5136.801667	1034.042969	48.272785
9290.896809	5136.801667	1032.887695	114.848068
9290.896809	5136.801667	1031.732422	102.792625
9290.896809	5136.801667	1030.576172	86.330017
9290.896809	5136.801667	1029.419922	74.218071
9290.896809	5136.801667	1028.263672	108.582993
9290.896809	5136.801667	1027.106445	3.660279
9290.896809	5136.801667	1025.949219	-16.409630
9290.896809	5136.801667	1024.792969	-19.340258
9290.896809	5136.801667	1023.634766	37.770889
9290.896809	5136.801667	1022.477539	-0.992122
9290.896809	5136.801667	1021.319336	104.344818
9290.896809	5136.801667	1020.161133	10.292809
9290.896809	5136.801667	1019.002930	12.124804
9290.896809	5136.801667	1017.843750	37.777157
9290.896809	5136.801667	1016.684570	20.207293
9290.896809	5136.801667	1015.525391	-38.015938
9290.896809	5136.801667	1014.366211	57.180229
9290.896809	5136.801667	1013.207031	18.038231
9290.896809	5136.801667	1012.046875	-31.734625
9290.896809	5136.801667	1010.886719	2.364559
9290.896809	5136.801667	1009.726563	-29.931541
9290.896809	5136.801667	1008.565430	86.937630
9290.896809	5136.801667	1007.404297	-58.525726
9290.896809	5136.801667	1006.243164	22.346376
9290.896809	5136.801667	1005.082031	15.573240
9290.896809	5136.801667	1003.920898	-29.634174
9290.896809	5136.801667	1002.758789	40.628151
9290.896809	5136.801667	1001.596680	86.288010
9290.896809	5136.801667	1000.433594	162.573135
9290.896809	5136.801667	999.271484	149.997375
9290.896809	5136.801667	998.108398	125.845001
9290.896809	5136.801667	996.945313	87.494316
9290.896809	5136.801667	995.782227	124.946556
9290.896809	5136.801667	994.618164	114.959206
9290.896809	5136.801667	993.454102	101.141777
9290.896809	5136.801667	992.290039	299.218933
9290.896809	5136.801667	991.125977	182.520264
9290.896809	5136.801667	989.960938	283.008789
9290.896809	5136.801667	988.796875	193.220062
9290.896809	5136.801667	987.630859	228.894302
9290.896809	5136.801667	986.465820	190.966156
9290.896809	5136.801667	985.300781	138.815857
9290.896809	5136.801667	984.134766	171.221344
9290.896809	5136.801667	982.968750	138.536102
9290.896809	5136.801667	981.801758	114.816109
9290.896809	5136.801667	980.635742	175.345566
9290.896809	5136.801667	979.468750	201.335251
9290.896809	5136.801667	978.301758	128.572281
9290.896809	5136.801667	977.133789	72.755203
9290.896809	5136.801667	975.966797	42.128731
9290.896809	5136.801667	974.798828	56.975094
9290.896809	5136.801667	973.630859	80.576355
9290.896809	5136.801667	972.461914	28.902740
9290.896809	5136.801667	971.293945	63.453682
9290.896809	5136.801667	970.125000	14.056759
9290.896809	5136.801667	968.956055	87.047295
9290.896809	5136.801667	967.786133	10.522924
9290.896809	5136.801667	966.617188	0.328134
9290.896809	5136.801667	965.447266	66.539207
9290.896809	5136.801667	964.276367	60.580265
9290.896809	5136.801667	963.106445	4.923048
9290.896809	5136.801667	961.935547	-58.070564
9290.896809	5136.801667	960.764648	18.481468
9290.896809	5136.801667	959.593750	30.156853
9290.896809	5136.801667	958.422852	-84.086571
9290.896809	5136.801667	957.250977	-33.905872
9290.896809	5136.801667	956.079102	-36.292767
9290.896809	5136.801667	954.907227	-69.181496
9290.896809	5136.801667	953.734375	-18.238192
9290.896809	5136.801667	952.562500	33.317402
9290.896809	5136.801667	951.389648	58.471050
9290.896809	5136.801667	950.215820	-30.066246
9290.896809	5136.801667	949.042969	-2.643578
9290.896809	5136.801667	947.869141	81.070236
9290.896809	5136.801667	946.695313	68.945137
9290.896809	5136.801667	945.521484	43.139168
9290.896809	5136.801667	944.346680	-33.965755
9290.896809	5136.801667	943.172852	52.154411
9290.896809	5136.801667	941.998047	14.538777
9290.896809	5136.801667	940.822266	14.289224
9290.896809	5136.801667	939.647461	32.678623
9290.896809	5136.801667	938.471680	-77.220268
9290.896809	5136.801667	937.295898	13.240159
9290.896809	5136.801667	936.119141	-40.610729
9290.896809	5136.801667	934.943359	45.236572
9290.896809	5136.801667	933.766602	33.238567
9290.896809	5136.801667	932.589844	77.152260
9290.896809	5136.801667	931.413086	58.111286
9290.896809	5136.801667	930.235352	-5.098209
9290.896809	5136.801667	929.057617	-10.112271
9290.896809	5136.801667	927.879883	10.452017
9290.896809	5136.801667	926.702148	93.855988
9290.896809	5136.801667	925.523438	-11.256577
9290.896809	5136.801667	924.344727	13.938267
9290.896809	5136.801667	923.166016	22.837845
9290.896809	5136.801667	921.987305	3.819705
9290.896809	5136.801667	920.807617	91.756363
9290.896809	5136.801667	919.627930	91.863396
9290.896809	5136.801667	919.497070	79.703743
9290.896809	5136.801667	918.331055	30.450079
9290.896809	5136.801667	917.165039	106.687004
9290.896809	5136.801667	915.999023	129.452942
9290.896809	5136.801667	914.833008	12.840062
9290.896809	5136.801667	913.666016	-15.486691
9290.896809	5136.801667	912.499023	14.235663
9290.896809	5136.801667	911.332031	20.726715
9290.896809	5136.801667	910.165039	92.191895
9290.896809	5136.801667	908.997070	-12.724848
9290.896809	5136.801667	907.830078	14.628119
9290.896809	5136.801667	906.661133	18.769806
9290.896809	5136.801667	905.493164	-11.879854
9290.896809	5136.801667	904.325195	66.444908
9290.896809	5136.801667	903.156250	58.966373
9290.896809	5136.801667	901.987305	30.627760
9290.896809	5136.801667	900.818359	88.025848
9290.896809	5136.801667	899.648438	57.365341
9290.896809	5136.801667	898.478516	-1.080955
9290.896809	5136.801667	897.308594	-24.774109
9290.896809	5136.801667	896.138672	67.295265
9290.896809	5136.801667	894.968750	80.622643
9290.896809	5136.801667	893.797852	-17.142227
9290.896809	5136.801667	892.626953	84.109909
9290.896809	5136.801667	891.456055	30.326916
9290.896809	5136.801667	890.284180	8.940759
9290.896809	5136.801667	889.113281	29.180613
9290.896809	5136.801667	887.941406	56.343399
9290.896809	5136.801667	886.768555	-4.341292
9290.896809	5136.801667	885.596680	-39.585426
9290.896809	5136.801667	884.423828	61.496765
9290.896809	5136.801667	883.250977	100.164711
9290.896809	5136.801667	882.078125	32.576481
9290.896809	5136.801667	880.905273	15.810555
9290.896809	5136.801667	879.731445	-24.037312
9290.896809	5136.801667	878.557617	63.071861
9290.896809	5136.801667	877.383789	7.070559
9290.896809	5136.801667	876.209961	4.153224
9290.896809	5136.801667	875.035156	24.300371
9290.896809	5136.801667	873.860352	62.885704
9290.896809	5136.801667	872.685547	59.949615
9290.896809	5136.801667	871.510742	52.401394
9290.896809	5136.801667	870.334961	-49.641739
9290.896809	5136.801667	869.159180	18.872152
9290.896809	5136.801667	867.983398	91.963196
9290.896809	5136.801667	866.807617	8.393944
9290.896809	5136.801667	865.630859	118.298706
9290.896809	5136.801667	864.454102	30.149094
9290.896809	5136.801667	863.277344	29.507233
9290.896809	5136.801667	862.100586	88.701836
9290.896809	5136.801667	860.922852	-6.296377
9290.896809	5136.801667	859.745117	48.276455
9290.896809	5136.801667	858.567383	112.025665
9290.896809	5136.801667	857.389648	37.772388
9290.896809	5136.801667	856.210938	145.177780
9290.896809	5136.801667	855.032227	-46.285080
9290.896809	5136.801667	853.853516	-33.134151
9290.896809	5136.801667	852.674805	115.574516
9290.896809	5136.801667	851.495117	96.523537
9290.896809	5136.801667	850.315430	79.776581
9290.896809	5136.801667	849.135742	79.109383
9290.896809	5136.801667	847.956055	48.596252
9290.896809	5136.801667	846.775391	36.457649
9290.896809	5136.801667	845.595703	77.105484
9290.896809	5136.801667	844.415039	103.969589
9290.896809	5136.801667	843.233398	-9.106923
9290.896809	5136.801667	842.052734	-16.638180
9290.896809	5136.801667	840.871094	-42.510754
9290.896809	5136.801667	839.689453	50.837555
9290.896809	5136.801667	838.506836	77.678467
9290.896809	5136.801667	837.325195	-71.941605
9290.896809	5136.801667	836.142578	-54.250530
9290.896809	5136.801667	834.959961	61.929836
9290.896809	5136.801667	833.777344	-50.951439
9290.896809	5136.801667	832.593750	-51.592125
9290.896809	5136.801667	831.410156	-43.075047
9290.896809	5136.801667	830.226563	50.122089
9290.896809	5136.801667	829.042969	154.722748
9290.896809	5136.801667	827.858398	69.394653
9290.896809	5136.801667	826.673828	75.595245
9290.896809	5136.801667	825.489258	42.917862
9290.896809	5136.801667	824.304688	-17.181614
9290.896809	5136.801667	823.120117	-24.679424
9290.896809	5136.801667	821.934570	-41.314842
9290.896809	5136.801667	820.749023	-37.377743
9290.896809	5136.801667	819.562500	3.110860
9290.896809	5136.801667	818.376953	-20.368084
9290.896809	5136.801667	817.190430	-52.970188
9290.896809	5136.801667	816.003906	-21.631340
9290.896809	5136.801667	814.817383	-56.499424
9290.896809	5136.801667	813.629883	-41.144524
9290.896809	5136.801667	812.442383	44.936920
9290.896809	5136.801667	811.254883	37.455910
9290.896809	5136.801667	810.067383	7.172752
9290.896809	5136.801667	808.878906	-50.458950
9290.896809	5136.801667	807.690430	-28.272806
9290.896809	5136.801667	806.501953	-38.004360
9290.896809	5136.801667	805.313477	29.750492
9290.896809	5136.801667	804.124023	6.345013
9290.896809	5136.801667	802.934570	85.456322
9290.896809	5136.801667	801.745117	-35.875504
9290.896809	5136.801667	800.555664	15.893051
9290.896809	5136.801667	799.365234	17.559824
9290.896809	5136.801667	798.175781	35.160122
9290.896809	5136.801667	796.985352	-1.857142
9290.896809	5136.801667	795.793945	-20.655985
9290.896809	5136.801667	794.603516	-43.994083
9290.896809	5136.801667	793.412109	-26.385656
9290.896809	5136.801667	792.220703	23.048777
9290.896809	5136.801667	791.028320	79.285034
9290.896809	5136.801667	789.836914	137.773193
9290.896809	5136.801667	788.644531	103.078125
9290.896809	5136.801667	787.452148	147.911835
9290.896809	5136.801667	786.258789	36.010384
9290.896809	5136.801667	785.066406	78.574066
9290.896809	5136.801667	783.873047	3.064510
9290.896809	5136.801667	782.679688	18.384115
9290.896809	5136.801667	781.485352	40.508465
9290.896809	5136.801667	780.291992	128.425659
9290.896809	5136.801667	779.097656	214.040451
9290.896809	5136.801667	777.903320	134.059189
9290.896809	5136.801667	776.708008	90.394211
9290.896809	5136.801667	775.512695	92.091446
9290.896809	5136.801667	774.318359	89.257362
9290.896809	5136.801667	773.122070	127.217628
9290.896809	5136.801667	771.926758	36.023529
9290.896809	5136.801667	770.730469	112.492455
9290.896809	5136.801667	769.534180	175.344620
9290.896809	5136.801667	768.337891	100.055611
9290.896809	5136.801667	767.141602	219.483582
9290.896809	5136.801667	765.944336	187.224960
9290.896809	5136.801667	764.747070	125.565895
9290.896809	5136.801667	763.549805	330.892090
9290.896809	5136.801667	762.351563	260.187225
9290.896809	5136.801667	761.154297	227.958313
9290.896809	5136.801667	759.956055	288.443909
9290.896809	5136.801667	758.757813	217.800476
9290.896809	5136.801667	757.558594	210.468948
9290.896809	5136.801667	756.359375	223.479050
9290.896809	5136.801667	755.160156	204.859833
9290.896809	5136.801667	753.960938	217.871277
9290.896809	5136.801667	752.761719	208.298981
9290.896809	5136.801667	751.561523	131.004333
9290.896809	5136.801667	750.361328	315.575623
9290.896809	5136.801667	749.160156	206.702530
9290.896809	5136.801667	747.959961	165.563950
9290.896809	5136.801667	746.758789	219.186996
9290.896809	5136.801667	745.557617	108.154617
9290.896809	5136.801667	744.356445	130.205048
9290.896809	5136.801667	743.154297	215.370300
9290.896809	5136.801667	741.952148	154.000839
9290.896809	5136.801667	740.750000	232.370575
9290.896809	5136.801667	739.547852	164.269257
9290.896809	5136.801667	738.344727	120.975693
9290.896809	5136.801667	737.142578	34.914768
9290.896809	5136.801667	735.939453	104.246964
9290.896809	5136.801667	734.735352	76.757393
9290.896809	5136.801667	733.532227	89.791809
9290.896809	5136.801667	732.328125	64.570992
9290.896809	5136.801667	731.124023	7.867782
9290.896809	5136.801667	729.918945	29.911436
9290.896809	5136.801667	728.714844	87.926590
9290.896809	5136.801667	727.509766	157.160904
9290.896809	5136.801667	726.303711	44.299633
9290.896809	5136.801667	725.098633	122.506584
9290.896809	5136.801667	723.892578	88.341942
9290.896809	5136.801667	722.686523	191.220093
9290.896809	5136.801667	721.480469	150.320892
9290.896809	5136.801667	720.274414	57.795654
9290.896809	5136.801667	719.067383	66.332863
9290.896809	5136.801667	717.860352	-5.932875
9290.896809	5136.801667	716.653320	34.032784
9290.896809	5136.801667	715.445313	73.982788
9290.896809	5136.801667	714.238281	10.736696
9290.896809	5136.801667	713.030273	26.008730
9290.896809	5136.801667	711.821289	32.306625
9290.896809	5136.801667	710.613281	4.978240
9290.896809	5136.801667	709.404297	69.550308
9290.896809	5136.801667	708.195313	-0.346256
9290.896809	5136.801667	706.986328	70.921761
9290.896809	5136.801667	705.776367	-1.184197
9290.896809	5136.801667	704.566406	18.551497
9290.896809	5136.801667	703.356445	38.279140
9290.896809	5136.801667	702.146484	-0.198378
9290.896809	5136.801667	700.935547	19.525448
9290.896809	5136.801667	699.724609	-45.780537
9290.896809	5136.801667	698.513672	-55.135719
9290.896809	5136.801667	697.302734	2.607271
9290.896809	5136.801667	696.090820	20.077833
9290.896809	5136.801667	694.878906	93.429085
9290.896809	5136.801667	693.666992	70.641144
9290.896809	5136.801667	692.455078	146.184631
9290.896809	5136.801667	691.242188	22.858597
9290.896809	5136.801667	690.029297	176.557144
9290.896809	5136.801667	688.816406	77.839958
9290.896809	5136.801667	687.602539	99.730255
9290.896809	5136.801667	686.389648	56.874931
9290.896809	5136.801667	685.175781	-48.453209
9290.896809	5136.801667	683.960938	120.712769
9290.896809	5136.801667	682.747070	60.029774
9290.896809	5136.801667	681.532227	101.967880
9290.896809	5136.801667	680.317383	59.150650
9290.896809	5136.801667	679.102539	141.197601
9290.896809	5136.801667	677.886719	40.433685
9290.896809	5136.801667	676.670898	64.505898
9290.896809	5136.801667	675.455078	66.285469
9290.896809	5136.801667	674.239258	3.463203
9290.896809	5136.801667	673.022461	38.657001
9290.896809	5136.801667	671.805664	15.941613
9290.896809	5136.801667	670.588867	53.339138
9290.896809	5136.801667	669.372070	50.656109
9290.896809	5136.801667	668.154297	50.196934
9290.896809	5136.801667	666.936523	143.174057
9290.896809	5136.801667	665.718750	4.785136
9290.896809	5136.801667	664.500977	33.236588
9290.896809	5136.801667	663.282227	83.906052
9290.896809	5136.801667	662.063477	130.105118
9290.896809	5136.801667	660.844727	31.825859
9290.896809	5136.801667	659.625000	-35.308491
9290.896809	5136.801667	658.405273	-24.667248
9290.896809	5136.801667	657.185547	12.617639
9290.896809	5136.801667	655.965820	-56.701748
9290.896809	5136.801667	654.745117	44.947529
9290.896809	5136.801667	653.525391	-77.627373
9290.896809	5136.801667	652.303711	-15.968660
9290.896809	5136.801667	651.083008	96.688309
9290.896809	5136.801667	649.861328	-56.886967
9290.896809	5136.801667	648.640625	-26.333094
9290.896809	5136.801667	647.417969	-44.575623
9290.896809	5136.801667	646.196289	41.372784
9290.896809	5136.801667	644.973633	-30.077036
9290.896809	5136.801667	643.750977	24.800365
9290.896809	5136.801667	642.528320	-24.472414
9290.896809	5136.801667	641.305664	41.444855
9290.896809	5136.801667	640.082031	7.679752
9290.896809	5136.801667	638.858398	-101.350601
9290.896809	5136.801667	637.634766	-59.823551
9290.896809	5136.801667	636.410156	61.348675
9290.896809	5136.801667	635.185547	20.947962
9290.896809	5136.801667	633.960938	4.891444
9290.896809	5136.801667	632.736328	68.453682
9290.896809	5136.801667	631.510742	-69.230934
9290.896809	5136.801667	630.285156	-7.902953
9290.896809	5136.801667	629.059570	18.029564
9290.896809	5136.801667	627.833984	-90.849007
9290.896809	5136.801667	626.607422	76.469994
9290.896809	5136.801667	625.380859	0.744072
9290.896809	5136.801667	624.154297	134.834702
9290.896809	5136.801667	622.927734	54.699337
9290.896809	5136.801667	621.700195	98.204987
9290.896809	5136.801667	620.472656	33.545975
9290.896809	5136.801667	619.245117	43.926796
9290.896809	5136.801667	618.016602	7.970094
9290.896809	5136.801667	616.788086	31.570633
9290.896809	5136.801667	615.559570	112.485168
9290.896809	5136.801667	614.331055	14.786874
9290.896809	5136.801667	613.101563	3.082983
9290.896809	5136.801667	611.872070	4.598128
9290.896809	5136.801667	610.642578	-0.504187
9290.896809	5136.801667	609.413086	-27.639315
9290.896809	5136.801667	608.182617	-4.119218
9290.896809	5136.801667	606.952148	81.032715
9290.896809	5136.801667	605.721680	91.296165
9290.896809	5136.801667	604.491211	-21.699539
9290.896809	5136.801667	603.259766	-66.443863
9290.896809	5136.801667	602.028320	115.412392
9290.896809	5136.801667	600.796875	28.852333
9290.896809	5136.801667	599.564453	-44.485592
9290.896809	5136.801667	598.332031	-14.470899
9290.896809	5136.801667	597.099609	-2.061890
9290.896809	5136.801667	595.867188	80.655701
9290.896809	5136.801667	594.633789	11.729968
9290.896809	5136.801667	593.400391	6.527033
9290.896809	5136.801667	592.166992	58.418194
9290.896809	5136.801667	590.933594	18.059664
9290.896809	5136.801667	589.699219	45.761253
9290.896809	5136.801667	588.464844	9.794627
9290.896809	5136.801667	587.230469	22.108976
9290.896809	5136.801667	585.995117	43.184509
9290.896809	5136.801667	584.760742	2.828562
9290.896809	5136.801667	583.525391	-33.133194
9290.896809	5136.801667	582.289063	36.147343
9290.896809	5136.801667	581.053711	24.287632
9290.896809	5136.801667	579.817383	95.700218
9290.896809	5136.801667	578.581055	103.534271
9290.896809	5136.801667	577.343750	14.971405
9290.896809	5136.801667	576.107422	64.413300
9290.896809	5136.801667	574.870117	30.619390
9290.896809	5136.801667	573.631836	128.179749
9290.896809	5136.801667	572.394531	-1.932836
9290.896809	5136.801667	571.156250	73.692886
9290.896809	5136.801667	569.917969	90.208618
9290.896809	5136.801667	568.679688	14.842638
9290.896809	5136.801667	567.440430	-14.577246
9290.896809	5136.801667	566.202148	1.920129
9290.896809	5136.801667	564.961914	-38.431637
9290.896809	5136.801667	563.722656	-13.212278
9290.896809	5136.801667	562.482422	55.686409
9290.896809	5136.801667	561.243164	124.546928
9290.896809	5136.801667	560.001953	29.568155
9290.896809	5136.801667	558.761719	76.552025
9290.896809	5136.801667	557.520508	-18.393044
9290.896809	5136.801667	556.279297	43.841774
9290.896809	5136.801667	555.038086	-13.976380
9290.896809	5136.801667	553.795898	13.306676
9290.896809	5136.801667	552.554688	44.932789
9290.896809	5136.801667	551.311523	100.524055
9290.896809	5136.801667	550.069336	-0.895994
9290.896809	5136.801667	548.826172	-54.325455
9290.896809	5136.801667	547.583984	-5.310514
9290.896809	5136.801667	546.339844	-32.586559
9290.896809	5136.801667	545.096680	-62.036457
9290.896809	5136.801667	543.852539	43.550144
9290.896809	5136.801667	542.608398	1.015325
9290.896809	5136.801667	541.364258	8.562053
9290.896809	5136.801667	540.119141	57.451897
9290.896809	5136.801667	538.875000	12.742295
9290.896809	5136.801667	537.628906	70.296875
9290.896809	5136.801667	536.383789	36.463863
9290.896809	5136.801667	535.137695	9.161560
9290.896809	5136.801667	533.892578	68.832710
9290.896809	5136.801667	532.645508	13.261540
9290.896809	5136.801667	531.399414	51.158901
9290.896809	5136.801667	530.152344	-30.472715
9290.896809	5136.801667	528.905273	-116.420532
9290.896809	5136.801667	527.658203	49.599991
9290.896809	5136.801667	526.410156	-107.998985
9290.896809	5136.801667	525.163086	3.661655
9290.896809	5136.801667	523.914063	-19.303143
9290.896809	5136.801667	522.666016	46.706745
9290.896809	5136.801667	521.416992	43.255775
9290.896809	5136.801667	520.167969	-42.625122
9290.896809	5136.801667	518.918945	-39.561554
9290.896809	5136.801667	517.669922	71.902649
9290.896809	5136.801667	516.419922	42.412792
9290.896809	5136.801667	515.169922	-21.745770
9290.896809	5136.801667	513.919922	-38.213543
9290.896809	5136.801667	512.668945	38.470440
9290.896809	5136.801667	511.417969	76.131340
9290.896809	5136.801667	510.166992	22.825436
9290.896809	5136.801667	508.916016	64.793083
9290.896809	5136.801667	507.664063	5.008658
9290.896809	5136.801667	506.412109	57.771709
9290.896809	5136.801667	505.160156	84.544998
9290.896809	5136.801667	503.907227	96.160568
9290.896809	5136.801667	502.655273	3.963739
9290.896809	5136.801667	501.402344	4.772264
9290.896809	5136.801667	500.148438	27.192209
9290.896809	5136.801667	498.895508	36.631657
9290.896809	5136.801667	497.641602	-1.473010
9290.896809	5136.801667	496.387695	-67.648651
9290.896809	5136.801667	495.132813	23.863989
9290.896809	5136.801667	493.878906	139.086761
9290.896809	5136.801667	492.624023	62.117912
9290.896809	5136.801667	491.368164	43.454582
9290.896809	5136.801667	490.113281	-20.520023
9290.896809	5136.801667	488.857422	-54.266544
9290.896809	5136.801667	487.601563	78.086838
9290.896809	5136.801667	486.344727	80.987808
9290.896809	5136.801667	485.088867	-43.322762
9290.896809	5136.801667	483.832031	-49.025272
9290.896809	5136.801667	482.575195	7.770633
9290.896809	5136.801667	481.317383	51.610767
9290.896809	5136.801667	480.059570	32.957264
9290.896809	5136.801667	478.801758	20.770144
9290.896809	5136.801667	477.543945	10.739152
9290.896809	5136.801667	476.285156	22.237217
9290.896809	5136.801667	475.027344	14.357236
9290.896809	5136.801667	473.767578	-64.535294
9290.896809	5136.801667	472.508789	-20.764559
9290.896809	5136.801667	471.249023	-7.129462
9290.896809	5136.801667	469.989258	-4.255076
9290.896809	5136.801667	468.729492	-121.785690
9290.896809	5136.801667	467.469727	53.072144
9290.896809	5136.801667	466.208984	-6.400283
9290.896809	5136.801667	464.948242	24.392876
9290.896809	5136.801667	463.686523	7.909893
9290.896809	5136.801667	462.425781	-23.601854
9290.896809	5136.801667	461.164063	-27.189428
9290.896809	5136.801667	459.901367	-50.099983
9290.896809	5136.801667	458.639648	10.703632
9290.896809	5136.801667	457.376953	-74.440689
9290.896809	5136.801667	456.114258	27.097500
9290.896809	5136.801667	454.851563	6.327828
9290.896809	5136.801667	453.587891	13.440872
9290.896809	5136.801667	452.324219	18.403458
9290.896809	5136.801667	451.060547	19.073076
9290.896809	5136.801667	449.796875	62.599674
9290.896809	5136.801667	448.532227	71.820976
9290.896809	5136.801667	447.267578	6.058965
9290.896809	5136.801667	446.002930	98.804855
9290.896809	5136.801667	444.737305	18.066710
9290.896809	5136.801667	443.471680	-43.375034
9290.896809	5136.801667	442.206055	-8.482841
9290.896809	5136.801667	440.940430	56.346233
9290.896809	5136.801667	439.673828	82.631630
9290.896809	5136.801667	438.407227	-2.323585
9290.896809	5136.801667	437.140625	8.980445
9290.896809	5136.801667	435.873047	13.857747
9290.896809	5136.801667	434.605469	57.199963
9290.896809	5136.801667	433.337891	32.129910
9290.896809	5136.801667	432.070313	56.203003
9290.896809	5136.801667	430.801758	88.800285
9290.896809	5136.801667	429.533203	-2.494795
9290.896809	5136.801667	428.264648	66.378700
9290.896809	5136.801667	426.996094	11.396981
9290.896809	5136.801667	425.726563	31.125744
9290.896809	5136.801667	424.457031	3.889806
9290.896809	5136.801667	423.186523	2.251859
9290.896809	5136.801667	421.916992	88.049942
9290.896809	5136.801667	420.646484	92.763092
9290.896809	5136.801667	419.375977	140.097870
9290.896809	5136.801667	418.104492	138.370667
9290.896809	5136.801667	416.833008	81.219650
9290.896809	5136.801667	415.561523	28.336519
9290.896809	5136.801667	414.290039	171.427582
9290.896809	5136.801667	413.017578	22.673323
9290.896809	5136.801667	411.746094	106.044716
9290.896809	5136.801667	410.472656	8.414121
9290.896809	5136.801667	409.200195	127.886230
9290.896809	5136.801667	407.926758	77.056839
9290.896809	5136.801667	406.653320	11.331931
9290.896809	5136.801667	405.379883	83.855759
9290.896809	5136.801667	404.105469	71.261696
9290.896809	5136.801667	402.831055	84.154877
9290.896809	5136.801667	401.556641	86.383484
9290.896809	5136.801667	400.282227	175.704605
9290.896809	5136.801667	399.006836	86.487663
9290.896809	5136.801667	397.731445	16.390377
9290.896809	5136.801667	396.456055	101.312492
9290.896809	5136.801667	395.179688	-4.929819
9290.896809	5136.801667	393.903320	58.650917
9290.896809	5136.801667	392.626953	47.881760
9290.896809	5136.801667	391.350586	-15.972560
9290.896809	5136.801667	390.073242	117.437698
9290.896809	5136.801667	388.795898	51.378204
9290.896809	5136.801667	387.518555	137.966522
9290.896809	5136.801667	386.240234	80.305733
9290.896809	5136.801667	384.961914	12.017128
9290.896809	5136.801667	383.683594	15.747847
9290.896809	5136.801667	382.405273	42.721142
9290.896809	5136.801667	381.125977	69.618736
9290.896809	5136.801667	379.846680	66.792244
9290.896809	5136.801667	378.567383	125.297943
9290.896809	5136.801667	377.287109	103.270294
9290.896809	5136.801667	376.006836	36.737331
9290.896809	5136.801667	374.726563	-15.031778
9290.896809	5136.801667	373.446289	66.409538
9290.896809	5136.801667	372.165039	37.757175
9290.896809	5136.801667	370.883789	-9.997814
9290.896809	5136.801667	369.602539	-21.882998
9290.896809	5136.801667	368.320313	46.456711
9290.896809	5136.801667	367.039063	11.134238
9290.896809	5136.801667	365.755859	-5.262954
9290.896809	5136.801667	364.473633	1.480510
9290.896809	5136.801667	363.190430	-6.668807
9290.896809	5136.801667	361.907227	-19.147055
9290.896809	5136.801667	360.624023	10.481133
9290.896809	5136.801667	359.340820	48.420055
9290.896809	5136.801667	358.056641	-15.054060
9290.896809	5136.801667	356.772461	-2.689719
9290.896809	5136.801667	355.487305	-32.642517
9290.896809	5136.801667	354.202148	2.644408
9290.896809	5136.801667	352.916992	-57.083469
9290.896809	5136.801667	351.631836	-28.413549
9290.896809	5136.801667	350.346680	-117.901627
9290.896809	5136.801667	349.060547	-34.766449
9290.896809	5136.801667	347.774414	18.686682
9290.896809	5136.801667	346.487305	36.151100
9290.896809	5136.801667	345.200195	40.805843
9290.896809	5136.801667	343.913086	169.464340
9290.896809	5136.801667	342.625977	110.601013
9290.896809	5136.801667	341.338867	-19.955114
9290.896809	5136.801667	340.050781	-55.999401
9290.896809	5136.801667	338.762695	-48.065987
9290.896809	5136.801667	337.473633	-61.371494
9290.896809	5136.801667	336.184570	44.931747
9290.896809	5136.801667	334.895508	104.734749
9290.896809	5136.801667	333.606445	29.815073
9290.896809	5136.801667	332.317383	51.325394
9290.896809	5136.801667	331.027344	28.476639
9290.896809	5136.801667	329.736328	57.877865
9290.896809	5136.801667	328.446289	-15.846853
9290.896809	5136.801667	327.155273	21.429173
9290.896809	5136.801667	325.864258	-42.302570
9290.896809	5136.801667	324.573242	25.882732
9290.896809	5136.801667	323.281250	-40.491062
9290.896809	5136.801667	321.989258	66.918159
9290.896809	5136.801667	320.697266	-65.026390
9290.896809	5136.801667	319.405273	-65.173843
9290.896809	5136.801667	318.112305	68.468658
9290.896809	5136.801667	316.819336	88.583908
9290.896809	5136.801667	315.526367	58.077778
9290.896809	5136.801667	314.232422	64.922691
9290.896809	5136.801667	312.938477	14.872825
9290.896809	5136.801667	311.644531	111.007240
9290.896809	5136.801667	310.349609	47.652840
9290.896809	5136.801667	309.054688	69.723587
9290.896809	5136.801667	307.759766	-21.582254
9290.896809	5136.801667	306.464844	-2.411631
9290.896809	5136.801667	305.168945	22.589016
9290.896809	5136.801667	303.873047	9.512845
9290.896809	5136.801667	302.577148	33.617218
9290.896809	5136.801667	301.281250	15.458573
9290.896809	5136.801667	299.984375	21.894957
