#X		#Y		#Wave		#Intensity
9616.261170	4845.450000	1999.946289	-69.773354
9616.261170	4845.450000	1998.981445	41.844986
9616.261170	4845.450000	1998.017578	38.795010
9616.261170	4845.450000	1997.052734	-28.656374
9616.261170	4845.450000	1996.088867	-71.273918
9616.261170	4845.450000	1995.124023	29.829054
9616.261170	4845.450000	1994.159180	54.145168
9616.261170	4845.450000	1993.193359	175.053329
9616.261170	4845.450000	1992.228516	-13.529574
9616.261170	4845.450000	1991.262695	30.666971
9616.261170	4845.450000	1990.296875	163.970688
9616.261170	4845.450000	1989.331055	166.107239
9616.261170	4845.450000	1988.365234	76.732178
9616.261170	4845.450000	1987.398438	41.832050
9616.261170	4845.450000	1986.432617	6.973112
9616.261170	4845.450000	1985.465820	93.308067
9616.261170	4845.450000	1984.499023	194.468948
9616.261170	4845.450000	1983.532227	137.429504
9616.261170	4845.450000	1982.565430	122.446396
9616.261170	4845.450000	1981.597656	53.134041
9616.261170	4845.450000	1980.629883	-58.123898
9616.261170	4845.450000	1979.662109	-63.113682
9616.261170	4845.450000	1978.694336	-26.098866
9616.261170	4845.450000	1977.726563	141.778091
9616.261170	4845.450000	1976.758789	82.515625
9616.261170	4845.450000	1975.790039	151.632095
9616.261170	4845.450000	1974.821289	176.328690
9616.261170	4845.450000	1973.852539	139.359711
9616.261170	4845.450000	1972.883789	102.425720
9616.261170	4845.450000	1971.915039	-50.384731
9616.261170	4845.450000	1970.945313	-37.916180
9616.261170	4845.450000	1969.975586	97.831291
9616.261170	4845.450000	1969.005859	4.320980
9616.261170	4845.450000	1968.036133	21.760574
9616.261170	4845.450000	1967.066406	-7.601218
9616.261170	4845.450000	1966.096680	-9.835511
9616.261170	4845.450000	1965.125977	54.448421
9616.261170	4845.450000	1964.155273	-24.099461
9616.261170	4845.450000	1963.184570	-65.669151
9616.261170	4845.450000	1962.213867	84.799339
9616.261170	4845.450000	1961.242188	60.486397
9616.261170	4845.450000	1960.271484	112.482567
9616.261170	4845.450000	1959.299805	-22.502958
9616.261170	4845.450000	1958.328125	-46.731682
9616.261170	4845.450000	1957.356445	59.408661
9616.261170	4845.450000	1956.384766	8.158515
9616.261170	4845.450000	1955.412109	55.277958
9616.261170	4845.450000	1954.439453	154.012268
9616.261170	4845.450000	1953.467773	151.969421
9616.261170	4845.450000	1952.495117	71.315933
9616.261170	4845.450000	1951.521484	7.901907
9616.261170	4845.450000	1950.548828	20.666969
9616.261170	4845.450000	1949.575195	146.400757
9616.261170	4845.450000	1948.601563	83.051079
9616.261170	4845.450000	1947.627930	108.109642
9616.261170	4845.450000	1946.654297	66.906517
9616.261170	4845.450000	1945.680664	23.278133
9616.261170	4845.450000	1944.706055	104.800186
9616.261170	4845.450000	1943.732422	61.206783
9616.261170	4845.450000	1942.757813	5.378847
9616.261170	4845.450000	1941.783203	74.636673
9616.261170	4845.450000	1940.807617	-69.405388
9616.261170	4845.450000	1939.833008	159.185638
9616.261170	4845.450000	1938.857422	22.556900
9616.261170	4845.450000	1937.881836	40.352142
9616.261170	4845.450000	1936.906250	-123.127594
9616.261170	4845.450000	1935.930664	19.623091
9616.261170	4845.450000	1934.955078	8.056361
9616.261170	4845.450000	1933.978516	8.745395
9616.261170	4845.450000	1933.001953	51.058743
9616.261170	4845.450000	1932.025391	-16.768217
9616.261170	4845.450000	1931.048828	-8.703470
9616.261170	4845.450000	1930.072266	-93.600006
9616.261170	4845.450000	1929.094727	102.842453
9616.261170	4845.450000	1928.118164	123.137466
9616.261170	4845.450000	1927.140625	6.503755
9616.261170	4845.450000	1926.163086	-19.623056
9616.261170	4845.450000	1925.184570	0.708487
9616.261170	4845.450000	1924.207031	-27.833834
9616.261170	4845.450000	1923.228516	75.582306
9616.261170	4845.450000	1922.250000	-43.334545
9616.261170	4845.450000	1921.271484	-44.962273
9616.261170	4845.450000	1920.292969	36.445515
9616.261170	4845.450000	1919.314453	47.026798
9616.261170	4845.450000	1918.334961	55.169395
9616.261170	4845.450000	1917.355469	14.504412
9616.261170	4845.450000	1916.375977	42.185719
9616.261170	4845.450000	1915.396484	18.630116
9616.261170	4845.450000	1914.416992	73.145767
9616.261170	4845.450000	1913.436523	44.727951
9616.261170	4845.450000	1912.457031	11.451491
9616.261170	4845.450000	1911.476563	29.388180
9616.261170	4845.450000	1910.496094	18.075094
9616.261170	4845.450000	1909.515625	31.141941
9616.261170	4845.450000	1908.534180	-21.577351
9616.261170	4845.450000	1907.552734	-54.782780
9616.261170	4845.450000	1906.572266	-61.178024
9616.261170	4845.450000	1905.590820	-6.687797
9616.261170	4845.450000	1904.608398	21.004641
9616.261170	4845.450000	1903.626953	14.612935
9616.261170	4845.450000	1902.644531	42.300549
9616.261170	4845.450000	1901.663086	99.183205
9616.261170	4845.450000	1900.680664	-87.239182
9616.261170	4845.450000	1899.698242	-54.670307
9616.261170	4845.450000	1898.714844	19.233097
9616.261170	4845.450000	1897.732422	-52.776798
9616.261170	4845.450000	1896.749023	-134.481293
9616.261170	4845.450000	1895.765625	-4.689564
9616.261170	4845.450000	1894.782227	49.722733
9616.261170	4845.450000	1893.798828	-29.515312
9616.261170	4845.450000	1892.814453	39.462063
9616.261170	4845.450000	1891.831055	25.838621
9616.261170	4845.450000	1890.846680	-21.774059
9616.261170	4845.450000	1889.862305	30.176153
9616.261170	4845.450000	1888.877930	-2.850207
9616.261170	4845.450000	1887.892578	56.362007
9616.261170	4845.450000	1886.908203	-39.741741
9616.261170	4845.450000	1885.922852	48.571735
9616.261170	4845.450000	1884.937500	-69.321953
9616.261170	4845.450000	1883.952148	-133.816513
9616.261170	4845.450000	1882.965820	-103.723167
9616.261170	4845.450000	1881.980469	35.451649
9616.261170	4845.450000	1880.994141	17.028784
9616.261170	4845.450000	1880.007813	64.043991
9616.261170	4845.450000	1879.021484	-80.364929
9616.261170	4845.450000	1878.035156	24.790644
9616.261170	4845.450000	1877.047852	122.640671
9616.261170	4845.450000	1876.061523	109.065651
9616.261170	4845.450000	1875.074219	8.337147
9616.261170	4845.450000	1874.086914	77.089058
9616.261170	4845.450000	1873.098633	85.310730
9616.261170	4845.450000	1872.111328	33.037437
9616.261170	4845.450000	1871.123047	-4.701920
9616.261170	4845.450000	1870.135742	80.931885
9616.261170	4845.450000	1869.147461	-72.883324
9616.261170	4845.450000	1868.158203	150.547623
9616.261170	4845.450000	1867.169922	78.968262
9616.261170	4845.450000	1866.180664	94.425308
9616.261170	4845.450000	1865.192383	63.962101
9616.261170	4845.450000	1864.203125	2.099723
9616.261170	4845.450000	1863.213867	10.311926
9616.261170	4845.450000	1862.223633	-24.954170
9616.261170	4845.450000	1861.234375	36.380424
9616.261170	4845.450000	1860.244141	83.204224
9616.261170	4845.450000	1859.253906	-24.475084
9616.261170	4845.450000	1858.263672	126.112633
9616.261170	4845.450000	1857.273438	78.783905
9616.261170	4845.450000	1856.282227	4.933103
9616.261170	4845.450000	1855.291992	-1.355878
9616.261170	4845.450000	1854.300781	9.234908
9616.261170	4845.450000	1853.309570	162.073273
9616.261170	4845.450000	1852.317383	-41.923210
9616.261170	4845.450000	1851.326172	-36.159405
9616.261170	4845.450000	1850.333984	97.313728
9616.261170	4845.450000	1849.342773	1.853300
9616.261170	4845.450000	1848.350586	115.992332
9616.261170	4845.450000	1847.357422	116.890594
9616.261170	4845.450000	1846.365234	110.562210
9616.261170	4845.450000	1845.372070	41.637589
9616.261170	4845.450000	1844.379883	-12.822022
9616.261170	4845.450000	1843.386719	33.809628
9616.261170	4845.450000	1842.393555	-51.916267
9616.261170	4845.450000	1841.399414	-26.954718
9616.261170	4845.450000	1840.406250	74.960152
9616.261170	4845.450000	1839.412109	8.499231
9616.261170	4845.450000	1838.417969	-74.771118
9616.261170	4845.450000	1837.423828	5.446104
9616.261170	4845.450000	1836.429688	71.208405
9616.261170	4845.450000	1835.434570	9.584426
9616.261170	4845.450000	1834.440430	-90.460190
9616.261170	4845.450000	1833.445313	25.709513
9616.261170	4845.450000	1832.450195	-38.288074
9616.261170	4845.450000	1831.454102	118.635948
9616.261170	4845.450000	1830.458984	-34.190697
9616.261170	4845.450000	1829.462891	149.064926
9616.261170	4845.450000	1828.466797	10.676750
9616.261170	4845.450000	1827.470703	61.880741
9616.261170	4845.450000	1826.474609	122.655075
9616.261170	4845.450000	1825.478516	49.089478
9616.261170	4845.450000	1824.481445	81.054817
9616.261170	4845.450000	1823.484375	67.449303
9616.261170	4845.450000	1822.487305	22.680798
9616.261170	4845.450000	1821.490234	-41.250069
9616.261170	4845.450000	1820.493164	-33.278938
9616.261170	4845.450000	1819.495117	29.782887
9616.261170	4845.450000	1818.498047	-24.552156
9616.261170	4845.450000	1817.500000	-11.819904
9616.261170	4845.450000	1816.500977	139.771271
9616.261170	4845.450000	1815.502930	63.879620
9616.261170	4845.450000	1814.504883	45.452118
9616.261170	4845.450000	1813.505859	53.346134
9616.261170	4845.450000	1812.506836	27.734140
9616.261170	4845.450000	1811.507813	47.574295
9616.261170	4845.450000	1810.508789	62.616020
9616.261170	4845.450000	1809.508789	65.687614
9616.261170	4845.450000	1808.508789	16.154188
9616.261170	4845.450000	1807.508789	88.535927
9616.261170	4845.450000	1806.508789	122.645248
9616.261170	4845.450000	1805.508789	46.822399
9616.261170	4845.450000	1804.508789	143.022369
9616.261170	4845.450000	1803.507813	-42.662415
9616.261170	4845.450000	1802.506836	89.321198
9616.261170	4845.450000	1801.505859	99.480690
9616.261170	4845.450000	1800.504883	174.079926
9616.261170	4845.450000	1799.502930	-6.731615
9616.261170	4845.450000	1798.501953	156.132324
9616.261170	4845.450000	1797.500000	94.663216
9616.261170	4845.450000	1796.498047	64.217987
9616.261170	4845.450000	1795.496094	119.630066
9616.261170	4845.450000	1794.493164	41.484482
9616.261170	4845.450000	1793.491211	20.575546
9616.261170	4845.450000	1792.488281	99.771637
9616.261170	4845.450000	1791.485352	-80.824196
9616.261170	4845.450000	1790.482422	45.994534
9616.261170	4845.450000	1789.478516	82.233475
9616.261170	4845.450000	1788.475586	-12.543200
9616.261170	4845.450000	1787.471680	40.342865
9616.261170	4845.450000	1786.467773	102.722565
9616.261170	4845.450000	1785.463867	0.825331
9616.261170	4845.450000	1784.459961	-3.467308
9616.261170	4845.450000	1783.455078	4.128085
9616.261170	4845.450000	1782.450195	-0.184022
9616.261170	4845.450000	1781.445313	-16.397093
9616.261170	4845.450000	1780.440430	-49.260448
9616.261170	4845.450000	1779.435547	62.914574
9616.261170	4845.450000	1778.429688	-124.489746
9616.261170	4845.450000	1777.424805	-21.869961
9616.261170	4845.450000	1776.418945	-30.985889
9616.261170	4845.450000	1775.413086	-2.095150
9616.261170	4845.450000	1774.406250	12.520926
9616.261170	4845.450000	1773.400391	107.869919
9616.261170	4845.450000	1772.393555	89.196091
9616.261170	4845.450000	1771.386719	198.716721
9616.261170	4845.450000	1770.379883	-5.127316
9616.261170	4845.450000	1769.373047	52.140011
9616.261170	4845.450000	1768.365234	38.193138
9616.261170	4845.450000	1767.358398	-37.435581
9616.261170	4845.450000	1766.350586	135.988983
9616.261170	4845.450000	1765.342773	91.175125
9616.261170	4845.450000	1764.334961	46.367706
9616.261170	4845.450000	1763.326172	-17.398062
9616.261170	4845.450000	1762.318359	13.649548
9616.261170	4845.450000	1761.309570	30.456263
9616.261170	4845.450000	1760.300781	104.103249
9616.261170	4845.450000	1759.291016	137.443558
9616.261170	4845.450000	1758.282227	-54.214600
9616.261170	4845.450000	1757.272461	-9.040092
9616.261170	4845.450000	1756.262695	92.920364
9616.261170	4845.450000	1755.252930	-15.815429
9616.261170	4845.450000	1754.243164	-58.262875
9616.261170	4845.450000	1753.233398	38.883919
9616.261170	4845.450000	1752.222656	65.017265
9616.261170	4845.450000	1751.211914	5.988935
9616.261170	4845.450000	1750.201172	77.022789
9616.261170	4845.450000	1749.190430	-43.474682
9616.261170	4845.450000	1748.179688	39.337807
9616.261170	4845.450000	1747.167969	3.945059
9616.261170	4845.450000	1746.156250	-85.788643
9616.261170	4845.450000	1745.144531	86.717018
9616.261170	4845.450000	1744.132813	-21.915899
9616.261170	4845.450000	1743.121094	79.647079
9616.261170	4845.450000	1742.108398	-2.996507
9616.261170	4845.450000	1741.095703	-7.723033
9616.261170	4845.450000	1740.083008	27.661833
9616.261170	4845.450000	1739.070313	22.908581
9616.261170	4845.450000	1738.057617	32.300907
9616.261170	4845.450000	1737.043945	51.111603
9616.261170	4845.450000	1736.030273	-12.635502
9616.261170	4845.450000	1735.016602	175.916031
9616.261170	4845.450000	1734.002930	-1.006229
9616.261170	4845.450000	1732.989258	-10.531931
9616.261170	4845.450000	1731.974609	-109.612434
9616.261170	4845.450000	1730.959961	78.766624
9616.261170	4845.450000	1729.945313	59.773457
9616.261170	4845.450000	1728.930664	-27.522087
9616.261170	4845.450000	1727.916016	21.774784
9616.261170	4845.450000	1726.900391	45.143326
9616.261170	4845.450000	1725.885742	106.153389
9616.261170	4845.450000	1724.870117	4.749305
9616.261170	4845.450000	1723.853516	23.366367
9616.261170	4845.450000	1722.837891	-19.195528
9616.261170	4845.450000	1721.822266	27.621721
9616.261170	4845.450000	1720.805664	-40.815472
9616.261170	4845.450000	1719.789063	85.899956
9616.261170	4845.450000	1718.772461	-43.660442
9616.261170	4845.450000	1717.754883	52.430767
9616.261170	4845.450000	1716.738281	-11.303983
9616.261170	4845.450000	1715.720703	-11.597289
9616.261170	4845.450000	1714.703125	39.771931
9616.261170	4845.450000	1713.685547	32.401615
9616.261170	4845.450000	1712.667969	55.545952
9616.261170	4845.450000	1711.649414	109.185539
9616.261170	4845.450000	1710.630859	99.424553
9616.261170	4845.450000	1709.612305	23.952494
9616.261170	4845.450000	1708.593750	86.919067
9616.261170	4845.450000	1707.575195	88.863617
9616.261170	4845.450000	1706.555664	-31.156389
9616.261170	4845.450000	1705.536133	-151.140717
9616.261170	4845.450000	1704.516602	-109.332733
9616.261170	4845.450000	1703.497070	14.483435
9616.261170	4845.450000	1702.477539	51.535629
9616.261170	4845.450000	1701.457031	8.900313
9616.261170	4845.450000	1700.437500	-40.754490
9616.261170	4845.450000	1699.416992	-15.457064
9616.261170	4845.450000	1698.395508	70.700096
9616.261170	4845.450000	1697.375000	124.039612
9616.261170	4845.450000	1696.354492	32.224365
9616.261170	4845.450000	1695.333008	-17.443151
9616.261170	4845.450000	1694.311523	-81.140808
9616.261170	4845.450000	1693.290039	9.573591
9616.261170	4845.450000	1692.267578	-5.009925
9616.261170	4845.450000	1691.246094	-26.611103
9616.261170	4845.450000	1690.223633	5.558036
9616.261170	4845.450000	1689.201172	44.717861
9616.261170	4845.450000	1688.178711	81.515419
9616.261170	4845.450000	1687.155273	-42.942654
9616.261170	4845.450000	1686.132813	68.596886
9616.261170	4845.450000	1685.109375	-74.516281
9616.261170	4845.450000	1684.085938	55.647720
9616.261170	4845.450000	1683.062500	-5.706673
9616.261170	4845.450000	1682.039063	2.985555
9616.261170	4845.450000	1681.014648	-74.693901
9616.261170	4845.450000	1679.990234	130.002762
9616.261170	4845.450000	1678.965820	-94.672913
9616.261170	4845.450000	1677.941406	109.930534
9616.261170	4845.450000	1676.916992	43.914497
9616.261170	4845.450000	1675.891602	26.878716
9616.261170	4845.450000	1674.866211	-57.765884
9616.261170	4845.450000	1673.840820	25.432205
9616.261170	4845.450000	1672.815430	-28.902414
9616.261170	4845.450000	1671.790039	42.591190
9616.261170	4845.450000	1670.763672	-62.993382
9616.261170	4845.450000	1669.737305	103.949905
9616.261170	4845.450000	1668.710938	21.662859
9616.261170	4845.450000	1667.684570	-14.038030
9616.261170	4845.450000	1666.658203	-77.665352
9616.261170	4845.450000	1665.630859	35.590527
9616.261170	4845.450000	1664.603516	-14.079351
9616.261170	4845.450000	1663.576172	89.799484
9616.261170	4845.450000	1662.548828	7.559893
9616.261170	4845.450000	1661.520508	-116.515114
9616.261170	4845.450000	1660.493164	96.574196
9616.261170	4845.450000	1659.464844	-20.511805
9616.261170	4845.450000	1658.436523	76.255379
9616.261170	4845.450000	1657.408203	80.032845
9616.261170	4845.450000	1656.378906	46.628220
9616.261170	4845.450000	1655.350586	134.013962
9616.261170	4845.450000	1654.321289	84.341858
9616.261170	4845.450000	1653.291992	-58.191357
9616.261170	4845.450000	1652.261719	108.065926
9616.261170	4845.450000	1651.232422	39.839882
9616.261170	4845.450000	1650.202148	34.284687
9616.261170	4845.450000	1649.171875	130.806580
9616.261170	4845.450000	1648.141602	13.882977
9616.261170	4845.450000	1647.111328	154.422684
9616.261170	4845.450000	1646.080078	46.800209
9616.261170	4845.450000	1645.049805	36.581364
9616.261170	4845.450000	1644.018555	156.154907
9616.261170	4845.450000	1642.987305	231.646591
9616.261170	4845.450000	1641.955078	133.334229
9616.261170	4845.450000	1640.923828	213.423309
9616.261170	4845.450000	1639.891602	105.878014
9616.261170	4845.450000	1638.859375	167.403473
9616.261170	4845.450000	1637.827148	203.434357
9616.261170	4845.450000	1636.794922	135.287216
9616.261170	4845.450000	1635.761719	97.243515
9616.261170	4845.450000	1634.729492	202.665039
9616.261170	4845.450000	1633.696289	197.000305
9616.261170	4845.450000	1632.662109	269.967682
9616.261170	4845.450000	1631.628906	192.598480
9616.261170	4845.450000	1630.594727	216.978836
9616.261170	4845.450000	1629.561523	222.855881
9616.261170	4845.450000	1628.527344	154.770859
9616.261170	4845.450000	1627.493164	174.511444
9616.261170	4845.450000	1626.458008	94.901062
9616.261170	4845.450000	1625.423828	340.990082
9616.261170	4845.450000	1624.388672	157.454956
9616.261170	4845.450000	1623.353516	204.869049
9616.261170	4845.450000	1622.318359	201.477615
9616.261170	4845.450000	1621.282227	168.079178
9616.261170	4845.450000	1620.247070	120.848610
9616.261170	4845.450000	1619.210938	117.464828
9616.261170	4845.450000	1618.174805	155.597870
9616.261170	4845.450000	1617.137695	170.649765
9616.261170	4845.450000	1616.101563	42.744617
9616.261170	4845.450000	1615.064453	228.395325
9616.261170	4845.450000	1614.027344	165.055634
9616.261170	4845.450000	1612.990234	336.780365
9616.261170	4845.450000	1611.953125	275.744965
9616.261170	4845.450000	1610.916016	288.441284
9616.261170	4845.450000	1609.877930	211.312851
9616.261170	4845.450000	1608.839844	422.029724
9616.261170	4845.450000	1607.801758	321.882050
9616.261170	4845.450000	1606.763672	263.201569
9616.261170	4845.450000	1605.724609	317.299500
9616.261170	4845.450000	1604.685547	329.962067
9616.261170	4845.450000	1603.646484	347.219727
9616.261170	4845.450000	1602.607422	343.771820
9616.261170	4845.450000	1601.568359	367.917816
9616.261170	4845.450000	1600.528320	343.774139
9616.261170	4845.450000	1599.489258	259.881409
9616.261170	4845.450000	1598.449219	176.019608
9616.261170	4845.450000	1597.408203	223.151306
9616.261170	4845.450000	1596.368164	180.679428
9616.261170	4845.450000	1595.327148	216.309753
9616.261170	4845.450000	1594.287109	212.892960
9616.261170	4845.450000	1593.246094	243.913651
9616.261170	4845.450000	1592.204102	286.397888
9616.261170	4845.450000	1591.163086	106.263191
9616.261170	4845.450000	1590.121094	293.311584
9616.261170	4845.450000	1589.079102	409.174042
9616.261170	4845.450000	1588.037109	215.362457
9616.261170	4845.450000	1586.995117	202.784180
9616.261170	4845.450000	1585.953125	217.725510
9616.261170	4845.450000	1584.910156	221.199371
9616.261170	4845.450000	1583.867188	194.881653
9616.261170	4845.450000	1582.824219	228.151413
9616.261170	4845.450000	1581.781250	135.413116
9616.261170	4845.450000	1580.737305	262.591797
9616.261170	4845.450000	1579.693359	220.266144
9616.261170	4845.450000	1578.649414	187.118454
9616.261170	4845.450000	1577.605469	76.158669
9616.261170	4845.450000	1576.561523	200.974335
9616.261170	4845.450000	1575.516602	305.149200
9616.261170	4845.450000	1574.472656	171.365387
9616.261170	4845.450000	1573.427734	211.469437
9616.261170	4845.450000	1572.381836	109.775963
9616.261170	4845.450000	1571.336914	143.026123
9616.261170	4845.450000	1570.291016	155.691986
9616.261170	4845.450000	1569.246094	186.644089
9616.261170	4845.450000	1568.200195	105.619148
9616.261170	4845.450000	1567.153320	202.827332
9616.261170	4845.450000	1566.107422	306.857361
9616.261170	4845.450000	1565.060547	184.763901
9616.261170	4845.450000	1564.013672	254.516693
9616.261170	4845.450000	1562.966797	210.108078
9616.261170	4845.450000	1561.919922	213.651978
9616.261170	4845.450000	1560.872070	228.607742
9616.261170	4845.450000	1559.825195	97.553268
9616.261170	4845.450000	1558.777344	276.771332
9616.261170	4845.450000	1557.729492	312.250183
9616.261170	4845.450000	1556.680664	226.873993
9616.261170	4845.450000	1555.632813	426.497955
9616.261170	4845.450000	1554.583984	218.068939
9616.261170	4845.450000	1553.535156	242.163574
9616.261170	4845.450000	1552.486328	202.463165
9616.261170	4845.450000	1551.436523	155.950043
9616.261170	4845.450000	1550.387695	255.220062
9616.261170	4845.450000	1549.337891	240.608368
9616.261170	4845.450000	1548.288086	155.438110
9616.261170	4845.450000	1547.238281	254.671341
9616.261170	4845.450000	1546.187500	301.532654
9616.261170	4845.450000	1545.136719	268.752869
9616.261170	4845.450000	1544.086914	263.293213
9616.261170	4845.450000	1543.035156	210.080658
9616.261170	4845.450000	1541.984375	197.829178
9616.261170	4845.450000	1540.933594	196.958710
9616.261170	4845.450000	1539.881836	232.462418
9616.261170	4845.450000	1538.830078	297.504669
9616.261170	4845.450000	1537.778320	271.648621
9616.261170	4845.450000	1536.725586	200.378677
9616.261170	4845.450000	1535.673828	331.281158
9616.261170	4845.450000	1534.621094	241.882370
9616.261170	4845.450000	1533.568359	191.123474
9616.261170	4845.450000	1532.515625	149.473877
9616.261170	4845.450000	1531.461914	173.660736
9616.261170	4845.450000	1530.409180	95.750191
9616.261170	4845.450000	1529.355469	383.100739
9616.261170	4845.450000	1528.301758	150.974731
9616.261170	4845.450000	1527.247070	100.354782
9616.261170	4845.450000	1526.193359	256.075500
9616.261170	4845.450000	1525.138672	98.944168
9616.261170	4845.450000	1524.083984	218.365219
9616.261170	4845.450000	1523.029297	145.160599
9616.261170	4845.450000	1521.974609	4.036963
9616.261170	4845.450000	1520.918945	14.726470
9616.261170	4845.450000	1519.863281	18.630089
9616.261170	4845.450000	1518.807617	13.489172
9616.261170	4845.450000	1517.751953	44.579243
9616.261170	4845.450000	1516.696289	39.460503
9616.261170	4845.450000	1515.639648	2.677656
9616.261170	4845.450000	1514.583008	92.605240
9616.261170	4845.450000	1513.526367	103.349342
9616.261170	4845.450000	1512.469727	62.092716
9616.261170	4845.450000	1511.412109	2.777580
9616.261170	4845.450000	1510.355469	61.041882
9616.261170	4845.450000	1509.297852	96.695229
9616.261170	4845.450000	1508.240234	152.683853
9616.261170	4845.450000	1507.181641	73.119942
9616.261170	4845.450000	1506.124023	133.636444
9616.261170	4845.450000	1505.065430	40.587021
9616.261170	4845.450000	1504.006836	87.567261
9616.261170	4845.450000	1502.948242	66.825333
9616.261170	4845.450000	1501.888672	30.306995
9616.261170	4845.450000	1500.830078	-40.025852
9616.261170	4845.450000	1499.770508	52.108322
9616.261170	4845.450000	1498.710938	8.893407
9616.261170	4845.450000	1497.650391	67.184875
9616.261170	4845.450000	1496.590820	5.978214
9616.261170	4845.450000	1495.530273	-39.411739
9616.261170	4845.450000	1494.469727	59.467396
9616.261170	4845.450000	1493.409180	20.875992
9616.261170	4845.450000	1492.348633	-69.497849
9616.261170	4845.450000	1491.287109	6.851331
9616.261170	4845.450000	1490.225586	31.392941
9616.261170	4845.450000	1489.164063	17.666637
9616.261170	4845.450000	1488.102539	-43.308910
9616.261170	4845.450000	1487.041016	-86.239166
9616.261170	4845.450000	1485.978516	98.122620
9616.261170	4845.450000	1484.916016	-7.767900
9616.261170	4845.450000	1483.853516	-102.370590
9616.261170	4845.450000	1482.791016	-77.725380
9616.261170	4845.450000	1481.727539	-136.257828
9616.261170	4845.450000	1480.664063	-10.435705
9616.261170	4845.450000	1479.600586	122.098038
9616.261170	4845.450000	1478.537109	5.214577
9616.261170	4845.450000	1477.473633	-82.434616
9616.261170	4845.450000	1476.409180	-21.787706
9616.261170	4845.450000	1475.344727	18.650331
9616.261170	4845.450000	1474.280273	-98.025192
9616.261170	4845.450000	1473.215820	-41.858612
9616.261170	4845.450000	1472.151367	-14.785396
9616.261170	4845.450000	1471.085938	57.038601
9616.261170	4845.450000	1470.020508	-16.837976
9616.261170	4845.450000	1468.955078	41.481937
9616.261170	4845.450000	1467.888672	-175.593994
9616.261170	4845.450000	1466.823242	26.100124
9616.261170	4845.450000	1465.756836	106.859535
9616.261170	4845.450000	1464.690430	91.381226
9616.261170	4845.450000	1463.624023	-44.893311
9616.261170	4845.450000	1462.556641	29.364077
9616.261170	4845.450000	1461.490234	56.366470
9616.261170	4845.450000	1460.422852	81.206635
9616.261170	4845.450000	1459.355469	52.246517
9616.261170	4845.450000	1458.287109	119.598511
9616.261170	4845.450000	1457.219727	-42.889198
9616.261170	4845.450000	1456.151367	62.009113
9616.261170	4845.450000	1455.083008	-37.750946
9616.261170	4845.450000	1454.014648	-59.600952
9616.261170	4845.450000	1452.945313	28.266891
9616.261170	4845.450000	1451.876953	-13.832623
9616.261170	4845.450000	1450.807617	-85.144791
9616.261170	4845.450000	1449.738281	69.208755
9616.261170	4845.450000	1448.668945	49.688026
9616.261170	4845.450000	1447.598633	-101.610519
9616.261170	4845.450000	1446.528320	-5.834939
9616.261170	4845.450000	1445.458008	49.031898
9616.261170	4845.450000	1444.387695	93.774231
9616.261170	4845.450000	1443.317383	-27.617174
9616.261170	4845.450000	1442.246094	-62.288441
9616.261170	4845.450000	1441.174805	-47.019089
9616.261170	4845.450000	1440.103516	39.989754
9616.261170	4845.450000	1439.032227	62.774261
9616.261170	4845.450000	1437.960938	34.663582
9616.261170	4845.450000	1436.888672	48.178661
9616.261170	4845.450000	1435.816406	77.790375
9616.261170	4845.450000	1434.744141	20.061733
9616.261170	4845.450000	1433.670898	6.713460
9616.261170	4845.450000	1432.598633	6.757374
9616.261170	4845.450000	1431.525391	-3.411992
9616.261170	4845.450000	1430.452148	70.782570
9616.261170	4845.450000	1429.378906	63.518322
9616.261170	4845.450000	1428.304688	46.852997
9616.261170	4845.450000	1427.231445	43.359238
9616.261170	4845.450000	1426.157227	124.973274
9616.261170	4845.450000	1425.083008	-36.758076
9616.261170	4845.450000	1424.007813	-1.956217
9616.261170	4845.450000	1422.933594	58.696941
9616.261170	4845.450000	1421.858398	21.551352
9616.261170	4845.450000	1420.783203	20.301212
9616.261170	4845.450000	1419.708008	53.581299
9616.261170	4845.450000	1418.631836	90.698524
9616.261170	4845.450000	1417.555664	-6.072911
9616.261170	4845.450000	1416.479492	22.105875
9616.261170	4845.450000	1415.403320	45.146999
9616.261170	4845.450000	1414.327148	74.472336
9616.261170	4845.450000	1413.250000	54.284882
9616.261170	4845.450000	1412.173828	213.701141
9616.261170	4845.450000	1411.096680	155.260406
9616.261170	4845.450000	1410.018555	187.460312
9616.261170	4845.450000	1408.941406	58.131073
9616.261170	4845.450000	1407.863281	52.524532
9616.261170	4845.450000	1406.785156	-10.619017
9616.261170	4845.450000	1405.707031	-33.327904
9616.261170	4845.450000	1404.628906	18.316805
9616.261170	4845.450000	1403.549805	-79.408974
9616.261170	4845.450000	1402.470703	33.029400
9616.261170	4845.450000	1401.391602	-96.108315
9616.261170	4845.450000	1400.312500	-59.119022
9616.261170	4845.450000	1399.233398	-1.223921
9616.261170	4845.450000	1398.153320	10.771932
9616.261170	4845.450000	1397.073242	113.754150
9616.261170	4845.450000	1395.993164	-81.724068
9616.261170	4845.450000	1394.913086	-112.530914
9616.261170	4845.450000	1393.832031	-12.727713
9616.261170	4845.450000	1392.750977	-23.831280
9616.261170	4845.450000	1391.669922	-19.006689
9616.261170	4845.450000	1390.588867	-10.909243
9616.261170	4845.450000	1389.506836	-12.957132
9616.261170	4845.450000	1388.425781	90.791405
9616.261170	4845.450000	1387.343750	52.565952
9616.261170	4845.450000	1386.261719	55.266079
9616.261170	4845.450000	1385.178711	-44.153290
9616.261170	4845.450000	1384.096680	14.958914
9616.261170	4845.450000	1383.013672	146.833893
9616.261170	4845.450000	1381.930664	9.598673
9616.261170	4845.450000	1380.846680	29.747793
9616.261170	4845.450000	1379.763672	93.364784
9616.261170	4845.450000	1378.679688	132.765945
9616.261170	4845.450000	1377.595703	21.373156
9616.261170	4845.450000	1376.511719	76.273254
9616.261170	4845.450000	1375.427734	48.061398
9616.261170	4845.450000	1374.342773	119.173660
9616.261170	4845.450000	1373.257813	20.131893
9616.261170	4845.450000	1372.172852	-26.612783
9616.261170	4845.450000	1371.087891	33.258900
9616.261170	4845.450000	1370.001953	149.037079
9616.261170	4845.450000	1368.916992	72.344917
9616.261170	4845.450000	1367.831055	17.902901
9616.261170	4845.450000	1366.744141	192.149002
9616.261170	4845.450000	1365.658203	85.000229
9616.261170	4845.450000	1364.571289	81.999916
9616.261170	4845.450000	1363.484375	63.993469
9616.261170	4845.450000	1362.397461	144.414413
9616.261170	4845.450000	1361.310547	113.313942
9616.261170	4845.450000	1360.222656	103.622482
9616.261170	4845.450000	1359.135742	89.296326
9616.261170	4845.450000	1358.047852	108.707184
9616.261170	4845.450000	1356.958984	64.375519
9616.261170	4845.450000	1355.871094	11.308805
9616.261170	4845.450000	1354.782227	42.271404
9616.261170	4845.450000	1353.693359	124.722321
9616.261170	4845.450000	1352.604492	117.018394
9616.261170	4845.450000	1351.515625	28.378769
9616.261170	4845.450000	1350.425781	234.750137
9616.261170	4845.450000	1349.335938	94.772079
9616.261170	4845.450000	1348.246094	101.934250
9616.261170	4845.450000	1347.156250	109.305878
9616.261170	4845.450000	1346.066406	32.812649
9616.261170	4845.450000	1344.975586	176.940399
9616.261170	4845.450000	1343.884766	120.260246
9616.261170	4845.450000	1342.793945	265.413696
9616.261170	4845.450000	1341.702148	90.926651
9616.261170	4845.450000	1340.611328	-26.994701
9616.261170	4845.450000	1339.519531	110.003334
9616.261170	4845.450000	1338.427734	27.585546
9616.261170	4845.450000	1337.334961	103.925377
9616.261170	4845.450000	1336.243164	90.107262
9616.261170	4845.450000	1335.150391	37.640808
9616.261170	4845.450000	1334.057617	51.572559
9616.261170	4845.450000	1332.964844	71.371643
9616.261170	4845.450000	1331.871094	9.430806
9616.261170	4845.450000	1330.778320	-25.917631
9616.261170	4845.450000	1329.684570	26.725248
9616.261170	4845.450000	1328.590820	39.911766
9616.261170	4845.450000	1327.496094	40.341854
9616.261170	4845.450000	1326.402344	133.256882
9616.261170	4845.450000	1325.307617	-12.174085
9616.261170	4845.450000	1324.212891	40.025509
9616.261170	4845.450000	1323.117188	-33.470703
9616.261170	4845.450000	1322.022461	122.084373
9616.261170	4845.450000	1320.926758	53.461483
9616.261170	4845.450000	1319.831055	28.413973
9616.261170	4845.450000	1318.735352	-46.254578
9616.261170	4845.450000	1317.638672	-13.925157
9616.261170	4845.450000	1316.542969	11.426517
9616.261170	4845.450000	1315.446289	51.425816
9616.261170	4845.450000	1314.349609	110.017914
9616.261170	4845.450000	1313.251953	-15.914949
9616.261170	4845.450000	1312.155273	-44.728489
9616.261170	4845.450000	1311.057617	-20.072613
9616.261170	4845.450000	1309.959961	-95.018814
9616.261170	4845.450000	1308.862305	-72.259140
9616.261170	4845.450000	1307.763672	-131.014786
9616.261170	4845.450000	1306.665039	-51.375366
9616.261170	4845.450000	1305.566406	10.937299
9616.261170	4845.450000	1304.467773	-31.680462
9616.261170	4845.450000	1303.369141	-66.116005
9616.261170	4845.450000	1302.269531	40.264023
9616.261170	4845.450000	1301.169922	30.490055
9616.261170	4845.450000	1300.070313	28.348072
9616.261170	4845.450000	1298.970703	76.778839
9616.261170	4845.450000	1297.870117	66.363007
9616.261170	4845.450000	1296.769531	42.723747
9616.261170	4845.450000	1295.668945	-57.521435
9616.261170	4845.450000	1294.568359	-55.498177
9616.261170	4845.450000	1293.466797	-95.347946
9616.261170	4845.450000	1292.366211	-34.309280
9616.261170	4845.450000	1291.264648	-47.588757
9616.261170	4845.450000	1290.162109	36.010754
9616.261170	4845.450000	1289.060547	-70.998375
9616.261170	4845.450000	1287.958008	47.149513
9616.261170	4845.450000	1286.855469	55.930473
9616.261170	4845.450000	1285.752930	29.680283
9616.261170	4845.450000	1284.650391	-15.870754
9616.261170	4845.450000	1283.546875	40.274174
9616.261170	4845.450000	1282.444336	86.371933
9616.261170	4845.450000	1281.339844	51.071518
9616.261170	4845.450000	1280.236328	87.878387
9616.261170	4845.450000	1279.132813	-9.439652
9616.261170	4845.450000	1278.028320	96.268074
9616.261170	4845.450000	1276.923828	93.227524
9616.261170	4845.450000	1275.819336	5.683647
9616.261170	4845.450000	1274.713867	10.737334
9616.261170	4845.450000	1273.608398	9.882586
9616.261170	4845.450000	1272.503906	70.649498
9616.261170	4845.450000	1271.397461	6.982246
9616.261170	4845.450000	1270.291992	134.510040
9616.261170	4845.450000	1269.185547	10.713690
9616.261170	4845.450000	1268.080078	93.760460
9616.261170	4845.450000	1266.972656	38.880260
9616.261170	4845.450000	1265.866211	95.880913
9616.261170	4845.450000	1264.759766	18.426340
9616.261170	4845.450000	1263.652344	33.172199
9616.261170	4845.450000	1262.544922	19.990812
9616.261170	4845.450000	1261.436523	65.974861
9616.261170	4845.450000	1260.329102	25.331533
9616.261170	4845.450000	1259.220703	21.760525
9616.261170	4845.450000	1258.112305	3.082377
9616.261170	4845.450000	1257.003906	-57.460903
9616.261170	4845.450000	1255.895508	-75.519890
9616.261170	4845.450000	1254.786133	-159.196182
9616.261170	4845.450000	1253.676758	-50.937363
9616.261170	4845.450000	1252.567383	-66.831482
9616.261170	4845.450000	1251.458008	-15.267406
9616.261170	4845.450000	1250.347656	-92.000526
9616.261170	4845.450000	1249.237305	-1.033123
9616.261170	4845.450000	1248.126953	7.540877
9616.261170	4845.450000	1247.016602	-69.991112
9616.261170	4845.450000	1245.905273	-103.091499
9616.261170	4845.450000	1244.793945	-74.285034
9616.261170	4845.450000	1243.682617	-29.773579
9616.261170	4845.450000	1242.571289	23.425123
9616.261170	4845.450000	1241.459961	-25.565582
9616.261170	4845.450000	1240.347656	4.420341
9616.261170	4845.450000	1239.235352	-28.919237
9616.261170	4845.450000	1238.123047	-53.716824
9616.261170	4845.450000	1237.009766	-36.224342
9616.261170	4845.450000	1235.897461	11.883778
9616.261170	4845.450000	1234.784180	42.513058
9616.261170	4845.450000	1233.670898	3.780776
9616.261170	4845.450000	1232.556641	21.348600
9616.261170	4845.450000	1231.443359	-61.289959
9616.261170	4845.450000	1230.329102	82.495743
9616.261170	4845.450000	1229.214844	70.593483
9616.261170	4845.450000	1228.099609	94.946190
9616.261170	4845.450000	1226.985352	162.483383
9616.261170	4845.450000	1225.870117	128.179962
9616.261170	4845.450000	1224.754883	119.436890
9616.261170	4845.450000	1223.639648	72.845284
9616.261170	4845.450000	1222.523438	6.887151
9616.261170	4845.450000	1221.408203	0.996875
9616.261170	4845.450000	1220.291992	-32.928741
9616.261170	4845.450000	1219.174805	-1.193583
9616.261170	4845.450000	1218.058594	5.137700
9616.261170	4845.450000	1216.941406	19.987801
9616.261170	4845.450000	1215.824219	14.695642
9616.261170	4845.450000	1214.707031	-41.083679
9616.261170	4845.450000	1213.589844	27.329834
9616.261170	4845.450000	1212.471680	-18.520765
9616.261170	4845.450000	1211.353516	3.056469
9616.261170	4845.450000	1210.235352	-9.982097
9616.261170	4845.450000	1209.117188	-62.702068
9616.261170	4845.450000	1207.998047	4.120765
9616.261170	4845.450000	1206.878906	36.904907
9616.261170	4845.450000	1205.759766	89.571091
9616.261170	4845.450000	1204.640625	99.095688
9616.261170	4845.450000	1203.520508	38.026169
9616.261170	4845.450000	1202.401367	89.711929
9616.261170	4845.450000	1201.281250	21.420891
9616.261170	4845.450000	1200.160156	88.840874
9616.261170	4845.450000	1199.040039	-77.443611
9616.261170	4845.450000	1197.918945	17.515791
9616.261170	4845.450000	1196.797852	60.673473
9616.261170	4845.450000	1195.676758	19.239483
9616.261170	4845.450000	1194.555664	52.886497
9616.261170	4845.450000	1193.433594	18.412451
9616.261170	4845.450000	1192.311523	46.123077
9616.261170	4845.450000	1191.189453	-6.819681
9616.261170	4845.450000	1190.066406	-67.788795
9616.261170	4845.450000	1188.944336	-52.502678
9616.261170	4845.450000	1187.821289	-33.752041
9616.261170	4845.450000	1186.698242	18.915842
9616.261170	4845.450000	1185.574219	41.865788
9616.261170	4845.450000	1184.451172	-62.840820
9616.261170	4845.450000	1183.327148	6.066339
9616.261170	4845.450000	1182.203125	-47.810589
9616.261170	4845.450000	1181.078125	60.672504
9616.261170	4845.450000	1179.954102	-46.267696
9616.261170	4845.450000	1178.829102	-77.171196
9616.261170	4845.450000	1177.704102	-17.488813
9616.261170	4845.450000	1176.579102	-26.958977
9616.261170	4845.450000	1175.453125	-4.670998
9616.261170	4845.450000	1174.327148	-36.639397
9616.261170	4845.450000	1173.201172	7.614678
9616.261170	4845.450000	1172.075195	35.191910
9616.261170	4845.450000	1170.949219	61.489853
9616.261170	4845.450000	1169.822266	33.960194
9616.261170	4845.450000	1168.695313	-66.398613
9616.261170	4845.450000	1167.568359	-85.981499
9616.261170	4845.450000	1166.440430	-4.228875
9616.261170	4845.450000	1165.313477	-131.478851
9616.261170	4845.450000	1164.185547	-24.254454
9616.261170	4845.450000	1163.057617	-13.312327
9616.261170	4845.450000	1161.928711	-10.650036
9616.261170	4845.450000	1160.800781	6.164865
9616.261170	4845.450000	1159.671875	-0.797915
9616.261170	4845.450000	1158.541992	95.146042
9616.261170	4845.450000	1157.413086	101.188980
9616.261170	4845.450000	1156.283203	31.007273
9616.261170	4845.450000	1155.154297	14.142067
9616.261170	4845.450000	1154.023438	56.879181
9616.261170	4845.450000	1152.893555	116.744545
9616.261170	4845.450000	1151.763672	126.062607
9616.261170	4845.450000	1150.632813	154.592087
9616.261170	4845.450000	1149.501953	151.588150
9616.261170	4845.450000	1148.370117	182.443314
9616.261170	4845.450000	1147.239258	117.875580
9616.261170	4845.450000	1146.107422	123.712097
9616.261170	4845.450000	1144.975586	96.423874
9616.261170	4845.450000	1143.843750	124.295944
9616.261170	4845.450000	1142.710938	71.102150
9616.261170	4845.450000	1141.578125	154.970734
9616.261170	4845.450000	1140.445313	124.592041
9616.261170	4845.450000	1139.312500	127.327263
9616.261170	4845.450000	1138.178711	141.119156
9616.261170	4845.450000	1137.045898	-17.782618
9616.261170	4845.450000	1135.912109	-4.073022
9616.261170	4845.450000	1134.777344	64.129402
9616.261170	4845.450000	1133.643555	63.714993
9616.261170	4845.450000	1132.508789	86.255829
9616.261170	4845.450000	1131.374023	8.318016
9616.261170	4845.450000	1130.239258	73.975662
9616.261170	4845.450000	1129.104492	10.172029
9616.261170	4845.450000	1127.968750	81.875443
9616.261170	4845.450000	1126.833008	113.945488
9616.261170	4845.450000	1125.697266	119.349609
9616.261170	4845.450000	1124.560547	100.770935
9616.261170	4845.450000	1123.424805	140.141739
9616.261170	4845.450000	1122.288086	93.795670
9616.261170	4845.450000	1121.151367	-5.567789
9616.261170	4845.450000	1120.013672	77.623398
9616.261170	4845.450000	1118.876953	142.263977
9616.261170	4845.450000	1117.739258	-53.065655
9616.261170	4845.450000	1116.601563	50.437321
9616.261170	4845.450000	1115.462891	11.183274
9616.261170	4845.450000	1114.324219	38.489193
9616.261170	4845.450000	1113.186523	34.365219
9616.261170	4845.450000	1112.046875	21.272810
9616.261170	4845.450000	1110.908203	110.266472
9616.261170	4845.450000	1109.769531	-102.700211
9616.261170	4845.450000	1108.629883	53.214962
9616.261170	4845.450000	1107.490234	71.253120
9616.261170	4845.450000	1106.349609	63.223755
9616.261170	4845.450000	1105.209961	60.201538
9616.261170	4845.450000	1104.069336	53.255196
9616.261170	4845.450000	1102.928711	15.900559
9616.261170	4845.450000	1101.787109	-1.896427
9616.261170	4845.450000	1100.646484	-69.760460
9616.261170	4845.450000	1099.504883	26.209879
9616.261170	4845.450000	1098.363281	-49.624805
9616.261170	4845.450000	1097.221680	71.574059
9616.261170	4845.450000	1096.079102	54.101707
9616.261170	4845.450000	1094.936523	-25.805964
9616.261170	4845.450000	1093.793945	79.217453
9616.261170	4845.450000	1092.651367	59.113560
9616.261170	4845.450000	1091.507813	101.377998
9616.261170	4845.450000	1090.364258	62.138321
9616.261170	4845.450000	1089.220703	-28.207821
9616.261170	4845.450000	1088.077148	24.236759
9616.261170	4845.450000	1086.933594	61.960793
9616.261170	4845.450000	1085.789063	56.413250
9616.261170	4845.450000	1084.644531	25.561819
9616.261170	4845.450000	1083.499023	-13.585465
9616.261170	4845.450000	1082.354492	75.778961
9616.261170	4845.450000	1081.208984	8.946817
9616.261170	4845.450000	1080.063477	-19.858290
9616.261170	4845.450000	1078.917969	93.483727
9616.261170	4845.450000	1077.771484	180.367096
9616.261170	4845.450000	1076.625977	81.445435
9616.261170	4845.450000	1075.479492	39.830193
9616.261170	4845.450000	1074.332031	1.268394
9616.261170	4845.450000	1073.185547	33.116863
9616.261170	4845.450000	1072.038086	19.223074
9616.261170	4845.450000	1070.890625	22.236261
9616.261170	4845.450000	1069.743164	59.107346
9616.261170	4845.450000	1068.594727	-29.462889
9616.261170	4845.450000	1067.447266	24.344419
9616.261170	4845.450000	1066.298828	109.290207
9616.261170	4845.450000	1065.149414	98.814636
9616.261170	4845.450000	1064.000977	-37.780468
9616.261170	4845.450000	1062.851563	172.572678
9616.261170	4845.450000	1061.702148	51.180382
9616.261170	4845.450000	1060.552734	-31.820374
9616.261170	4845.450000	1059.402344	22.636105
9616.261170	4845.450000	1058.252930	15.543921
9616.261170	4845.450000	1057.102539	60.926544
9616.261170	4845.450000	1055.951172	19.443132
9616.261170	4845.450000	1054.800781	-13.315942
9616.261170	4845.450000	1053.649414	-38.543583
9616.261170	4845.450000	1052.498047	3.009025
9616.261170	4845.450000	1051.346680	-98.441055
9616.261170	4845.450000	1050.194336	-44.200283
9616.261170	4845.450000	1049.042969	-46.649105
9616.261170	4845.450000	1047.890625	111.237976
9616.261170	4845.450000	1046.738281	7.606330
9616.261170	4845.450000	1045.584961	36.678268
9616.261170	4845.450000	1044.431641	-34.671322
9616.261170	4845.450000	1043.278320	-58.559113
9616.261170	4845.450000	1042.125000	-96.570267
9616.261170	4845.450000	1040.971680	138.753494
9616.261170	4845.450000	1039.817383	-10.982751
9616.261170	4845.450000	1038.663086	-6.044909
9616.261170	4845.450000	1037.508789	-21.763271
9616.261170	4845.450000	1036.353516	-27.619204
9616.261170	4845.450000	1035.198242	58.415356
9616.261170	4845.450000	1034.042969	29.228386
9616.261170	4845.450000	1032.887695	-21.772104
9616.261170	4845.450000	1031.732422	77.561638
9616.261170	4845.450000	1030.576172	-13.255468
9616.261170	4845.450000	1029.419922	72.514175
9616.261170	4845.450000	1028.263672	130.604034
9616.261170	4845.450000	1027.106445	-11.358721
9616.261170	4845.450000	1025.949219	131.297409
9616.261170	4845.450000	1024.792969	71.438004
9616.261170	4845.450000	1023.634766	79.206001
9616.261170	4845.450000	1022.477539	-18.622950
9616.261170	4845.450000	1021.319336	-5.112921
9616.261170	4845.450000	1020.161133	5.669334
9616.261170	4845.450000	1019.002930	50.631596
9616.261170	4845.450000	1017.843750	36.981316
9616.261170	4845.450000	1016.684570	166.455002
9616.261170	4845.450000	1015.525391	62.935291
9616.261170	4845.450000	1014.366211	-15.078482
9616.261170	4845.450000	1013.207031	106.304626
9616.261170	4845.450000	1012.046875	146.949982
9616.261170	4845.450000	1010.886719	-39.096516
9616.261170	4845.450000	1009.726563	-8.828211
9616.261170	4845.450000	1008.565430	-12.141961
9616.261170	4845.450000	1007.404297	-11.339990
9616.261170	4845.450000	1006.243164	-15.423924
9616.261170	4845.450000	1005.082031	-39.730602
9616.261170	4845.450000	1003.920898	0.329664
9616.261170	4845.450000	1002.758789	-18.799215
9616.261170	4845.450000	1001.596680	77.748810
9616.261170	4845.450000	1000.433594	-5.234460
9616.261170	4845.450000	999.271484	170.444229
9616.261170	4845.450000	998.108398	139.962631
9616.261170	4845.450000	996.945313	78.236389
9616.261170	4845.450000	995.782227	177.418671
9616.261170	4845.450000	994.618164	142.284149
9616.261170	4845.450000	993.454102	86.061729
9616.261170	4845.450000	992.290039	207.017136
9616.261170	4845.450000	991.125977	193.400223
9616.261170	4845.450000	989.960938	265.931183
9616.261170	4845.450000	988.796875	89.870583
9616.261170	4845.450000	987.630859	133.666885
9616.261170	4845.450000	986.465820	112.207031
9616.261170	4845.450000	985.300781	155.266144
9616.261170	4845.450000	984.134766	200.601974
9616.261170	4845.450000	982.968750	85.759445
9616.261170	4845.450000	981.801758	54.616913
9616.261170	4845.450000	980.635742	5.452387
9616.261170	4845.450000	979.468750	-64.806877
9616.261170	4845.450000	978.301758	91.386505
9616.261170	4845.450000	977.133789	50.844952
9616.261170	4845.450000	975.966797	7.435892
9616.261170	4845.450000	974.798828	95.253029
9616.261170	4845.450000	973.630859	115.859650
9616.261170	4845.450000	972.461914	43.095726
9616.261170	4845.450000	971.293945	-21.258154
9616.261170	4845.450000	970.125000	6.299120
9616.261170	4845.450000	968.956055	42.481754
9616.261170	4845.450000	967.786133	23.674122
9616.261170	4845.450000	966.617188	34.840710
9616.261170	4845.450000	965.447266	11.954743
9616.261170	4845.450000	964.276367	-1.544234
9616.261170	4845.450000	963.106445	-36.192669
9616.261170	4845.450000	961.935547	24.685259
9616.261170	4845.450000	960.764648	-34.437649
9616.261170	4845.450000	959.593750	57.939949
9616.261170	4845.450000	958.422852	-117.709183
9616.261170	4845.450000	957.250977	64.521744
9616.261170	4845.450000	956.079102	16.008148
9616.261170	4845.450000	954.907227	4.116838
9616.261170	4845.450000	953.734375	44.852730
9616.261170	4845.450000	952.562500	-7.859575
9616.261170	4845.450000	951.389648	78.383179
9616.261170	4845.450000	950.215820	2.868447
9616.261170	4845.450000	949.042969	43.453239
9616.261170	4845.450000	947.869141	81.817390
9616.261170	4845.450000	946.695313	-100.735657
9616.261170	4845.450000	945.521484	-94.183075
9616.261170	4845.450000	944.346680	-37.552223
9616.261170	4845.450000	943.172852	73.583298
9616.261170	4845.450000	941.998047	57.300007
9616.261170	4845.450000	940.822266	-20.521879
9616.261170	4845.450000	939.647461	70.206436
9616.261170	4845.450000	938.471680	-5.330176
9616.261170	4845.450000	937.295898	-26.296240
9616.261170	4845.450000	936.119141	41.647552
9616.261170	4845.450000	934.943359	82.363945
9616.261170	4845.450000	933.766602	56.799015
9616.261170	4845.450000	932.589844	49.595863
9616.261170	4845.450000	931.413086	30.991917
9616.261170	4845.450000	930.235352	76.085495
9616.261170	4845.450000	929.057617	116.632507
9616.261170	4845.450000	927.879883	41.058361
9616.261170	4845.450000	926.702148	90.699844
9616.261170	4845.450000	925.523438	92.536125
9616.261170	4845.450000	924.344727	46.572876
9616.261170	4845.450000	923.166016	16.547277
9616.261170	4845.450000	921.987305	70.713348
9616.261170	4845.450000	920.807617	140.779984
9616.261170	4845.450000	919.627930	141.113464
9616.261170	4845.450000	919.497070	-50.691380
9616.261170	4845.450000	918.331055	14.813566
9616.261170	4845.450000	917.165039	-81.121117
9616.261170	4845.450000	915.999023	88.910210
9616.261170	4845.450000	914.833008	102.069992
9616.261170	4845.450000	913.666016	122.037804
9616.261170	4845.450000	912.499023	67.033943
9616.261170	4845.450000	911.332031	-22.016428
9616.261170	4845.450000	910.165039	47.908516
9616.261170	4845.450000	908.997070	-45.647404
9616.261170	4845.450000	907.830078	94.608131
9616.261170	4845.450000	906.661133	-19.346979
9616.261170	4845.450000	905.493164	-65.196236
9616.261170	4845.450000	904.325195	9.190351
9616.261170	4845.450000	903.156250	-18.507681
9616.261170	4845.450000	901.987305	-18.988228
9616.261170	4845.450000	900.818359	73.472443
9616.261170	4845.450000	899.648438	86.568268
9616.261170	4845.450000	898.478516	-15.908164
9616.261170	4845.450000	897.308594	42.507103
9616.261170	4845.450000	896.138672	121.282188
9616.261170	4845.450000	894.968750	-40.023006
9616.261170	4845.450000	893.797852	213.072083
9616.261170	4845.450000	892.626953	155.939850
9616.261170	4845.450000	891.456055	159.936371
9616.261170	4845.450000	890.284180	80.208427
9616.261170	4845.450000	889.113281	244.838181
9616.261170	4845.450000	887.941406	332.498047
9616.261170	4845.450000	886.768555	397.507690
9616.261170	4845.450000	885.596680	238.661209
9616.261170	4845.450000	884.423828	158.993744
9616.261170	4845.450000	883.250977	79.358238
9616.261170	4845.450000	882.078125	164.699081
9616.261170	4845.450000	880.905273	24.099358
9616.261170	4845.450000	879.731445	57.468323
9616.261170	4845.450000	878.557617	104.371986
9616.261170	4845.450000	877.383789	119.648560
9616.261170	4845.450000	876.209961	19.801540
9616.261170	4845.450000	875.035156	17.035078
9616.261170	4845.450000	873.860352	-12.805517
9616.261170	4845.450000	872.685547	90.459267
9616.261170	4845.450000	871.510742	-13.811116
9616.261170	4845.450000	870.334961	33.039623
9616.261170	4845.450000	869.159180	-35.104633
9616.261170	4845.450000	867.983398	-109.982834
9616.261170	4845.450000	866.807617	45.027882
9616.261170	4845.450000	865.630859	6.213696
9616.261170	4845.450000	864.454102	-37.089375
9616.261170	4845.450000	863.277344	-64.609299
9616.261170	4845.450000	862.100586	-69.600899
9616.261170	4845.450000	860.922852	-4.802180
9616.261170	4845.450000	859.745117	39.713696
9616.261170	4845.450000	858.567383	-23.801029
9616.261170	4845.450000	857.389648	9.453017
9616.261170	4845.450000	856.210938	-83.269493
9616.261170	4845.450000	855.032227	-99.490463
9616.261170	4845.450000	853.853516	12.456641
9616.261170	4845.450000	852.674805	-17.263575
9616.261170	4845.450000	851.495117	-62.702591
9616.261170	4845.450000	850.315430	35.688709
9616.261170	4845.450000	849.135742	77.876190
9616.261170	4845.450000	847.956055	-30.442610
9616.261170	4845.450000	846.775391	-53.380447
9616.261170	4845.450000	845.595703	-11.197289
9616.261170	4845.450000	844.415039	-61.064259
9616.261170	4845.450000	843.233398	-9.916624
9616.261170	4845.450000	842.052734	14.285193
9616.261170	4845.450000	840.871094	101.292198
9616.261170	4845.450000	839.689453	15.562411
9616.261170	4845.450000	838.506836	-2.857744
9616.261170	4845.450000	837.325195	-113.189941
9616.261170	4845.450000	836.142578	-6.048899
9616.261170	4845.450000	834.959961	-111.849892
9616.261170	4845.450000	833.777344	-83.170784
9616.261170	4845.450000	832.593750	44.063396
9616.261170	4845.450000	831.410156	52.544781
9616.261170	4845.450000	830.226563	31.914497
9616.261170	4845.450000	829.042969	4.577820
9616.261170	4845.450000	827.858398	-47.367088
9616.261170	4845.450000	826.673828	-20.965405
9616.261170	4845.450000	825.489258	30.037748
9616.261170	4845.450000	824.304688	-21.875700
9616.261170	4845.450000	823.120117	78.311096
9616.261170	4845.450000	821.934570	-45.138924
9616.261170	4845.450000	820.749023	-20.993109
9616.261170	4845.450000	819.562500	-39.321281
9616.261170	4845.450000	818.376953	-4.010707
9616.261170	4845.450000	817.190430	53.628342
9616.261170	4845.450000	816.003906	21.898067
9616.261170	4845.450000	814.817383	-56.714977
9616.261170	4845.450000	813.629883	-41.518650
9616.261170	4845.450000	812.442383	11.621520
9616.261170	4845.450000	811.254883	-102.645576
9616.261170	4845.450000	810.067383	-120.915909
9616.261170	4845.450000	808.878906	3.600559
9616.261170	4845.450000	807.690430	-34.755421
9616.261170	4845.450000	806.501953	129.833496
9616.261170	4845.450000	805.313477	35.731777
9616.261170	4845.450000	804.124023	99.933067
9616.261170	4845.450000	802.934570	37.078884
9616.261170	4845.450000	801.745117	127.992920
9616.261170	4845.450000	800.555664	31.745920
9616.261170	4845.450000	799.365234	-80.050552
9616.261170	4845.450000	798.175781	175.613388
9616.261170	4845.450000	796.985352	88.323929
9616.261170	4845.450000	795.793945	61.169174
9616.261170	4845.450000	794.603516	54.054234
9616.261170	4845.450000	793.412109	91.441299
9616.261170	4845.450000	792.220703	28.713316
9616.261170	4845.450000	791.028320	-29.539890
9616.261170	4845.450000	789.836914	-16.616337
9616.261170	4845.450000	788.644531	-68.166145
9616.261170	4845.450000	787.452148	40.332783
9616.261170	4845.450000	786.258789	35.458054
9616.261170	4845.450000	785.066406	-20.513161
9616.261170	4845.450000	783.873047	61.254360
9616.261170	4845.450000	782.679688	51.936752
9616.261170	4845.450000	781.485352	33.742237
9616.261170	4845.450000	780.291992	57.731419
9616.261170	4845.450000	779.097656	15.129404
9616.261170	4845.450000	777.903320	30.236588
9616.261170	4845.450000	776.708008	29.807812
9616.261170	4845.450000	775.512695	55.994785
9616.261170	4845.450000	774.318359	128.737793
9616.261170	4845.450000	773.122070	114.984627
9616.261170	4845.450000	771.926758	74.636658
9616.261170	4845.450000	770.730469	165.057648
9616.261170	4845.450000	769.534180	204.479141
9616.261170	4845.450000	768.337891	270.465454
9616.261170	4845.450000	767.141602	334.208405
9616.261170	4845.450000	765.944336	366.923218
9616.261170	4845.450000	764.747070	426.188873
9616.261170	4845.450000	763.549805	456.654663
9616.261170	4845.450000	762.351563	409.653259
9616.261170	4845.450000	761.154297	422.406158
9616.261170	4845.450000	759.956055	322.339539
9616.261170	4845.450000	758.757813	264.331696
9616.261170	4845.450000	757.558594	323.533173
9616.261170	4845.450000	756.359375	234.596161
9616.261170	4845.450000	755.160156	368.919647
9616.261170	4845.450000	753.960938	262.327301
9616.261170	4845.450000	752.761719	228.681213
9616.261170	4845.450000	751.561523	203.881729
9616.261170	4845.450000	750.361328	251.964066
9616.261170	4845.450000	749.160156	198.461533
9616.261170	4845.450000	747.959961	213.407166
9616.261170	4845.450000	746.758789	234.964203
9616.261170	4845.450000	745.557617	227.824097
9616.261170	4845.450000	744.356445	192.005051
9616.261170	4845.450000	743.154297	173.841614
9616.261170	4845.450000	741.952148	197.578506
9616.261170	4845.450000	740.750000	287.440186
9616.261170	4845.450000	739.547852	200.925781
9616.261170	4845.450000	738.344727	145.295135
9616.261170	4845.450000	737.142578	138.154541
9616.261170	4845.450000	735.939453	205.907150
9616.261170	4845.450000	734.735352	209.758835
9616.261170	4845.450000	733.532227	149.749054
9616.261170	4845.450000	732.328125	239.455215
9616.261170	4845.450000	731.124023	168.448959
9616.261170	4845.450000	729.918945	214.092636
9616.261170	4845.450000	728.714844	286.111755
9616.261170	4845.450000	727.509766	245.916672
9616.261170	4845.450000	726.303711	82.581718
9616.261170	4845.450000	725.098633	163.359253
9616.261170	4845.450000	723.892578	164.961380
9616.261170	4845.450000	722.686523	116.008362
9616.261170	4845.450000	721.480469	148.367950
9616.261170	4845.450000	720.274414	165.329269
9616.261170	4845.450000	719.067383	116.385483
9616.261170	4845.450000	717.860352	135.527695
9616.261170	4845.450000	716.653320	80.009148
9616.261170	4845.450000	715.445313	103.525612
9616.261170	4845.450000	714.238281	98.495087
9616.261170	4845.450000	713.030273	-35.990543
9616.261170	4845.450000	711.821289	84.028976
9616.261170	4845.450000	710.613281	41.697525
9616.261170	4845.450000	709.404297	56.384521
9616.261170	4845.450000	708.195313	57.903404
9616.261170	4845.450000	706.986328	131.740311
9616.261170	4845.450000	705.776367	43.380993
9616.261170	4845.450000	704.566406	143.461411
9616.261170	4845.450000	703.356445	59.498447
9616.261170	4845.450000	702.146484	122.285164
9616.261170	4845.450000	700.935547	117.162483
9616.261170	4845.450000	699.724609	133.921417
9616.261170	4845.450000	698.513672	113.458038
9616.261170	4845.450000	697.302734	128.001648
9616.261170	4845.450000	696.090820	98.776199
9616.261170	4845.450000	694.878906	137.353745
9616.261170	4845.450000	693.666992	60.008774
9616.261170	4845.450000	692.455078	153.211792
9616.261170	4845.450000	691.242188	-26.858421
9616.261170	4845.450000	690.029297	51.003010
9616.261170	4845.450000	688.816406	85.122581
9616.261170	4845.450000	687.602539	27.470514
9616.261170	4845.450000	686.389648	129.258392
9616.261170	4845.450000	685.175781	141.468109
9616.261170	4845.450000	683.960938	109.999359
9616.261170	4845.450000	682.747070	163.651184
9616.261170	4845.450000	681.532227	9.967180
9616.261170	4845.450000	680.317383	98.497307
9616.261170	4845.450000	679.102539	-22.417305
9616.261170	4845.450000	677.886719	-10.270369
9616.261170	4845.450000	676.670898	38.922184
9616.261170	4845.450000	675.455078	55.382832
9616.261170	4845.450000	674.239258	69.643143
9616.261170	4845.450000	673.022461	5.442772
9616.261170	4845.450000	671.805664	143.849075
9616.261170	4845.450000	670.588867	42.605293
9616.261170	4845.450000	669.372070	8.892169
9616.261170	4845.450000	668.154297	68.791351
9616.261170	4845.450000	666.936523	35.056526
9616.261170	4845.450000	665.718750	105.774696
9616.261170	4845.450000	664.500977	52.433983
9616.261170	4845.450000	663.282227	105.685562
9616.261170	4845.450000	662.063477	67.558578
9616.261170	4845.450000	660.844727	46.826061
9616.261170	4845.450000	659.625000	76.084236
9616.261170	4845.450000	658.405273	14.031231
9616.261170	4845.450000	657.185547	-163.176620
9616.261170	4845.450000	655.965820	13.784516
9616.261170	4845.450000	654.745117	-0.482355
9616.261170	4845.450000	653.525391	-25.617788
9616.261170	4845.450000	652.303711	159.834717
9616.261170	4845.450000	651.083008	47.815849
9616.261170	4845.450000	649.861328	29.143517
9616.261170	4845.450000	648.640625	-13.404747
9616.261170	4845.450000	647.417969	-29.923128
9616.261170	4845.450000	646.196289	-29.101397
9616.261170	4845.450000	644.973633	-106.358788
9616.261170	4845.450000	643.750977	0.667311
9616.261170	4845.450000	642.528320	5.761446
9616.261170	4845.450000	641.305664	-17.335781
9616.261170	4845.450000	640.082031	22.386215
9616.261170	4845.450000	638.858398	157.378006
9616.261170	4845.450000	637.634766	110.385094
9616.261170	4845.450000	636.410156	48.236374
9616.261170	4845.450000	635.185547	102.986725
9616.261170	4845.450000	633.960938	-19.770441
9616.261170	4845.450000	632.736328	-8.342855
9616.261170	4845.450000	631.510742	160.979935
9616.261170	4845.450000	630.285156	-41.795696
9616.261170	4845.450000	629.059570	45.252758
9616.261170	4845.450000	627.833984	41.444054
9616.261170	4845.450000	626.607422	87.329666
9616.261170	4845.450000	625.380859	-44.026119
9616.261170	4845.450000	624.154297	114.165939
9616.261170	4845.450000	622.927734	21.701170
9616.261170	4845.450000	621.700195	-79.383904
9616.261170	4845.450000	620.472656	7.400638
9616.261170	4845.450000	619.245117	7.779575
9616.261170	4845.450000	618.016602	57.776463
9616.261170	4845.450000	616.788086	34.366859
9616.261170	4845.450000	615.559570	103.711365
9616.261170	4845.450000	614.331055	54.377789
9616.261170	4845.450000	613.101563	-20.833992
9616.261170	4845.450000	611.872070	20.387356
9616.261170	4845.450000	610.642578	61.569870
9616.261170	4845.450000	609.413086	1.426893
9616.261170	4845.450000	608.182617	-7.002742
9616.261170	4845.450000	606.952148	-67.148827
9616.261170	4845.450000	605.721680	-34.682774
9616.261170	4845.450000	604.491211	-2.251820
9616.261170	4845.450000	603.259766	-64.578163
9616.261170	4845.450000	602.028320	23.761503
9616.261170	4845.450000	600.796875	32.424160
9616.261170	4845.450000	599.564453	-68.659599
9616.261170	4845.450000	598.332031	45.370369
9616.261170	4845.450000	597.099609	-8.405852
9616.261170	4845.450000	595.867188	-42.830296
9616.261170	4845.450000	594.633789	-96.608650
9616.261170	4845.450000	593.400391	17.243340
9616.261170	4845.450000	592.166992	21.445419
9616.261170	4845.450000	590.933594	-30.228214
9616.261170	4845.450000	589.699219	61.994488
9616.261170	4845.450000	588.464844	-62.716595
9616.261170	4845.450000	587.230469	130.330963
9616.261170	4845.450000	585.995117	130.102524
9616.261170	4845.450000	584.760742	-97.609879
9616.261170	4845.450000	583.525391	3.003123
9616.261170	4845.450000	582.289063	47.781372
9616.261170	4845.450000	581.053711	28.184973
9616.261170	4845.450000	579.817383	8.574718
9616.261170	4845.450000	578.581055	10.387983
9616.261170	4845.450000	577.343750	112.905731
9616.261170	4845.450000	576.107422	37.516930
9616.261170	4845.450000	574.870117	4.982639
9616.261170	4845.450000	573.631836	75.245285
9616.261170	4845.450000	572.394531	74.795265
9616.261170	4845.450000	571.156250	33.646721
9616.261170	4845.450000	569.917969	-52.453003
9616.261170	4845.450000	568.679688	2.699804
9616.261170	4845.450000	567.440430	-27.772429
9616.261170	4845.450000	566.202148	42.283943
9616.261170	4845.450000	564.961914	31.021603
9616.261170	4845.450000	563.722656	-14.464585
9616.261170	4845.450000	562.482422	34.104252
9616.261170	4845.450000	561.243164	14.243464
9616.261170	4845.450000	560.001953	94.795265
9616.261170	4845.450000	558.761719	-6.290052
9616.261170	4845.450000	557.520508	-2.697594
9616.261170	4845.450000	556.279297	77.747665
9616.261170	4845.450000	555.038086	64.202621
9616.261170	4845.450000	553.795898	42.104748
9616.261170	4845.450000	552.554688	2.926917
9616.261170	4845.450000	551.311523	12.815257
9616.261170	4845.450000	550.069336	120.804611
9616.261170	4845.450000	548.826172	98.636703
9616.261170	4845.450000	547.583984	50.875084
9616.261170	4845.450000	546.339844	0.980688
9616.261170	4845.450000	545.096680	119.461426
9616.261170	4845.450000	543.852539	61.014244
9616.261170	4845.450000	542.608398	87.788246
9616.261170	4845.450000	541.364258	-0.481300
9616.261170	4845.450000	540.119141	49.681564
9616.261170	4845.450000	538.875000	4.002953
9616.261170	4845.450000	537.628906	20.050459
9616.261170	4845.450000	536.383789	12.667007
9616.261170	4845.450000	535.137695	90.372871
9616.261170	4845.450000	533.892578	68.053932
9616.261170	4845.450000	532.645508	56.357723
9616.261170	4845.450000	531.399414	-74.417839
9616.261170	4845.450000	530.152344	15.927354
9616.261170	4845.450000	528.905273	-127.569267
9616.261170	4845.450000	527.658203	54.086620
9616.261170	4845.450000	526.410156	-15.035147
9616.261170	4845.450000	525.163086	-11.925717
9616.261170	4845.450000	523.914063	86.721390
9616.261170	4845.450000	522.666016	17.591286
9616.261170	4845.450000	521.416992	14.274794
9616.261170	4845.450000	520.167969	55.510105
9616.261170	4845.450000	518.918945	9.723680
9616.261170	4845.450000	517.669922	-142.119461
9616.261170	4845.450000	516.419922	-134.854599
9616.261170	4845.450000	515.169922	-8.868993
9616.261170	4845.450000	513.919922	-29.222290
9616.261170	4845.450000	512.668945	-72.896049
9616.261170	4845.450000	511.417969	-141.992111
9616.261170	4845.450000	510.166992	-90.316948
9616.261170	4845.450000	508.916016	-9.024684
9616.261170	4845.450000	507.664063	-67.543709
9616.261170	4845.450000	506.412109	-102.761986
9616.261170	4845.450000	505.160156	-106.227432
9616.261170	4845.450000	503.907227	-52.567959
9616.261170	4845.450000	502.655273	-51.836411
9616.261170	4845.450000	501.402344	-110.348564
9616.261170	4845.450000	500.148438	-113.863335
9616.261170	4845.450000	498.895508	9.478071
9616.261170	4845.450000	497.641602	-72.301315
9616.261170	4845.450000	496.387695	-61.063541
9616.261170	4845.450000	495.132813	-83.653160
9616.261170	4845.450000	493.878906	-66.103401
9616.261170	4845.450000	492.624023	35.910397
9616.261170	4845.450000	491.368164	13.277467
9616.261170	4845.450000	490.113281	18.091051
9616.261170	4845.450000	488.857422	79.879616
9616.261170	4845.450000	487.601563	23.452736
9616.261170	4845.450000	486.344727	80.968925
9616.261170	4845.450000	485.088867	1.339804
9616.261170	4845.450000	483.832031	14.525618
9616.261170	4845.450000	482.575195	-18.692631
9616.261170	4845.450000	481.317383	51.384014
9616.261170	4845.450000	480.059570	60.299000
9616.261170	4845.450000	478.801758	94.484421
9616.261170	4845.450000	477.543945	109.683403
9616.261170	4845.450000	476.285156	-9.935705
9616.261170	4845.450000	475.027344	-1.061118
9616.261170	4845.450000	473.767578	-17.469950
9616.261170	4845.450000	472.508789	6.111053
9616.261170	4845.450000	471.249023	17.041010
9616.261170	4845.450000	469.989258	17.434832
9616.261170	4845.450000	468.729492	5.194946
9616.261170	4845.450000	467.469727	35.008919
9616.261170	4845.450000	466.208984	50.077122
9616.261170	4845.450000	464.948242	90.351089
9616.261170	4845.450000	463.686523	19.203737
9616.261170	4845.450000	462.425781	55.238331
9616.261170	4845.450000	461.164063	-20.099642
9616.261170	4845.450000	459.901367	102.008568
9616.261170	4845.450000	458.639648	-25.831839
9616.261170	4845.450000	457.376953	62.605255
9616.261170	4845.450000	456.114258	16.655802
9616.261170	4845.450000	454.851563	54.650932
9616.261170	4845.450000	453.587891	21.277008
9616.261170	4845.450000	452.324219	-16.293894
9616.261170	4845.450000	451.060547	97.128891
9616.261170	4845.450000	449.796875	36.459633
9616.261170	4845.450000	448.532227	24.009758
9616.261170	4845.450000	447.267578	3.163431
9616.261170	4845.450000	446.002930	-44.932758
9616.261170	4845.450000	444.737305	59.895519
9616.261170	4845.450000	443.471680	36.897842
9616.261170	4845.450000	442.206055	15.982411
9616.261170	4845.450000	440.940430	101.823257
9616.261170	4845.450000	439.673828	-42.636208
9616.261170	4845.450000	438.407227	174.965073
9616.261170	4845.450000	437.140625	172.770721
9616.261170	4845.450000	435.873047	17.853876
9616.261170	4845.450000	434.605469	-32.459896
9616.261170	4845.450000	433.337891	78.211937
9616.261170	4845.450000	432.070313	130.277237
9616.261170	4845.450000	430.801758	8.825714
9616.261170	4845.450000	429.533203	156.933563
9616.261170	4845.450000	428.264648	-31.382833
9616.261170	4845.450000	426.996094	156.285904
9616.261170	4845.450000	425.726563	70.295540
9616.261170	4845.450000	424.457031	49.022945
9616.261170	4845.450000	423.186523	13.108384
9616.261170	4845.450000	421.916992	91.943275
9616.261170	4845.450000	420.646484	28.832853
9616.261170	4845.450000	419.375977	55.397530
9616.261170	4845.450000	418.104492	48.537457
9616.261170	4845.450000	416.833008	-37.592827
9616.261170	4845.450000	415.561523	24.263693
9616.261170	4845.450000	414.290039	36.027550
9616.261170	4845.450000	413.017578	124.822624
9616.261170	4845.450000	411.746094	34.381680
9616.261170	4845.450000	410.472656	60.546700
9616.261170	4845.450000	409.200195	88.727425
9616.261170	4845.450000	407.926758	41.889828
9616.261170	4845.450000	406.653320	61.611519
9616.261170	4845.450000	405.379883	25.076700
9616.261170	4845.450000	404.105469	77.944077
9616.261170	4845.450000	402.831055	116.159325
9616.261170	4845.450000	401.556641	27.436207
9616.261170	4845.450000	400.282227	36.391205
9616.261170	4845.450000	399.006836	7.846539
9616.261170	4845.450000	397.731445	49.889858
9616.261170	4845.450000	396.456055	-3.742478
9616.261170	4845.450000	395.179688	56.805950
9616.261170	4845.450000	393.903320	9.244777
9616.261170	4845.450000	392.626953	48.817398
9616.261170	4845.450000	391.350586	3.164582
9616.261170	4845.450000	390.073242	129.688477
9616.261170	4845.450000	388.795898	-1.244186
9616.261170	4845.450000	387.518555	104.269760
9616.261170	4845.450000	386.240234	103.843811
9616.261170	4845.450000	384.961914	1.695212
9616.261170	4845.450000	383.683594	1.057364
9616.261170	4845.450000	382.405273	16.878895
9616.261170	4845.450000	381.125977	76.079636
9616.261170	4845.450000	379.846680	-72.060303
9616.261170	4845.450000	378.567383	98.720360
9616.261170	4845.450000	377.287109	109.819290
9616.261170	4845.450000	376.006836	71.077080
9616.261170	4845.450000	374.726563	191.592514
9616.261170	4845.450000	373.446289	57.343170
9616.261170	4845.450000	372.165039	45.064129
9616.261170	4845.450000	370.883789	100.891304
9616.261170	4845.450000	369.602539	40.702259
9616.261170	4845.450000	368.320313	25.848467
9616.261170	4845.450000	367.039063	-73.935860
9616.261170	4845.450000	365.755859	-60.199009
9616.261170	4845.450000	364.473633	-44.589748
9616.261170	4845.450000	363.190430	-51.919582
9616.261170	4845.450000	361.907227	-30.535610
9616.261170	4845.450000	360.624023	31.927467
9616.261170	4845.450000	359.340820	-2.893727
9616.261170	4845.450000	358.056641	-9.034434
9616.261170	4845.450000	356.772461	-58.744114
9616.261170	4845.450000	355.487305	33.685429
9616.261170	4845.450000	354.202148	-18.570957
9616.261170	4845.450000	352.916992	-46.311573
9616.261170	4845.450000	351.631836	39.102600
9616.261170	4845.450000	350.346680	14.950549
9616.261170	4845.450000	349.060547	-38.332401
9616.261170	4845.450000	347.774414	-65.092361
9616.261170	4845.450000	346.487305	-67.423637
9616.261170	4845.450000	345.200195	-10.327589
9616.261170	4845.450000	343.913086	9.363939
9616.261170	4845.450000	342.625977	49.312557
9616.261170	4845.450000	341.338867	-3.712901
9616.261170	4845.450000	340.050781	109.622673
9616.261170	4845.450000	338.762695	76.479683
9616.261170	4845.450000	337.473633	86.176628
9616.261170	4845.450000	336.184570	-136.890182
9616.261170	4845.450000	334.895508	-51.828026
9616.261170	4845.450000	333.606445	-24.753160
9616.261170	4845.450000	332.317383	8.072399
9616.261170	4845.450000	331.027344	9.637405
9616.261170	4845.450000	329.736328	140.183792
9616.261170	4845.450000	328.446289	-15.235924
9616.261170	4845.450000	327.155273	-23.204548
9616.261170	4845.450000	325.864258	52.539406
9616.261170	4845.450000	324.573242	-22.055647
9616.261170	4845.450000	323.281250	1.380237
9616.261170	4845.450000	321.989258	-29.035278
9616.261170	4845.450000	320.697266	-103.024506
9616.261170	4845.450000	319.405273	-48.312458
9616.261170	4845.450000	318.112305	-106.943954
9616.261170	4845.450000	316.819336	-10.319023
9616.261170	4845.450000	315.526367	-41.364227
9616.261170	4845.450000	314.232422	41.742596
9616.261170	4845.450000	312.938477	-78.583305
9616.261170	4845.450000	311.644531	56.531868
9616.261170	4845.450000	310.349609	135.656036
9616.261170	4845.450000	309.054688	56.471397
9616.261170	4845.450000	307.759766	52.385986
9616.261170	4845.450000	306.464844	14.884640
9616.261170	4845.450000	305.168945	27.828844
9616.261170	4845.450000	303.873047	107.549377
9616.261170	4845.450000	302.577148	168.100876
9616.261170	4845.450000	301.281250	92.944359
9616.261170	4845.450000	299.984375	196.902588
