#X		#Y		#Wave		#Intensity
10118.855851	5291.350000	1999.946289	247.423477
10118.855851	5291.350000	1998.981445	174.954895
10118.855851	5291.350000	1998.017578	2.048854
10118.855851	5291.350000	1997.052734	67.188164
10118.855851	5291.350000	1996.088867	-63.345352
10118.855851	5291.350000	1995.124023	-12.917065
10118.855851	5291.350000	1994.159180	-215.055649
10118.855851	5291.350000	1993.193359	-199.133057
10118.855851	5291.350000	1992.228516	-49.445580
10118.855851	5291.350000	1991.262695	63.126572
10118.855851	5291.350000	1990.296875	17.333368
10118.855851	5291.350000	1989.331055	92.873451
10118.855851	5291.350000	1988.365234	-2.252756
10118.855851	5291.350000	1987.398438	-141.804718
10118.855851	5291.350000	1986.432617	-98.233162
10118.855851	5291.350000	1985.465820	-76.873299
10118.855851	5291.350000	1984.499023	26.118902
10118.855851	5291.350000	1983.532227	94.526276
10118.855851	5291.350000	1982.565430	61.643425
10118.855851	5291.350000	1981.597656	14.000518
10118.855851	5291.350000	1980.629883	40.536186
10118.855851	5291.350000	1979.662109	47.353241
10118.855851	5291.350000	1978.694336	125.829414
10118.855851	5291.350000	1977.726563	142.600311
10118.855851	5291.350000	1976.758789	53.265888
10118.855851	5291.350000	1975.790039	-85.352654
10118.855851	5291.350000	1974.821289	-48.680561
10118.855851	5291.350000	1973.852539	-39.119236
10118.855851	5291.350000	1972.883789	46.944118
10118.855851	5291.350000	1971.915039	56.562279
10118.855851	5291.350000	1970.945313	-113.785500
10118.855851	5291.350000	1969.975586	-91.743294
10118.855851	5291.350000	1969.005859	68.354080
10118.855851	5291.350000	1968.036133	87.957436
10118.855851	5291.350000	1967.066406	147.006912
10118.855851	5291.350000	1966.096680	161.723404
10118.855851	5291.350000	1965.125977	6.517198
10118.855851	5291.350000	1964.155273	-23.014591
10118.855851	5291.350000	1963.184570	77.980858
10118.855851	5291.350000	1962.213867	33.729931
10118.855851	5291.350000	1961.242188	102.731506
10118.855851	5291.350000	1960.271484	144.665161
10118.855851	5291.350000	1959.299805	-138.146408
10118.855851	5291.350000	1958.328125	41.606766
10118.855851	5291.350000	1957.356445	34.405102
10118.855851	5291.350000	1956.384766	69.026894
10118.855851	5291.350000	1955.412109	86.444443
10118.855851	5291.350000	1954.439453	-50.977592
10118.855851	5291.350000	1953.467773	-31.051828
10118.855851	5291.350000	1952.495117	195.272400
10118.855851	5291.350000	1951.521484	148.846802
10118.855851	5291.350000	1950.548828	26.313667
10118.855851	5291.350000	1949.575195	110.113968
10118.855851	5291.350000	1948.601563	58.859467
10118.855851	5291.350000	1947.627930	231.017624
10118.855851	5291.350000	1946.654297	147.876221
10118.855851	5291.350000	1945.680664	-84.907806
10118.855851	5291.350000	1944.706055	52.863342
10118.855851	5291.350000	1943.732422	82.663956
10118.855851	5291.350000	1942.757813	58.506100
10118.855851	5291.350000	1941.783203	2.488902
10118.855851	5291.350000	1940.807617	66.624207
10118.855851	5291.350000	1939.833008	113.584579
10118.855851	5291.350000	1938.857422	170.334351
10118.855851	5291.350000	1937.881836	170.713409
10118.855851	5291.350000	1936.906250	53.510216
10118.855851	5291.350000	1935.930664	12.280828
10118.855851	5291.350000	1934.955078	-24.032461
10118.855851	5291.350000	1933.978516	91.467598
10118.855851	5291.350000	1933.001953	128.593613
10118.855851	5291.350000	1932.025391	-64.352707
10118.855851	5291.350000	1931.048828	38.859089
10118.855851	5291.350000	1930.072266	225.214844
10118.855851	5291.350000	1929.094727	117.971245
10118.855851	5291.350000	1928.118164	-123.741501
10118.855851	5291.350000	1927.140625	-111.069160
10118.855851	5291.350000	1926.163086	53.169136
10118.855851	5291.350000	1925.184570	53.578766
10118.855851	5291.350000	1924.207031	46.654732
10118.855851	5291.350000	1923.228516	-28.683739
10118.855851	5291.350000	1922.250000	15.704718
10118.855851	5291.350000	1921.271484	-59.606537
10118.855851	5291.350000	1920.292969	-200.826859
10118.855851	5291.350000	1919.314453	-0.186061
10118.855851	5291.350000	1918.334961	-65.701263
10118.855851	5291.350000	1917.355469	-131.197342
10118.855851	5291.350000	1916.375977	-11.221966
10118.855851	5291.350000	1915.396484	40.391071
10118.855851	5291.350000	1914.416992	-122.674446
10118.855851	5291.350000	1913.436523	-49.123077
10118.855851	5291.350000	1912.457031	19.517931
10118.855851	5291.350000	1911.476563	97.877823
10118.855851	5291.350000	1910.496094	88.454582
10118.855851	5291.350000	1909.515625	1.044367
10118.855851	5291.350000	1908.534180	-54.666756
10118.855851	5291.350000	1907.552734	52.851482
10118.855851	5291.350000	1906.572266	-102.722672
10118.855851	5291.350000	1905.590820	9.618413
10118.855851	5291.350000	1904.608398	-11.999493
10118.855851	5291.350000	1903.626953	73.489838
10118.855851	5291.350000	1902.644531	51.850864
10118.855851	5291.350000	1901.663086	-57.387253
10118.855851	5291.350000	1900.680664	-10.890735
10118.855851	5291.350000	1899.698242	93.957237
10118.855851	5291.350000	1898.714844	-10.392611
10118.855851	5291.350000	1897.732422	60.356571
10118.855851	5291.350000	1896.749023	19.240179
10118.855851	5291.350000	1895.765625	36.464451
10118.855851	5291.350000	1894.782227	-101.856956
10118.855851	5291.350000	1893.798828	31.988253
10118.855851	5291.350000	1892.814453	37.023560
10118.855851	5291.350000	1891.831055	17.759823
10118.855851	5291.350000	1890.846680	51.915478
10118.855851	5291.350000	1889.862305	5.928306
10118.855851	5291.350000	1888.877930	76.464249
10118.855851	5291.350000	1887.892578	-141.846298
10118.855851	5291.350000	1886.908203	69.407547
10118.855851	5291.350000	1885.922852	35.538887
10118.855851	5291.350000	1884.937500	-10.455336
10118.855851	5291.350000	1883.952148	-3.089817
10118.855851	5291.350000	1882.965820	-41.807915
10118.855851	5291.350000	1881.980469	6.751583
10118.855851	5291.350000	1880.994141	26.195160
10118.855851	5291.350000	1880.007813	14.117972
10118.855851	5291.350000	1879.021484	-123.955582
10118.855851	5291.350000	1878.035156	-53.659306
10118.855851	5291.350000	1877.047852	144.962341
10118.855851	5291.350000	1876.061523	86.819542
10118.855851	5291.350000	1875.074219	-48.786968
10118.855851	5291.350000	1874.086914	9.294690
10118.855851	5291.350000	1873.098633	-46.404774
10118.855851	5291.350000	1872.111328	52.768093
10118.855851	5291.350000	1871.123047	18.833189
10118.855851	5291.350000	1870.135742	96.165199
10118.855851	5291.350000	1869.147461	-17.591970
10118.855851	5291.350000	1868.158203	69.366356
10118.855851	5291.350000	1867.169922	120.020409
10118.855851	5291.350000	1866.180664	-10.629517
10118.855851	5291.350000	1865.192383	112.494499
10118.855851	5291.350000	1864.203125	3.618310
10118.855851	5291.350000	1863.213867	-182.527451
10118.855851	5291.350000	1862.223633	112.002426
10118.855851	5291.350000	1861.234375	39.376274
10118.855851	5291.350000	1860.244141	-110.490669
10118.855851	5291.350000	1859.253906	-52.724636
10118.855851	5291.350000	1858.263672	-28.777725
10118.855851	5291.350000	1857.273438	-41.043423
10118.855851	5291.350000	1856.282227	-50.903240
10118.855851	5291.350000	1855.291992	151.486588
10118.855851	5291.350000	1854.300781	-85.111618
10118.855851	5291.350000	1853.309570	-29.888988
10118.855851	5291.350000	1852.317383	54.229008
10118.855851	5291.350000	1851.326172	66.001259
10118.855851	5291.350000	1850.333984	12.694891
10118.855851	5291.350000	1849.342773	48.543438
10118.855851	5291.350000	1848.350586	125.317413
10118.855851	5291.350000	1847.357422	-82.135475
10118.855851	5291.350000	1846.365234	-80.030846
10118.855851	5291.350000	1845.372070	-73.122643
10118.855851	5291.350000	1844.379883	-46.968746
10118.855851	5291.350000	1843.386719	123.557724
10118.855851	5291.350000	1842.393555	34.151516
10118.855851	5291.350000	1841.399414	-14.335581
10118.855851	5291.350000	1840.406250	-202.313904
10118.855851	5291.350000	1839.412109	105.146095
10118.855851	5291.350000	1838.417969	47.028763
10118.855851	5291.350000	1837.423828	34.597370
10118.855851	5291.350000	1836.429688	43.792450
10118.855851	5291.350000	1835.434570	230.790939
10118.855851	5291.350000	1834.440430	158.244141
10118.855851	5291.350000	1833.445313	4.045357
10118.855851	5291.350000	1832.450195	-73.253128
10118.855851	5291.350000	1831.454102	-23.272739
10118.855851	5291.350000	1830.458984	41.086109
10118.855851	5291.350000	1829.462891	88.609764
10118.855851	5291.350000	1828.466797	-5.479073
10118.855851	5291.350000	1827.470703	1.231325
10118.855851	5291.350000	1826.474609	-114.410789
10118.855851	5291.350000	1825.478516	103.362259
10118.855851	5291.350000	1824.481445	-12.272644
10118.855851	5291.350000	1823.484375	-75.125969
10118.855851	5291.350000	1822.487305	-85.227875
10118.855851	5291.350000	1821.490234	-64.177383
10118.855851	5291.350000	1820.493164	31.138407
10118.855851	5291.350000	1819.495117	138.388535
10118.855851	5291.350000	1818.498047	89.901268
10118.855851	5291.350000	1817.500000	-68.736420
10118.855851	5291.350000	1816.500977	-19.014671
10118.855851	5291.350000	1815.502930	-33.951862
10118.855851	5291.350000	1814.504883	235.929138
10118.855851	5291.350000	1813.505859	36.674282
10118.855851	5291.350000	1812.506836	95.882835
10118.855851	5291.350000	1811.507813	37.850334
10118.855851	5291.350000	1810.508789	101.806854
10118.855851	5291.350000	1809.508789	165.731445
10118.855851	5291.350000	1808.508789	88.572998
10118.855851	5291.350000	1807.508789	90.316986
10118.855851	5291.350000	1806.508789	-15.487659
10118.855851	5291.350000	1805.508789	41.219723
10118.855851	5291.350000	1804.508789	21.454369
10118.855851	5291.350000	1803.507813	85.286118
10118.855851	5291.350000	1802.506836	98.940269
10118.855851	5291.350000	1801.505859	117.358826
10118.855851	5291.350000	1800.504883	21.183487
10118.855851	5291.350000	1799.502930	15.731640
10118.855851	5291.350000	1798.501953	222.651077
10118.855851	5291.350000	1797.500000	-30.965559
10118.855851	5291.350000	1796.498047	118.625610
10118.855851	5291.350000	1795.496094	117.910042
10118.855851	5291.350000	1794.493164	-11.569320
10118.855851	5291.350000	1793.491211	-126.698830
10118.855851	5291.350000	1792.488281	13.244500
10118.855851	5291.350000	1791.485352	43.509926
10118.855851	5291.350000	1790.482422	85.672752
10118.855851	5291.350000	1789.478516	89.699722
10118.855851	5291.350000	1788.475586	38.943787
10118.855851	5291.350000	1787.471680	112.026321
10118.855851	5291.350000	1786.467773	13.660475
10118.855851	5291.350000	1785.463867	-18.021816
10118.855851	5291.350000	1784.459961	62.158752
10118.855851	5291.350000	1783.455078	151.822235
10118.855851	5291.350000	1782.450195	136.772598
10118.855851	5291.350000	1781.445313	-132.778137
10118.855851	5291.350000	1780.440430	-33.626266
10118.855851	5291.350000	1779.435547	-5.843943
10118.855851	5291.350000	1778.429688	78.975983
10118.855851	5291.350000	1777.424805	223.180634
10118.855851	5291.350000	1776.418945	44.151588
10118.855851	5291.350000	1775.413086	45.750946
10118.855851	5291.350000	1774.406250	28.342878
10118.855851	5291.350000	1773.400391	56.064068
10118.855851	5291.350000	1772.393555	52.903027
10118.855851	5291.350000	1771.386719	182.686188
10118.855851	5291.350000	1770.379883	75.060150
10118.855851	5291.350000	1769.373047	-20.661524
10118.855851	5291.350000	1768.365234	54.482498
10118.855851	5291.350000	1767.358398	41.825203
10118.855851	5291.350000	1766.350586	124.040138
10118.855851	5291.350000	1765.342773	-0.082863
10118.855851	5291.350000	1764.334961	-62.517345
10118.855851	5291.350000	1763.326172	97.888451
10118.855851	5291.350000	1762.318359	-106.742447
10118.855851	5291.350000	1761.309570	141.280106
10118.855851	5291.350000	1760.300781	43.323082
10118.855851	5291.350000	1759.291016	94.623207
10118.855851	5291.350000	1758.282227	86.700470
10118.855851	5291.350000	1757.272461	36.159077
10118.855851	5291.350000	1756.262695	18.778116
10118.855851	5291.350000	1755.252930	195.481506
10118.855851	5291.350000	1754.243164	-58.561245
10118.855851	5291.350000	1753.233398	-47.525818
10118.855851	5291.350000	1752.222656	131.451447
10118.855851	5291.350000	1751.211914	33.653549
10118.855851	5291.350000	1750.201172	91.953606
10118.855851	5291.350000	1749.190430	34.389309
10118.855851	5291.350000	1748.179688	-138.972366
10118.855851	5291.350000	1747.167969	-97.217453
10118.855851	5291.350000	1746.156250	-93.282211
10118.855851	5291.350000	1745.144531	-37.377983
10118.855851	5291.350000	1744.132813	110.617386
10118.855851	5291.350000	1743.121094	-69.679321
10118.855851	5291.350000	1742.108398	139.650253
10118.855851	5291.350000	1741.095703	18.428629
10118.855851	5291.350000	1740.083008	-131.067245
10118.855851	5291.350000	1739.070313	30.963482
10118.855851	5291.350000	1738.057617	-35.905865
10118.855851	5291.350000	1737.043945	-112.185135
10118.855851	5291.350000	1736.030273	122.855408
10118.855851	5291.350000	1735.016602	129.099640
10118.855851	5291.350000	1734.002930	-55.603260
10118.855851	5291.350000	1732.989258	-28.113550
10118.855851	5291.350000	1731.974609	11.148280
10118.855851	5291.350000	1730.959961	-161.645172
10118.855851	5291.350000	1729.945313	-28.148130
10118.855851	5291.350000	1728.930664	37.000328
10118.855851	5291.350000	1727.916016	10.294412
10118.855851	5291.350000	1726.900391	91.891769
10118.855851	5291.350000	1725.885742	44.004196
10118.855851	5291.350000	1724.870117	130.274063
10118.855851	5291.350000	1723.853516	30.635027
10118.855851	5291.350000	1722.837891	-31.324167
10118.855851	5291.350000	1721.822266	87.843185
10118.855851	5291.350000	1720.805664	-112.839523
10118.855851	5291.350000	1719.789063	-191.188995
10118.855851	5291.350000	1718.772461	-220.143127
10118.855851	5291.350000	1717.754883	42.333656
10118.855851	5291.350000	1716.738281	-38.343769
10118.855851	5291.350000	1715.720703	29.014378
10118.855851	5291.350000	1714.703125	166.812576
10118.855851	5291.350000	1713.685547	20.409800
10118.855851	5291.350000	1712.667969	-17.931202
10118.855851	5291.350000	1711.649414	91.633789
10118.855851	5291.350000	1710.630859	-31.194366
10118.855851	5291.350000	1709.612305	122.920822
10118.855851	5291.350000	1708.593750	-39.744198
10118.855851	5291.350000	1707.575195	-101.480873
10118.855851	5291.350000	1706.555664	-3.718398
10118.855851	5291.350000	1705.536133	-4.470298
10118.855851	5291.350000	1704.516602	48.700024
10118.855851	5291.350000	1703.497070	52.632477
10118.855851	5291.350000	1702.477539	133.898911
10118.855851	5291.350000	1701.457031	236.222977
10118.855851	5291.350000	1700.437500	1.191265
10118.855851	5291.350000	1699.416992	49.640675
10118.855851	5291.350000	1698.395508	58.266098
10118.855851	5291.350000	1697.375000	-8.023607
10118.855851	5291.350000	1696.354492	115.313568
10118.855851	5291.350000	1695.333008	-9.462571
10118.855851	5291.350000	1694.311523	169.988907
10118.855851	5291.350000	1693.290039	-85.746002
10118.855851	5291.350000	1692.267578	138.096924
10118.855851	5291.350000	1691.246094	-70.756149
10118.855851	5291.350000	1690.223633	-27.021475
10118.855851	5291.350000	1689.201172	-4.337157
10118.855851	5291.350000	1688.178711	97.804680
10118.855851	5291.350000	1687.155273	12.976878
10118.855851	5291.350000	1686.132813	98.731239
10118.855851	5291.350000	1685.109375	79.346176
10118.855851	5291.350000	1684.085938	31.949188
10118.855851	5291.350000	1683.062500	42.947086
10118.855851	5291.350000	1682.039063	116.974213
10118.855851	5291.350000	1681.014648	-35.418541
10118.855851	5291.350000	1679.990234	71.272766
10118.855851	5291.350000	1678.965820	128.933456
10118.855851	5291.350000	1677.941406	-30.356812
10118.855851	5291.350000	1676.916992	-35.657055
10118.855851	5291.350000	1675.891602	180.561188
10118.855851	5291.350000	1674.866211	5.048419
10118.855851	5291.350000	1673.840820	41.712898
10118.855851	5291.350000	1672.815430	197.217789
10118.855851	5291.350000	1671.790039	101.036293
10118.855851	5291.350000	1670.763672	-16.069202
10118.855851	5291.350000	1669.737305	-58.595306
10118.855851	5291.350000	1668.710938	176.001022
10118.855851	5291.350000	1667.684570	140.449829
10118.855851	5291.350000	1666.658203	-65.001755
10118.855851	5291.350000	1665.630859	57.769043
10118.855851	5291.350000	1664.603516	254.955032
10118.855851	5291.350000	1663.576172	191.522598
10118.855851	5291.350000	1662.548828	156.030899
10118.855851	5291.350000	1661.520508	250.781906
10118.855851	5291.350000	1660.493164	147.880341
10118.855851	5291.350000	1659.464844	247.257782
10118.855851	5291.350000	1658.436523	128.139725
10118.855851	5291.350000	1657.408203	162.433426
10118.855851	5291.350000	1656.378906	431.360870
10118.855851	5291.350000	1655.350586	449.336761
10118.855851	5291.350000	1654.321289	221.148697
10118.855851	5291.350000	1653.291992	294.894684
10118.855851	5291.350000	1652.261719	278.083313
10118.855851	5291.350000	1651.232422	272.890961
10118.855851	5291.350000	1650.202148	5.491501
10118.855851	5291.350000	1649.171875	165.089874
10118.855851	5291.350000	1648.141602	252.725677
10118.855851	5291.350000	1647.111328	440.058655
10118.855851	5291.350000	1646.080078	260.971008
10118.855851	5291.350000	1645.049805	290.603363
10118.855851	5291.350000	1644.018555	417.577911
10118.855851	5291.350000	1642.987305	67.137154
10118.855851	5291.350000	1641.955078	217.288773
10118.855851	5291.350000	1640.923828	184.391144
10118.855851	5291.350000	1639.891602	262.680786
10118.855851	5291.350000	1638.859375	364.103241
10118.855851	5291.350000	1637.827148	294.177185
10118.855851	5291.350000	1636.794922	233.544739
10118.855851	5291.350000	1635.761719	230.797653
10118.855851	5291.350000	1634.729492	339.120850
10118.855851	5291.350000	1633.696289	412.709442
10118.855851	5291.350000	1632.662109	389.137268
10118.855851	5291.350000	1631.628906	256.899750
10118.855851	5291.350000	1630.594727	328.173492
10118.855851	5291.350000	1629.561523	369.379669
10118.855851	5291.350000	1628.527344	262.669556
10118.855851	5291.350000	1627.493164	158.319641
10118.855851	5291.350000	1626.458008	229.590729
10118.855851	5291.350000	1625.423828	217.693939
10118.855851	5291.350000	1624.388672	372.076508
10118.855851	5291.350000	1623.353516	237.806915
10118.855851	5291.350000	1622.318359	198.240723
10118.855851	5291.350000	1621.282227	133.311569
10118.855851	5291.350000	1620.247070	338.391632
10118.855851	5291.350000	1619.210938	197.346695
10118.855851	5291.350000	1618.174805	215.519623
10118.855851	5291.350000	1617.137695	321.326538
10118.855851	5291.350000	1616.101563	284.151733
10118.855851	5291.350000	1615.064453	436.027588
10118.855851	5291.350000	1614.027344	315.891144
10118.855851	5291.350000	1612.990234	253.418762
10118.855851	5291.350000	1611.953125	345.340973
10118.855851	5291.350000	1610.916016	303.638336
10118.855851	5291.350000	1609.877930	227.415985
10118.855851	5291.350000	1608.839844	360.764252
10118.855851	5291.350000	1607.801758	413.497192
10118.855851	5291.350000	1606.763672	346.535309
10118.855851	5291.350000	1605.724609	344.041840
10118.855851	5291.350000	1604.685547	327.756073
10118.855851	5291.350000	1603.646484	490.909454
10118.855851	5291.350000	1602.607422	467.722839
10118.855851	5291.350000	1601.568359	414.663025
10118.855851	5291.350000	1600.528320	334.047729
10118.855851	5291.350000	1599.489258	324.728180
10118.855851	5291.350000	1598.449219	336.105225
10118.855851	5291.350000	1597.408203	349.785461
10118.855851	5291.350000	1596.368164	423.197205
10118.855851	5291.350000	1595.327148	512.669128
10118.855851	5291.350000	1594.287109	436.786743
10118.855851	5291.350000	1593.246094	399.974487
10118.855851	5291.350000	1592.204102	461.886780
10118.855851	5291.350000	1591.163086	599.519165
10118.855851	5291.350000	1590.121094	365.406555
10118.855851	5291.350000	1589.079102	422.736206
10118.855851	5291.350000	1588.037109	392.899811
10118.855851	5291.350000	1586.995117	425.000946
10118.855851	5291.350000	1585.953125	248.469360
10118.855851	5291.350000	1584.910156	324.161957
10118.855851	5291.350000	1583.867188	473.173218
10118.855851	5291.350000	1582.824219	280.732666
10118.855851	5291.350000	1581.781250	338.083588
10118.855851	5291.350000	1580.737305	292.355347
10118.855851	5291.350000	1579.693359	310.777130
10118.855851	5291.350000	1578.649414	283.413452
10118.855851	5291.350000	1577.605469	388.839600
10118.855851	5291.350000	1576.561523	432.444336
10118.855851	5291.350000	1575.516602	320.447906
10118.855851	5291.350000	1574.472656	249.687317
10118.855851	5291.350000	1573.427734	371.099213
10118.855851	5291.350000	1572.381836	154.024994
10118.855851	5291.350000	1571.336914	433.194641
10118.855851	5291.350000	1570.291016	357.947693
10118.855851	5291.350000	1569.246094	330.738678
10118.855851	5291.350000	1568.200195	125.320770
10118.855851	5291.350000	1567.153320	260.400604
10118.855851	5291.350000	1566.107422	317.780304
10118.855851	5291.350000	1565.060547	418.540741
10118.855851	5291.350000	1564.013672	389.131073
10118.855851	5291.350000	1562.966797	323.221313
10118.855851	5291.350000	1561.919922	364.622101
10118.855851	5291.350000	1560.872070	485.886902
10118.855851	5291.350000	1559.825195	591.148193
10118.855851	5291.350000	1558.777344	361.073547
10118.855851	5291.350000	1557.729492	482.309692
10118.855851	5291.350000	1556.680664	316.218811
10118.855851	5291.350000	1555.632813	325.741913
10118.855851	5291.350000	1554.583984	314.761383
10118.855851	5291.350000	1553.535156	294.685760
10118.855851	5291.350000	1552.486328	340.703583
10118.855851	5291.350000	1551.436523	341.160431
10118.855851	5291.350000	1550.387695	173.103165
10118.855851	5291.350000	1549.337891	367.164795
10118.855851	5291.350000	1548.288086	490.593079
10118.855851	5291.350000	1547.238281	400.037079
10118.855851	5291.350000	1546.187500	302.703766
10118.855851	5291.350000	1545.136719	467.070892
10118.855851	5291.350000	1544.086914	410.739136
10118.855851	5291.350000	1543.035156	279.392944
10118.855851	5291.350000	1541.984375	391.414429
10118.855851	5291.350000	1540.933594	382.917877
10118.855851	5291.350000	1539.881836	174.422318
10118.855851	5291.350000	1538.830078	247.812668
10118.855851	5291.350000	1537.778320	91.713486
10118.855851	5291.350000	1536.725586	140.135620
10118.855851	5291.350000	1535.673828	381.602020
10118.855851	5291.350000	1534.621094	325.526886
10118.855851	5291.350000	1533.568359	131.005478
10118.855851	5291.350000	1532.515625	315.633545
10118.855851	5291.350000	1531.461914	377.659332
10118.855851	5291.350000	1530.409180	258.165161
10118.855851	5291.350000	1529.355469	102.438980
10118.855851	5291.350000	1528.301758	207.611557
10118.855851	5291.350000	1527.247070	253.803253
10118.855851	5291.350000	1526.193359	268.252563
10118.855851	5291.350000	1525.138672	207.913528
10118.855851	5291.350000	1524.083984	285.854370
10118.855851	5291.350000	1523.029297	157.596146
10118.855851	5291.350000	1521.974609	97.364494
10118.855851	5291.350000	1520.918945	154.947845
10118.855851	5291.350000	1519.863281	246.491486
10118.855851	5291.350000	1518.807617	134.257706
10118.855851	5291.350000	1517.751953	169.215286
10118.855851	5291.350000	1516.696289	57.075714
10118.855851	5291.350000	1515.639648	83.018585
10118.855851	5291.350000	1514.583008	-10.927562
10118.855851	5291.350000	1513.526367	-3.040998
10118.855851	5291.350000	1512.469727	-29.058983
10118.855851	5291.350000	1511.412109	89.644440
10118.855851	5291.350000	1510.355469	72.694954
10118.855851	5291.350000	1509.297852	159.727249
10118.855851	5291.350000	1508.240234	138.286850
10118.855851	5291.350000	1507.181641	-99.995827
10118.855851	5291.350000	1506.124023	90.967651
10118.855851	5291.350000	1505.065430	4.120702
10118.855851	5291.350000	1504.006836	-17.200207
10118.855851	5291.350000	1502.948242	-135.557053
10118.855851	5291.350000	1501.888672	-127.467278
10118.855851	5291.350000	1500.830078	83.710106
10118.855851	5291.350000	1499.770508	-25.518328
10118.855851	5291.350000	1498.710938	-24.166792
10118.855851	5291.350000	1497.650391	-16.032465
10118.855851	5291.350000	1496.590820	-86.793816
10118.855851	5291.350000	1495.530273	85.937691
10118.855851	5291.350000	1494.469727	-23.090992
10118.855851	5291.350000	1493.409180	-123.044876
10118.855851	5291.350000	1492.348633	-72.004501
10118.855851	5291.350000	1491.287109	-120.068222
10118.855851	5291.350000	1490.225586	99.880974
10118.855851	5291.350000	1489.164063	54.090656
10118.855851	5291.350000	1488.102539	10.588694
10118.855851	5291.350000	1487.041016	-86.891006
10118.855851	5291.350000	1485.978516	-47.056099
10118.855851	5291.350000	1484.916016	28.765507
10118.855851	5291.350000	1483.853516	-88.834862
10118.855851	5291.350000	1482.791016	-3.991457
10118.855851	5291.350000	1481.727539	-168.723389
10118.855851	5291.350000	1480.664063	-209.735611
10118.855851	5291.350000	1479.600586	-158.564713
10118.855851	5291.350000	1478.537109	-98.404526
10118.855851	5291.350000	1477.473633	-170.787277
10118.855851	5291.350000	1476.409180	62.245564
10118.855851	5291.350000	1475.344727	-149.269348
10118.855851	5291.350000	1474.280273	-140.733871
10118.855851	5291.350000	1473.215820	31.587864
10118.855851	5291.350000	1472.151367	150.030823
10118.855851	5291.350000	1471.085938	-63.545044
10118.855851	5291.350000	1470.020508	5.741574
10118.855851	5291.350000	1468.955078	224.929245
10118.855851	5291.350000	1467.888672	81.051331
10118.855851	5291.350000	1466.823242	-2.219109
10118.855851	5291.350000	1465.756836	100.597244
10118.855851	5291.350000	1464.690430	-121.334724
10118.855851	5291.350000	1463.624023	10.217411
10118.855851	5291.350000	1462.556641	30.274878
10118.855851	5291.350000	1461.490234	81.855774
10118.855851	5291.350000	1460.422852	119.379028
10118.855851	5291.350000	1459.355469	226.442078
10118.855851	5291.350000	1458.287109	125.629662
10118.855851	5291.350000	1457.219727	277.140411
10118.855851	5291.350000	1456.151367	118.506203
10118.855851	5291.350000	1455.083008	221.185699
10118.855851	5291.350000	1454.014648	140.440094
10118.855851	5291.350000	1452.945313	88.876228
10118.855851	5291.350000	1451.876953	100.041168
10118.855851	5291.350000	1450.807617	117.134918
10118.855851	5291.350000	1449.738281	6.043295
10118.855851	5291.350000	1448.668945	271.213043
10118.855851	5291.350000	1447.598633	163.420532
10118.855851	5291.350000	1446.528320	225.099823
10118.855851	5291.350000	1445.458008	84.991142
10118.855851	5291.350000	1444.387695	143.498764
10118.855851	5291.350000	1443.317383	115.087006
10118.855851	5291.350000	1442.246094	69.557190
10118.855851	5291.350000	1441.174805	91.447823
10118.855851	5291.350000	1440.103516	271.977112
10118.855851	5291.350000	1439.032227	142.818893
10118.855851	5291.350000	1437.960938	52.515079
10118.855851	5291.350000	1436.888672	74.245506
10118.855851	5291.350000	1435.816406	46.091057
10118.855851	5291.350000	1434.744141	-44.466373
10118.855851	5291.350000	1433.670898	81.192039
10118.855851	5291.350000	1432.598633	30.568760
10118.855851	5291.350000	1431.525391	0.888325
10118.855851	5291.350000	1430.452148	-93.208908
10118.855851	5291.350000	1429.378906	97.113441
10118.855851	5291.350000	1428.304688	151.624176
10118.855851	5291.350000	1427.231445	-1.526939
10118.855851	5291.350000	1426.157227	-158.156250
10118.855851	5291.350000	1425.083008	82.717354
10118.855851	5291.350000	1424.007813	185.734314
10118.855851	5291.350000	1422.933594	46.121384
10118.855851	5291.350000	1421.858398	18.861692
10118.855851	5291.350000	1420.783203	115.371307
10118.855851	5291.350000	1419.708008	-13.807835
10118.855851	5291.350000	1418.631836	-167.643127
10118.855851	5291.350000	1417.555664	-21.512966
10118.855851	5291.350000	1416.479492	-3.161087
10118.855851	5291.350000	1415.403320	150.063812
10118.855851	5291.350000	1414.327148	-42.514111
10118.855851	5291.350000	1413.250000	18.151011
10118.855851	5291.350000	1412.173828	108.402779
10118.855851	5291.350000	1411.096680	8.939470
10118.855851	5291.350000	1410.018555	34.009109
10118.855851	5291.350000	1408.941406	-39.823132
10118.855851	5291.350000	1407.863281	-27.767080
10118.855851	5291.350000	1406.785156	-59.149086
10118.855851	5291.350000	1405.707031	184.618164
10118.855851	5291.350000	1404.628906	46.624935
10118.855851	5291.350000	1403.549805	-39.837666
10118.855851	5291.350000	1402.470703	155.443985
10118.855851	5291.350000	1401.391602	134.323807
10118.855851	5291.350000	1400.312500	9.190383
10118.855851	5291.350000	1399.233398	166.737473
10118.855851	5291.350000	1398.153320	-29.342875
10118.855851	5291.350000	1397.073242	154.916321
10118.855851	5291.350000	1395.993164	130.739059
10118.855851	5291.350000	1394.913086	3.144803
10118.855851	5291.350000	1393.832031	80.402313
10118.855851	5291.350000	1392.750977	63.507298
10118.855851	5291.350000	1391.669922	117.408371
10118.855851	5291.350000	1390.588867	54.281227
10118.855851	5291.350000	1389.506836	2.692543
10118.855851	5291.350000	1388.425781	67.119972
10118.855851	5291.350000	1387.343750	-74.645279
10118.855851	5291.350000	1386.261719	148.589157
10118.855851	5291.350000	1385.178711	42.028706
10118.855851	5291.350000	1384.096680	12.376472
10118.855851	5291.350000	1383.013672	228.232361
10118.855851	5291.350000	1381.930664	169.655884
10118.855851	5291.350000	1380.846680	108.467728
10118.855851	5291.350000	1379.763672	90.372353
10118.855851	5291.350000	1378.679688	96.199753
10118.855851	5291.350000	1377.595703	105.920013
10118.855851	5291.350000	1376.511719	44.225883
10118.855851	5291.350000	1375.427734	128.908737
10118.855851	5291.350000	1374.342773	142.703888
10118.855851	5291.350000	1373.257813	247.520813
10118.855851	5291.350000	1372.172852	294.803253
10118.855851	5291.350000	1371.087891	175.662842
10118.855851	5291.350000	1370.001953	150.608429
10118.855851	5291.350000	1368.916992	177.159607
10118.855851	5291.350000	1367.831055	120.276016
10118.855851	5291.350000	1366.744141	123.096710
10118.855851	5291.350000	1365.658203	114.942986
10118.855851	5291.350000	1364.571289	45.312630
10118.855851	5291.350000	1363.484375	176.444092
10118.855851	5291.350000	1362.397461	205.344559
10118.855851	5291.350000	1361.310547	118.513885
10118.855851	5291.350000	1360.222656	241.923370
10118.855851	5291.350000	1359.135742	239.685654
10118.855851	5291.350000	1358.047852	189.710770
10118.855851	5291.350000	1356.958984	214.257874
10118.855851	5291.350000	1355.871094	180.833099
10118.855851	5291.350000	1354.782227	251.702988
10118.855851	5291.350000	1353.693359	214.645920
10118.855851	5291.350000	1352.604492	90.716896
10118.855851	5291.350000	1351.515625	115.553963
10118.855851	5291.350000	1350.425781	73.379959
10118.855851	5291.350000	1349.335938	112.270569
10118.855851	5291.350000	1348.246094	216.188034
10118.855851	5291.350000	1347.156250	100.922241
10118.855851	5291.350000	1346.066406	158.024780
10118.855851	5291.350000	1344.975586	119.461212
10118.855851	5291.350000	1343.884766	55.234417
10118.855851	5291.350000	1342.793945	284.465332
10118.855851	5291.350000	1341.702148	110.952522
10118.855851	5291.350000	1340.611328	102.836136
10118.855851	5291.350000	1339.519531	67.969856
10118.855851	5291.350000	1338.427734	173.392166
10118.855851	5291.350000	1337.334961	62.340652
10118.855851	5291.350000	1336.243164	40.980251
10118.855851	5291.350000	1335.150391	55.062195
10118.855851	5291.350000	1334.057617	99.892014
10118.855851	5291.350000	1332.964844	79.030067
10118.855851	5291.350000	1331.871094	148.402466
10118.855851	5291.350000	1330.778320	121.592499
10118.855851	5291.350000	1329.684570	121.233818
10118.855851	5291.350000	1328.590820	204.801331
10118.855851	5291.350000	1327.496094	211.459930
10118.855851	5291.350000	1326.402344	164.623901
10118.855851	5291.350000	1325.307617	214.574905
10118.855851	5291.350000	1324.212891	125.885460
10118.855851	5291.350000	1323.117188	128.900665
10118.855851	5291.350000	1322.022461	186.112869
10118.855851	5291.350000	1320.926758	-31.616142
10118.855851	5291.350000	1319.831055	56.449203
10118.855851	5291.350000	1318.735352	129.568985
10118.855851	5291.350000	1317.638672	44.127361
10118.855851	5291.350000	1316.542969	74.897896
10118.855851	5291.350000	1315.446289	45.887924
10118.855851	5291.350000	1314.349609	193.247040
10118.855851	5291.350000	1313.251953	135.520599
10118.855851	5291.350000	1312.155273	64.752602
10118.855851	5291.350000	1311.057617	-106.075470
10118.855851	5291.350000	1309.959961	-20.538635
10118.855851	5291.350000	1308.862305	66.523071
10118.855851	5291.350000	1307.763672	-27.174595
10118.855851	5291.350000	1306.665039	42.432983
10118.855851	5291.350000	1305.566406	-19.677834
10118.855851	5291.350000	1304.467773	30.157305
10118.855851	5291.350000	1303.369141	15.521693
10118.855851	5291.350000	1302.269531	4.031988
10118.855851	5291.350000	1301.169922	132.903656
10118.855851	5291.350000	1300.070313	-10.577860
10118.855851	5291.350000	1298.970703	29.426592
10118.855851	5291.350000	1297.870117	26.280743
10118.855851	5291.350000	1296.769531	-20.465965
10118.855851	5291.350000	1295.668945	-24.622824
10118.855851	5291.350000	1294.568359	7.372952
10118.855851	5291.350000	1293.466797	74.539886
10118.855851	5291.350000	1292.366211	92.747055
10118.855851	5291.350000	1291.264648	-6.772981
10118.855851	5291.350000	1290.162109	36.662197
10118.855851	5291.350000	1289.060547	36.388939
10118.855851	5291.350000	1287.958008	31.375166
10118.855851	5291.350000	1286.855469	67.747444
10118.855851	5291.350000	1285.752930	-4.358207
10118.855851	5291.350000	1284.650391	31.543358
10118.855851	5291.350000	1283.546875	-71.682655
10118.855851	5291.350000	1282.444336	55.845505
10118.855851	5291.350000	1281.339844	2.150147
10118.855851	5291.350000	1280.236328	-123.229446
10118.855851	5291.350000	1279.132813	47.838524
10118.855851	5291.350000	1278.028320	144.730499
10118.855851	5291.350000	1276.923828	-32.043163
10118.855851	5291.350000	1275.819336	62.630596
10118.855851	5291.350000	1274.713867	-87.725311
10118.855851	5291.350000	1273.608398	-144.845642
10118.855851	5291.350000	1272.503906	9.423510
10118.855851	5291.350000	1271.397461	-20.909735
10118.855851	5291.350000	1270.291992	-54.251865
10118.855851	5291.350000	1269.185547	-10.711647
10118.855851	5291.350000	1268.080078	-91.165108
10118.855851	5291.350000	1266.972656	63.633629
10118.855851	5291.350000	1265.866211	-42.312717
10118.855851	5291.350000	1264.759766	-77.185341
10118.855851	5291.350000	1263.652344	-50.265564
10118.855851	5291.350000	1262.544922	71.611778
10118.855851	5291.350000	1261.436523	0.723963
10118.855851	5291.350000	1260.329102	-77.514481
10118.855851	5291.350000	1259.220703	-55.588333
10118.855851	5291.350000	1258.112305	-181.281647
10118.855851	5291.350000	1257.003906	-67.732819
10118.855851	5291.350000	1255.895508	-98.260414
10118.855851	5291.350000	1254.786133	-95.562279
10118.855851	5291.350000	1253.676758	-168.135818
10118.855851	5291.350000	1252.567383	-212.184875
10118.855851	5291.350000	1251.458008	-158.699875
10118.855851	5291.350000	1250.347656	-89.776627
10118.855851	5291.350000	1249.237305	-37.595150
10118.855851	5291.350000	1248.126953	-42.610237
10118.855851	5291.350000	1247.016602	-91.669266
10118.855851	5291.350000	1245.905273	-64.212799
10118.855851	5291.350000	1244.793945	-28.806070
10118.855851	5291.350000	1243.682617	-77.113838
10118.855851	5291.350000	1242.571289	-128.026443
10118.855851	5291.350000	1241.459961	27.844088
10118.855851	5291.350000	1240.347656	50.604038
10118.855851	5291.350000	1239.235352	24.523659
10118.855851	5291.350000	1238.123047	-108.493446
10118.855851	5291.350000	1237.009766	49.870399
10118.855851	5291.350000	1235.897461	-30.106226
10118.855851	5291.350000	1234.784180	17.354813
10118.855851	5291.350000	1233.670898	-20.321405
10118.855851	5291.350000	1232.556641	2.218903
10118.855851	5291.350000	1231.443359	18.018045
10118.855851	5291.350000	1230.329102	154.545502
10118.855851	5291.350000	1229.214844	96.784508
10118.855851	5291.350000	1228.099609	88.684013
10118.855851	5291.350000	1226.985352	36.360130
10118.855851	5291.350000	1225.870117	64.562553
10118.855851	5291.350000	1224.754883	76.926888
10118.855851	5291.350000	1223.639648	33.571579
10118.855851	5291.350000	1222.523438	49.760990
10118.855851	5291.350000	1221.408203	-158.855469
10118.855851	5291.350000	1220.291992	53.172485
10118.855851	5291.350000	1219.174805	106.921783
10118.855851	5291.350000	1218.058594	61.577049
10118.855851	5291.350000	1216.941406	89.963997
10118.855851	5291.350000	1215.824219	42.759827
10118.855851	5291.350000	1214.707031	-15.192887
10118.855851	5291.350000	1213.589844	34.180870
10118.855851	5291.350000	1212.471680	-9.232560
10118.855851	5291.350000	1211.353516	84.117104
10118.855851	5291.350000	1210.235352	9.995791
10118.855851	5291.350000	1209.117188	29.552252
10118.855851	5291.350000	1207.998047	47.580006
10118.855851	5291.350000	1206.878906	-61.294437
10118.855851	5291.350000	1205.759766	3.094759
10118.855851	5291.350000	1204.640625	-69.597305
10118.855851	5291.350000	1203.520508	-83.886238
10118.855851	5291.350000	1202.401367	-58.827782
10118.855851	5291.350000	1201.281250	-13.988146
10118.855851	5291.350000	1200.160156	-39.192245
10118.855851	5291.350000	1199.040039	-51.631969
10118.855851	5291.350000	1197.918945	-98.068916
10118.855851	5291.350000	1196.797852	-80.731438
10118.855851	5291.350000	1195.676758	-120.745659
10118.855851	5291.350000	1194.555664	-41.895451
10118.855851	5291.350000	1193.433594	-98.781960
10118.855851	5291.350000	1192.311523	-40.804874
10118.855851	5291.350000	1191.189453	21.493174
10118.855851	5291.350000	1190.066406	36.652096
10118.855851	5291.350000	1188.944336	-246.907928
10118.855851	5291.350000	1187.821289	-35.036610
10118.855851	5291.350000	1186.698242	-38.279549
10118.855851	5291.350000	1185.574219	-118.529015
10118.855851	5291.350000	1184.451172	-43.340763
10118.855851	5291.350000	1183.327148	-33.607121
10118.855851	5291.350000	1182.203125	-30.716375
10118.855851	5291.350000	1181.078125	-72.644356
10118.855851	5291.350000	1179.954102	-12.407145
10118.855851	5291.350000	1178.829102	-90.241409
10118.855851	5291.350000	1177.704102	-110.280495
10118.855851	5291.350000	1176.579102	7.408072
10118.855851	5291.350000	1175.453125	39.627705
10118.855851	5291.350000	1174.327148	-6.602062
10118.855851	5291.350000	1173.201172	6.190810
10118.855851	5291.350000	1172.075195	1.399746
10118.855851	5291.350000	1170.949219	43.143272
10118.855851	5291.350000	1169.822266	34.783802
10118.855851	5291.350000	1168.695313	47.420063
10118.855851	5291.350000	1167.568359	191.466980
10118.855851	5291.350000	1166.440430	96.958786
10118.855851	5291.350000	1165.313477	115.035622
10118.855851	5291.350000	1164.185547	116.147415
10118.855851	5291.350000	1163.057617	76.723557
10118.855851	5291.350000	1161.928711	137.765030
10118.855851	5291.350000	1160.800781	102.633789
10118.855851	5291.350000	1159.671875	41.825050
10118.855851	5291.350000	1158.541992	44.789337
10118.855851	5291.350000	1157.413086	-113.755814
10118.855851	5291.350000	1156.283203	17.324846
10118.855851	5291.350000	1155.154297	50.183502
10118.855851	5291.350000	1154.023438	-37.773678
10118.855851	5291.350000	1152.893555	62.768627
10118.855851	5291.350000	1151.763672	72.350853
10118.855851	5291.350000	1150.632813	141.184769
10118.855851	5291.350000	1149.501953	47.517853
10118.855851	5291.350000	1148.370117	21.502766
10118.855851	5291.350000	1147.239258	97.149864
10118.855851	5291.350000	1146.107422	25.342140
10118.855851	5291.350000	1144.975586	-34.981419
10118.855851	5291.350000	1143.843750	63.173252
10118.855851	5291.350000	1142.710938	44.579811
10118.855851	5291.350000	1141.578125	101.074760
10118.855851	5291.350000	1140.445313	-55.271156
10118.855851	5291.350000	1139.312500	6.958490
10118.855851	5291.350000	1138.178711	72.524101
10118.855851	5291.350000	1137.045898	143.953979
10118.855851	5291.350000	1135.912109	-37.100651
10118.855851	5291.350000	1134.777344	140.161850
10118.855851	5291.350000	1133.643555	-8.249129
10118.855851	5291.350000	1132.508789	108.891251
10118.855851	5291.350000	1131.374023	-35.883533
10118.855851	5291.350000	1130.239258	143.504120
10118.855851	5291.350000	1129.104492	117.977005
10118.855851	5291.350000	1127.968750	88.022430
10118.855851	5291.350000	1126.833008	134.964981
10118.855851	5291.350000	1125.697266	76.600510
10118.855851	5291.350000	1124.560547	18.964613
10118.855851	5291.350000	1123.424805	71.077774
10118.855851	5291.350000	1122.288086	68.930634
10118.855851	5291.350000	1121.151367	153.810776
10118.855851	5291.350000	1120.013672	-16.293650
10118.855851	5291.350000	1118.876953	-102.412270
10118.855851	5291.350000	1117.739258	66.995201
10118.855851	5291.350000	1116.601563	67.049454
10118.855851	5291.350000	1115.462891	18.301552
10118.855851	5291.350000	1114.324219	29.736977
10118.855851	5291.350000	1113.186523	-93.019073
10118.855851	5291.350000	1112.046875	-27.087366
10118.855851	5291.350000	1110.908203	-114.988266
10118.855851	5291.350000	1109.769531	94.107605
10118.855851	5291.350000	1108.629883	67.823471
10118.855851	5291.350000	1107.490234	-24.717358
10118.855851	5291.350000	1106.349609	-14.550373
10118.855851	5291.350000	1105.209961	54.634167
10118.855851	5291.350000	1104.069336	-1.118040
10118.855851	5291.350000	1102.928711	-37.073250
10118.855851	5291.350000	1101.787109	115.947334
10118.855851	5291.350000	1100.646484	101.957726
10118.855851	5291.350000	1099.504883	-93.321724
10118.855851	5291.350000	1098.363281	171.888229
10118.855851	5291.350000	1097.221680	75.630585
10118.855851	5291.350000	1096.079102	129.640198
10118.855851	5291.350000	1094.936523	96.376060
10118.855851	5291.350000	1093.793945	65.335274
10118.855851	5291.350000	1092.651367	-34.853703
10118.855851	5291.350000	1091.507813	-80.012238
10118.855851	5291.350000	1090.364258	61.983311
10118.855851	5291.350000	1089.220703	210.429367
10118.855851	5291.350000	1088.077148	148.325485
10118.855851	5291.350000	1086.933594	119.949051
10118.855851	5291.350000	1085.789063	69.237900
10118.855851	5291.350000	1084.644531	-49.354149
10118.855851	5291.350000	1083.499023	3.822133
10118.855851	5291.350000	1082.354492	37.338070
10118.855851	5291.350000	1081.208984	-4.800447
10118.855851	5291.350000	1080.063477	66.073883
10118.855851	5291.350000	1078.917969	-38.617012
10118.855851	5291.350000	1077.771484	-3.763051
10118.855851	5291.350000	1076.625977	11.371357
10118.855851	5291.350000	1075.479492	-55.173405
10118.855851	5291.350000	1074.332031	-36.442253
10118.855851	5291.350000	1073.185547	-110.416748
10118.855851	5291.350000	1072.038086	-23.160131
10118.855851	5291.350000	1070.890625	4.979922
10118.855851	5291.350000	1069.743164	121.827713
10118.855851	5291.350000	1068.594727	-36.009743
10118.855851	5291.350000	1067.447266	183.518417
10118.855851	5291.350000	1066.298828	-19.372931
10118.855851	5291.350000	1065.149414	133.420761
10118.855851	5291.350000	1064.000977	48.470005
10118.855851	5291.350000	1062.851563	98.595047
10118.855851	5291.350000	1061.702148	160.734543
10118.855851	5291.350000	1060.552734	60.011616
10118.855851	5291.350000	1059.402344	92.156204
10118.855851	5291.350000	1058.252930	25.145269
10118.855851	5291.350000	1057.102539	149.294006
10118.855851	5291.350000	1055.951172	172.865173
10118.855851	5291.350000	1054.800781	123.364166
10118.855851	5291.350000	1053.649414	173.948364
10118.855851	5291.350000	1052.498047	64.113205
10118.855851	5291.350000	1051.346680	113.790947
10118.855851	5291.350000	1050.194336	67.179642
10118.855851	5291.350000	1049.042969	72.409874
10118.855851	5291.350000	1047.890625	67.225784
10118.855851	5291.350000	1046.738281	127.419289
10118.855851	5291.350000	1045.584961	87.502861
10118.855851	5291.350000	1044.431641	81.879776
10118.855851	5291.350000	1043.278320	95.590698
10118.855851	5291.350000	1042.125000	114.164078
10118.855851	5291.350000	1040.971680	49.890579
10118.855851	5291.350000	1039.817383	163.607773
10118.855851	5291.350000	1038.663086	63.362125
10118.855851	5291.350000	1037.508789	-33.451706
10118.855851	5291.350000	1036.353516	-11.510830
10118.855851	5291.350000	1035.198242	-17.079287
10118.855851	5291.350000	1034.042969	117.626274
10118.855851	5291.350000	1032.887695	188.681686
10118.855851	5291.350000	1031.732422	163.818039
10118.855851	5291.350000	1030.576172	165.921646
10118.855851	5291.350000	1029.419922	74.129433
10118.855851	5291.350000	1028.263672	26.044569
10118.855851	5291.350000	1027.106445	261.926361
10118.855851	5291.350000	1025.949219	70.930344
10118.855851	5291.350000	1024.792969	-9.287890
10118.855851	5291.350000	1023.634766	13.907562
10118.855851	5291.350000	1022.477539	9.784447
10118.855851	5291.350000	1021.319336	-16.884989
10118.855851	5291.350000	1020.161133	63.384956
10118.855851	5291.350000	1019.002930	-12.286411
10118.855851	5291.350000	1017.843750	148.678955
10118.855851	5291.350000	1016.684570	-134.378723
10118.855851	5291.350000	1015.525391	162.925995
10118.855851	5291.350000	1014.366211	-76.938957
10118.855851	5291.350000	1013.207031	-90.937752
10118.855851	5291.350000	1012.046875	-74.894745
10118.855851	5291.350000	1010.886719	-80.576576
10118.855851	5291.350000	1009.726563	-46.672012
10118.855851	5291.350000	1008.565430	-32.224709
10118.855851	5291.350000	1007.404297	120.686760
10118.855851	5291.350000	1006.243164	81.819412
10118.855851	5291.350000	1005.082031	8.815509
10118.855851	5291.350000	1003.920898	146.816849
10118.855851	5291.350000	1002.758789	92.814392
10118.855851	5291.350000	1001.596680	-24.444681
10118.855851	5291.350000	1000.433594	38.490532
10118.855851	5291.350000	999.271484	51.523937
10118.855851	5291.350000	998.108398	96.886749
10118.855851	5291.350000	996.945313	12.811057
10118.855851	5291.350000	995.782227	75.029465
10118.855851	5291.350000	994.618164	68.698898
10118.855851	5291.350000	993.454102	194.251663
10118.855851	5291.350000	992.290039	-123.647011
10118.855851	5291.350000	991.125977	151.008453
10118.855851	5291.350000	989.960938	218.439865
10118.855851	5291.350000	988.796875	101.522034
10118.855851	5291.350000	987.630859	133.149490
10118.855851	5291.350000	986.465820	294.452515
10118.855851	5291.350000	985.300781	302.664154
10118.855851	5291.350000	984.134766	230.397278
10118.855851	5291.350000	982.968750	420.199554
10118.855851	5291.350000	981.801758	127.905022
10118.855851	5291.350000	980.635742	283.912079
10118.855851	5291.350000	979.468750	260.642548
10118.855851	5291.350000	978.301758	75.818436
10118.855851	5291.350000	977.133789	71.661446
10118.855851	5291.350000	975.966797	-4.810318
10118.855851	5291.350000	974.798828	112.842468
10118.855851	5291.350000	973.630859	159.735886
10118.855851	5291.350000	972.461914	101.411934
10118.855851	5291.350000	971.293945	-28.291880
10118.855851	5291.350000	970.125000	127.662811
10118.855851	5291.350000	968.956055	46.173386
10118.855851	5291.350000	967.786133	46.807686
10118.855851	5291.350000	966.617188	33.761677
10118.855851	5291.350000	965.447266	88.709412
10118.855851	5291.350000	964.276367	-127.935844
10118.855851	5291.350000	963.106445	-12.419487
10118.855851	5291.350000	961.935547	-84.482056
10118.855851	5291.350000	960.764648	40.512646
10118.855851	5291.350000	959.593750	30.808470
10118.855851	5291.350000	958.422852	-26.158838
10118.855851	5291.350000	957.250977	59.757122
10118.855851	5291.350000	956.079102	75.981636
10118.855851	5291.350000	954.907227	19.816650
10118.855851	5291.350000	953.734375	28.974962
10118.855851	5291.350000	952.562500	-94.982086
10118.855851	5291.350000	951.389648	-35.668186
10118.855851	5291.350000	950.215820	-12.791162
10118.855851	5291.350000	949.042969	60.658112
10118.855851	5291.350000	947.869141	49.273926
10118.855851	5291.350000	946.695313	-238.833344
10118.855851	5291.350000	945.521484	-45.612247
10118.855851	5291.350000	944.346680	46.616291
10118.855851	5291.350000	943.172852	-135.494522
10118.855851	5291.350000	941.998047	-96.339714
10118.855851	5291.350000	940.822266	-34.378082
10118.855851	5291.350000	939.647461	96.557762
10118.855851	5291.350000	938.471680	22.817898
10118.855851	5291.350000	937.295898	-37.255341
10118.855851	5291.350000	936.119141	-76.377464
10118.855851	5291.350000	934.943359	-30.449900
10118.855851	5291.350000	933.766602	82.012161
10118.855851	5291.350000	932.589844	54.228989
10118.855851	5291.350000	931.413086	-24.073156
10118.855851	5291.350000	930.235352	30.919502
10118.855851	5291.350000	929.057617	42.210930
10118.855851	5291.350000	927.879883	99.549355
10118.855851	5291.350000	926.702148	-121.316505
10118.855851	5291.350000	925.523438	-59.437641
10118.855851	5291.350000	924.344727	-94.071304
10118.855851	5291.350000	923.166016	202.120560
10118.855851	5291.350000	921.987305	54.895954
10118.855851	5291.350000	920.807617	-55.536369
10118.855851	5291.350000	919.627930	-56.593327
10118.855851	5291.350000	919.497070	24.529222
10118.855851	5291.350000	918.331055	-173.074615
10118.855851	5291.350000	917.165039	-108.956520
10118.855851	5291.350000	915.999023	-173.366837
10118.855851	5291.350000	914.833008	-40.452374
10118.855851	5291.350000	913.666016	-180.546371
10118.855851	5291.350000	912.499023	92.199860
10118.855851	5291.350000	911.332031	167.655609
10118.855851	5291.350000	910.165039	142.217514
10118.855851	5291.350000	908.997070	-66.559013
10118.855851	5291.350000	907.830078	-50.695007
10118.855851	5291.350000	906.661133	-76.076256
10118.855851	5291.350000	905.493164	-2.956825
10118.855851	5291.350000	904.325195	99.902298
10118.855851	5291.350000	903.156250	-161.314072
10118.855851	5291.350000	901.987305	-33.285603
10118.855851	5291.350000	900.818359	53.496162
10118.855851	5291.350000	899.648438	23.549028
10118.855851	5291.350000	898.478516	-118.480492
10118.855851	5291.350000	897.308594	-18.010235
10118.855851	5291.350000	896.138672	32.112755
10118.855851	5291.350000	894.968750	143.944748
10118.855851	5291.350000	893.797852	-50.563808
10118.855851	5291.350000	892.626953	111.517746
10118.855851	5291.350000	891.456055	-39.489674
10118.855851	5291.350000	890.284180	111.103630
10118.855851	5291.350000	889.113281	-16.999840
10118.855851	5291.350000	887.941406	-74.263107
10118.855851	5291.350000	886.768555	117.342758
10118.855851	5291.350000	885.596680	-26.656521
10118.855851	5291.350000	884.423828	-22.262533
10118.855851	5291.350000	883.250977	-38.402557
10118.855851	5291.350000	882.078125	-59.096020
10118.855851	5291.350000	880.905273	13.727966
10118.855851	5291.350000	879.731445	-79.929871
10118.855851	5291.350000	878.557617	-2.567619
10118.855851	5291.350000	877.383789	17.784037
10118.855851	5291.350000	876.209961	97.378601
10118.855851	5291.350000	875.035156	1.511724
10118.855851	5291.350000	873.860352	103.860580
10118.855851	5291.350000	872.685547	-44.342827
10118.855851	5291.350000	871.510742	-10.328394
10118.855851	5291.350000	870.334961	62.374329
10118.855851	5291.350000	869.159180	28.078718
10118.855851	5291.350000	867.983398	-81.291817
10118.855851	5291.350000	866.807617	-142.838287
10118.855851	5291.350000	865.630859	-22.389549
10118.855851	5291.350000	864.454102	50.256416
10118.855851	5291.350000	863.277344	56.940491
10118.855851	5291.350000	862.100586	-0.024781
10118.855851	5291.350000	860.922852	81.672859
10118.855851	5291.350000	859.745117	158.796448
10118.855851	5291.350000	858.567383	1.896327
10118.855851	5291.350000	857.389648	65.383659
10118.855851	5291.350000	856.210938	6.221583
10118.855851	5291.350000	855.032227	-50.642807
10118.855851	5291.350000	853.853516	17.366693
10118.855851	5291.350000	852.674805	-132.516495
10118.855851	5291.350000	851.495117	19.441765
10118.855851	5291.350000	850.315430	-5.604429
10118.855851	5291.350000	849.135742	5.653045
10118.855851	5291.350000	847.956055	48.656094
10118.855851	5291.350000	846.775391	-89.725883
10118.855851	5291.350000	845.595703	-69.379601
10118.855851	5291.350000	844.415039	-87.564331
10118.855851	5291.350000	843.233398	-17.373793
10118.855851	5291.350000	842.052734	-10.635664
10118.855851	5291.350000	840.871094	23.280945
10118.855851	5291.350000	839.689453	-42.443569
10118.855851	5291.350000	838.506836	-53.805038
10118.855851	5291.350000	837.325195	63.857601
10118.855851	5291.350000	836.142578	70.590294
10118.855851	5291.350000	834.959961	-15.436854
10118.855851	5291.350000	833.777344	115.727798
10118.855851	5291.350000	832.593750	131.502975
10118.855851	5291.350000	831.410156	192.497253
10118.855851	5291.350000	830.226563	140.439575
10118.855851	5291.350000	829.042969	77.105812
10118.855851	5291.350000	827.858398	20.580683
10118.855851	5291.350000	826.673828	-29.140053
10118.855851	5291.350000	825.489258	0.219921
10118.855851	5291.350000	824.304688	27.312897
10118.855851	5291.350000	823.120117	92.781395
10118.855851	5291.350000	821.934570	126.622276
10118.855851	5291.350000	820.749023	101.774117
10118.855851	5291.350000	819.562500	-17.831165
10118.855851	5291.350000	818.376953	22.789576
10118.855851	5291.350000	817.190430	54.374741
10118.855851	5291.350000	816.003906	92.714935
10118.855851	5291.350000	814.817383	-80.886696
10118.855851	5291.350000	813.629883	-193.552933
10118.855851	5291.350000	812.442383	63.424801
10118.855851	5291.350000	811.254883	94.982918
10118.855851	5291.350000	810.067383	7.137946
10118.855851	5291.350000	808.878906	27.438488
10118.855851	5291.350000	807.690430	-19.819521
10118.855851	5291.350000	806.501953	149.068909
10118.855851	5291.350000	805.313477	108.562637
10118.855851	5291.350000	804.124023	-114.205238
10118.855851	5291.350000	802.934570	0.606602
10118.855851	5291.350000	801.745117	16.397947
10118.855851	5291.350000	800.555664	-46.529560
10118.855851	5291.350000	799.365234	63.705208
10118.855851	5291.350000	798.175781	14.285937
10118.855851	5291.350000	796.985352	-44.102158
10118.855851	5291.350000	795.793945	108.763458
10118.855851	5291.350000	794.603516	93.068901
10118.855851	5291.350000	793.412109	-106.805313
10118.855851	5291.350000	792.220703	59.456219
10118.855851	5291.350000	791.028320	124.612541
10118.855851	5291.350000	789.836914	10.160776
10118.855851	5291.350000	788.644531	19.194342
10118.855851	5291.350000	787.452148	10.273734
10118.855851	5291.350000	786.258789	17.059849
10118.855851	5291.350000	785.066406	91.132301
10118.855851	5291.350000	783.873047	133.778854
10118.855851	5291.350000	782.679688	44.129799
10118.855851	5291.350000	781.485352	160.738129
10118.855851	5291.350000	780.291992	89.048660
10118.855851	5291.350000	779.097656	-40.867641
10118.855851	5291.350000	777.903320	26.401253
10118.855851	5291.350000	776.708008	118.276474
10118.855851	5291.350000	775.512695	129.501587
10118.855851	5291.350000	774.318359	-9.274077
10118.855851	5291.350000	773.122070	73.594063
10118.855851	5291.350000	771.926758	44.536747
10118.855851	5291.350000	770.730469	225.799240
10118.855851	5291.350000	769.534180	89.347740
10118.855851	5291.350000	768.337891	203.428650
10118.855851	5291.350000	767.141602	136.348419
10118.855851	5291.350000	765.944336	152.006195
10118.855851	5291.350000	764.747070	225.764648
10118.855851	5291.350000	763.549805	198.934647
10118.855851	5291.350000	762.351563	198.921143
10118.855851	5291.350000	761.154297	248.044968
10118.855851	5291.350000	759.956055	189.952667
10118.855851	5291.350000	758.757813	210.024521
10118.855851	5291.350000	757.558594	-22.157745
10118.855851	5291.350000	756.359375	192.104980
10118.855851	5291.350000	755.160156	136.287109
10118.855851	5291.350000	753.960938	276.801025
10118.855851	5291.350000	752.761719	22.476614
10118.855851	5291.350000	751.561523	118.347702
10118.855851	5291.350000	750.361328	312.268219
10118.855851	5291.350000	749.160156	162.840820
10118.855851	5291.350000	747.959961	180.608536
10118.855851	5291.350000	746.758789	236.238876
10118.855851	5291.350000	745.557617	69.082306
10118.855851	5291.350000	744.356445	-8.926319
10118.855851	5291.350000	743.154297	124.622307
10118.855851	5291.350000	741.952148	97.822823
10118.855851	5291.350000	740.750000	162.282440
10118.855851	5291.350000	739.547852	291.240173
10118.855851	5291.350000	738.344727	333.369019
10118.855851	5291.350000	737.142578	119.676369
10118.855851	5291.350000	735.939453	244.090866
10118.855851	5291.350000	734.735352	79.403297
10118.855851	5291.350000	733.532227	230.433136
10118.855851	5291.350000	732.328125	314.716400
10118.855851	5291.350000	731.124023	221.195892
10118.855851	5291.350000	729.918945	23.292128
10118.855851	5291.350000	728.714844	180.834366
10118.855851	5291.350000	727.509766	85.151566
10118.855851	5291.350000	726.303711	167.109177
10118.855851	5291.350000	725.098633	55.911541
10118.855851	5291.350000	723.892578	193.301620
10118.855851	5291.350000	722.686523	24.436159
10118.855851	5291.350000	721.480469	33.093739
10118.855851	5291.350000	720.274414	-7.054968
10118.855851	5291.350000	719.067383	249.926544
10118.855851	5291.350000	717.860352	1.338128
10118.855851	5291.350000	716.653320	-12.216930
10118.855851	5291.350000	715.445313	-14.698634
10118.855851	5291.350000	714.238281	115.739105
10118.855851	5291.350000	713.030273	-50.705334
10118.855851	5291.350000	711.821289	-108.579575
10118.855851	5291.350000	710.613281	-55.735699
10118.855851	5291.350000	709.404297	-22.850891
10118.855851	5291.350000	708.195313	-118.357155
10118.855851	5291.350000	706.986328	-30.181463
10118.855851	5291.350000	705.776367	-54.882038
10118.855851	5291.350000	704.566406	123.898209
10118.855851	5291.350000	703.356445	96.936401
10118.855851	5291.350000	702.146484	-9.619718
10118.855851	5291.350000	700.935547	135.839081
10118.855851	5291.350000	699.724609	195.034164
10118.855851	5291.350000	698.513672	42.081081
10118.855851	5291.350000	697.302734	220.527451
10118.855851	5291.350000	696.090820	186.862854
10118.855851	5291.350000	694.878906	175.277451
10118.855851	5291.350000	693.666992	17.978592
10118.855851	5291.350000	692.455078	-20.084234
10118.855851	5291.350000	691.242188	-36.081169
10118.855851	5291.350000	690.029297	206.039352
10118.855851	5291.350000	688.816406	126.001266
10118.855851	5291.350000	687.602539	63.621696
10118.855851	5291.350000	686.389648	204.095901
10118.855851	5291.350000	685.175781	130.670105
10118.855851	5291.350000	683.960938	46.236679
10118.855851	5291.350000	682.747070	102.842041
10118.855851	5291.350000	681.532227	203.464279
10118.855851	5291.350000	680.317383	0.080406
10118.855851	5291.350000	679.102539	27.977829
10118.855851	5291.350000	677.886719	102.077591
10118.855851	5291.350000	676.670898	112.295204
10118.855851	5291.350000	675.455078	-53.562359
10118.855851	5291.350000	674.239258	108.458839
10118.855851	5291.350000	673.022461	94.413582
10118.855851	5291.350000	671.805664	-60.397297
10118.855851	5291.350000	670.588867	121.253105
10118.855851	5291.350000	669.372070	124.742569
10118.855851	5291.350000	668.154297	0.733253
10118.855851	5291.350000	666.936523	67.930367
10118.855851	5291.350000	665.718750	40.610619
10118.855851	5291.350000	664.500977	120.909630
10118.855851	5291.350000	663.282227	295.581787
10118.855851	5291.350000	662.063477	81.547218
10118.855851	5291.350000	660.844727	-103.881706
10118.855851	5291.350000	659.625000	151.865295
10118.855851	5291.350000	658.405273	155.154694
10118.855851	5291.350000	657.185547	-8.299756
10118.855851	5291.350000	655.965820	150.700073
10118.855851	5291.350000	654.745117	-63.161804
10118.855851	5291.350000	653.525391	159.316101
10118.855851	5291.350000	652.303711	116.462326
10118.855851	5291.350000	651.083008	117.434471
10118.855851	5291.350000	649.861328	111.810059
10118.855851	5291.350000	648.640625	-29.640421
10118.855851	5291.350000	647.417969	218.762451
10118.855851	5291.350000	646.196289	-104.427498
10118.855851	5291.350000	644.973633	-72.875549
10118.855851	5291.350000	643.750977	168.746902
10118.855851	5291.350000	642.528320	-36.135868
10118.855851	5291.350000	641.305664	76.258781
10118.855851	5291.350000	640.082031	190.769485
10118.855851	5291.350000	638.858398	156.509628
10118.855851	5291.350000	637.634766	41.349262
10118.855851	5291.350000	636.410156	52.991257
10118.855851	5291.350000	635.185547	-3.140410
10118.855851	5291.350000	633.960938	-19.943237
10118.855851	5291.350000	632.736328	87.751205
10118.855851	5291.350000	631.510742	-38.309361
10118.855851	5291.350000	630.285156	14.708313
10118.855851	5291.350000	629.059570	-63.302238
10118.855851	5291.350000	627.833984	7.113072
10118.855851	5291.350000	626.607422	-9.811265
10118.855851	5291.350000	625.380859	8.155540
10118.855851	5291.350000	624.154297	45.721981
10118.855851	5291.350000	622.927734	-6.160284
10118.855851	5291.350000	621.700195	11.723166
10118.855851	5291.350000	620.472656	-72.875313
10118.855851	5291.350000	619.245117	12.528672
10118.855851	5291.350000	618.016602	47.756912
10118.855851	5291.350000	616.788086	-41.223320
10118.855851	5291.350000	615.559570	76.717873
10118.855851	5291.350000	614.331055	-36.229538
10118.855851	5291.350000	613.101563	-81.665192
10118.855851	5291.350000	611.872070	-66.160812
10118.855851	5291.350000	610.642578	-18.044483
10118.855851	5291.350000	609.413086	-13.484134
10118.855851	5291.350000	608.182617	84.581673
10118.855851	5291.350000	606.952148	-97.956306
10118.855851	5291.350000	605.721680	-49.967644
10118.855851	5291.350000	604.491211	-2.022120
10118.855851	5291.350000	603.259766	54.571045
10118.855851	5291.350000	602.028320	-82.268509
10118.855851	5291.350000	600.796875	87.238098
10118.855851	5291.350000	599.564453	76.375336
10118.855851	5291.350000	598.332031	-56.108955
10118.855851	5291.350000	597.099609	-10.535524
10118.855851	5291.350000	595.867188	48.020016
10118.855851	5291.350000	594.633789	8.870402
10118.855851	5291.350000	593.400391	182.340698
10118.855851	5291.350000	592.166992	-36.907433
10118.855851	5291.350000	590.933594	-41.381710
10118.855851	5291.350000	589.699219	-39.373470
10118.855851	5291.350000	588.464844	-85.080055
10118.855851	5291.350000	587.230469	131.457596
10118.855851	5291.350000	585.995117	118.190285
10118.855851	5291.350000	584.760742	-42.406467
10118.855851	5291.350000	583.525391	85.110878
10118.855851	5291.350000	582.289063	-42.977398
10118.855851	5291.350000	581.053711	-114.740120
10118.855851	5291.350000	579.817383	-73.939415
10118.855851	5291.350000	578.581055	-78.624062
10118.855851	5291.350000	577.343750	22.687387
10118.855851	5291.350000	576.107422	91.488235
10118.855851	5291.350000	574.870117	145.096786
10118.855851	5291.350000	573.631836	103.518906
10118.855851	5291.350000	572.394531	-31.017651
10118.855851	5291.350000	571.156250	251.615860
10118.855851	5291.350000	569.917969	67.359032
10118.855851	5291.350000	568.679688	38.708473
10118.855851	5291.350000	567.440430	-89.311050
10118.855851	5291.350000	566.202148	-204.338837
10118.855851	5291.350000	564.961914	-42.988712
10118.855851	5291.350000	563.722656	159.286285
10118.855851	5291.350000	562.482422	130.533585
10118.855851	5291.350000	561.243164	151.399658
10118.855851	5291.350000	560.001953	144.186447
10118.855851	5291.350000	558.761719	-16.170244
10118.855851	5291.350000	557.520508	125.393959
10118.855851	5291.350000	556.279297	-78.052361
10118.855851	5291.350000	555.038086	52.644081
10118.855851	5291.350000	553.795898	19.489223
10118.855851	5291.350000	552.554688	-78.303429
10118.855851	5291.350000	551.311523	-29.612970
10118.855851	5291.350000	550.069336	163.320877
10118.855851	5291.350000	548.826172	-37.857262
10118.855851	5291.350000	547.583984	122.662392
10118.855851	5291.350000	546.339844	102.308128
10118.855851	5291.350000	545.096680	159.401382
10118.855851	5291.350000	543.852539	-9.429999
10118.855851	5291.350000	542.608398	-19.058296
10118.855851	5291.350000	541.364258	76.656921
10118.855851	5291.350000	540.119141	-81.372475
10118.855851	5291.350000	538.875000	-13.674007
10118.855851	5291.350000	537.628906	-49.180683
10118.855851	5291.350000	536.383789	35.617638
10118.855851	5291.350000	535.137695	70.949036
10118.855851	5291.350000	533.892578	95.505783
10118.855851	5291.350000	532.645508	1.933186
10118.855851	5291.350000	531.399414	82.251274
10118.855851	5291.350000	530.152344	25.153727
10118.855851	5291.350000	528.905273	-12.635112
10118.855851	5291.350000	527.658203	-39.708435
10118.855851	5291.350000	526.410156	124.081520
10118.855851	5291.350000	525.163086	41.183456
10118.855851	5291.350000	523.914063	-11.700283
10118.855851	5291.350000	522.666016	-71.017212
10118.855851	5291.350000	521.416992	0.375582
10118.855851	5291.350000	520.167969	108.129143
10118.855851	5291.350000	518.918945	29.452818
10118.855851	5291.350000	517.669922	55.713131
10118.855851	5291.350000	516.419922	169.710739
10118.855851	5291.350000	515.169922	28.894018
10118.855851	5291.350000	513.919922	102.118645
10118.855851	5291.350000	512.668945	61.870644
10118.855851	5291.350000	511.417969	87.920113
10118.855851	5291.350000	510.166992	-72.150322
10118.855851	5291.350000	508.916016	-37.604286
10118.855851	5291.350000	507.664063	135.845734
10118.855851	5291.350000	506.412109	153.151917
10118.855851	5291.350000	505.160156	202.464554
10118.855851	5291.350000	503.907227	339.305817
10118.855851	5291.350000	502.655273	174.872162
10118.855851	5291.350000	501.402344	206.931519
10118.855851	5291.350000	500.148438	290.170532
10118.855851	5291.350000	498.895508	179.079666
10118.855851	5291.350000	497.641602	420.122284
10118.855851	5291.350000	496.387695	385.763550
10118.855851	5291.350000	495.132813	272.434235
10118.855851	5291.350000	493.878906	383.048187
10118.855851	5291.350000	492.624023	248.338257
10118.855851	5291.350000	491.368164	348.132263
10118.855851	5291.350000	490.113281	550.138062
10118.855851	5291.350000	488.857422	432.349365
10118.855851	5291.350000	487.601563	527.599792
10118.855851	5291.350000	486.344727	614.222168
10118.855851	5291.350000	485.088867	506.954254
10118.855851	5291.350000	483.832031	650.896912
10118.855851	5291.350000	482.575195	524.367676
10118.855851	5291.350000	481.317383	559.561157
10118.855851	5291.350000	480.059570	437.211182
10118.855851	5291.350000	478.801758	821.131409
10118.855851	5291.350000	477.543945	660.339355
10118.855851	5291.350000	476.285156	805.726929
10118.855851	5291.350000	475.027344	774.522217
10118.855851	5291.350000	473.767578	792.119751
10118.855851	5291.350000	472.508789	724.625488
10118.855851	5291.350000	471.249023	882.262329
10118.855851	5291.350000	469.989258	812.458740
10118.855851	5291.350000	468.729492	757.452026
10118.855851	5291.350000	467.469727	853.110046
10118.855851	5291.350000	466.208984	827.623535
10118.855851	5291.350000	464.948242	906.027466
10118.855851	5291.350000	463.686523	903.651733
10118.855851	5291.350000	462.425781	720.854126
10118.855851	5291.350000	461.164063	911.282104
10118.855851	5291.350000	459.901367	838.567444
10118.855851	5291.350000	458.639648	937.477112
10118.855851	5291.350000	457.376953	758.553284
10118.855851	5291.350000	456.114258	935.567017
10118.855851	5291.350000	454.851563	1072.109741
10118.855851	5291.350000	453.587891	1053.820190
10118.855851	5291.350000	452.324219	950.682312
10118.855851	5291.350000	451.060547	1021.043823
10118.855851	5291.350000	449.796875	1021.362915
10118.855851	5291.350000	448.532227	850.090881
10118.855851	5291.350000	447.267578	879.726074
10118.855851	5291.350000	446.002930	943.019043
10118.855851	5291.350000	444.737305	845.362732
10118.855851	5291.350000	443.471680	859.628418
10118.855851	5291.350000	442.206055	1034.358276
10118.855851	5291.350000	440.940430	1014.367798
10118.855851	5291.350000	439.673828	1015.305420
10118.855851	5291.350000	438.407227	1001.242493
10118.855851	5291.350000	437.140625	972.182617
10118.855851	5291.350000	435.873047	909.114929
10118.855851	5291.350000	434.605469	1025.300293
10118.855851	5291.350000	433.337891	987.107849
10118.855851	5291.350000	432.070313	1054.203491
10118.855851	5291.350000	430.801758	1078.811157
10118.855851	5291.350000	429.533203	1103.145874
10118.855851	5291.350000	428.264648	903.652161
10118.855851	5291.350000	426.996094	805.175720
10118.855851	5291.350000	425.726563	963.630432
10118.855851	5291.350000	424.457031	1235.533081
10118.855851	5291.350000	423.186523	1030.792603
10118.855851	5291.350000	421.916992	920.639465
10118.855851	5291.350000	420.646484	858.647522
10118.855851	5291.350000	419.375977	935.333557
10118.855851	5291.350000	418.104492	1140.060791
10118.855851	5291.350000	416.833008	952.846130
10118.855851	5291.350000	415.561523	950.539978
10118.855851	5291.350000	414.290039	998.360840
10118.855851	5291.350000	413.017578	942.698364
10118.855851	5291.350000	411.746094	920.329895
10118.855851	5291.350000	410.472656	931.184509
10118.855851	5291.350000	409.200195	937.429443
10118.855851	5291.350000	407.926758	913.810608
10118.855851	5291.350000	406.653320	893.966980
10118.855851	5291.350000	405.379883	978.720703
10118.855851	5291.350000	404.105469	1083.964966
10118.855851	5291.350000	402.831055	1087.895630
10118.855851	5291.350000	401.556641	948.579102
10118.855851	5291.350000	400.282227	917.967163
10118.855851	5291.350000	399.006836	914.117432
10118.855851	5291.350000	397.731445	830.015869
10118.855851	5291.350000	396.456055	814.627197
10118.855851	5291.350000	395.179688	1029.351440
10118.855851	5291.350000	393.903320	960.362488
10118.855851	5291.350000	392.626953	1102.530029
10118.855851	5291.350000	391.350586	942.245239
10118.855851	5291.350000	390.073242	974.158020
10118.855851	5291.350000	388.795898	1055.696289
10118.855851	5291.350000	387.518555	1098.845825
10118.855851	5291.350000	386.240234	837.669067
10118.855851	5291.350000	384.961914	1080.441040
10118.855851	5291.350000	383.683594	648.453796
10118.855851	5291.350000	382.405273	973.432922
10118.855851	5291.350000	381.125977	573.640137
10118.855851	5291.350000	379.846680	652.244690
10118.855851	5291.350000	378.567383	719.576233
10118.855851	5291.350000	377.287109	802.779358
10118.855851	5291.350000	376.006836	625.927979
10118.855851	5291.350000	374.726563	763.873962
10118.855851	5291.350000	373.446289	762.997131
10118.855851	5291.350000	372.165039	669.296143
10118.855851	5291.350000	370.883789	691.679688
10118.855851	5291.350000	369.602539	631.690247
10118.855851	5291.350000	368.320313	712.697083
10118.855851	5291.350000	367.039063	692.538879
10118.855851	5291.350000	365.755859	594.121765
10118.855851	5291.350000	364.473633	574.024658
10118.855851	5291.350000	363.190430	780.198120
10118.855851	5291.350000	361.907227	693.264221
10118.855851	5291.350000	360.624023	553.142944
10118.855851	5291.350000	359.340820	486.990173
10118.855851	5291.350000	358.056641	532.203796
10118.855851	5291.350000	356.772461	401.202087
10118.855851	5291.350000	355.487305	264.837982
10118.855851	5291.350000	354.202148	537.551819
10118.855851	5291.350000	352.916992	571.513306
10118.855851	5291.350000	351.631836	368.931641
10118.855851	5291.350000	350.346680	556.366943
10118.855851	5291.350000	349.060547	299.118622
10118.855851	5291.350000	347.774414	182.041885
10118.855851	5291.350000	346.487305	412.953278
10118.855851	5291.350000	345.200195	270.090637
10118.855851	5291.350000	343.913086	402.288391
10118.855851	5291.350000	342.625977	150.458542
10118.855851	5291.350000	341.338867	358.489899
10118.855851	5291.350000	340.050781	332.090485
10118.855851	5291.350000	338.762695	29.884241
10118.855851	5291.350000	337.473633	334.539124
10118.855851	5291.350000	336.184570	176.427170
10118.855851	5291.350000	334.895508	267.793182
10118.855851	5291.350000	333.606445	54.332420
10118.855851	5291.350000	332.317383	38.314701
10118.855851	5291.350000	331.027344	97.122307
10118.855851	5291.350000	329.736328	-16.136971
10118.855851	5291.350000	328.446289	57.438747
10118.855851	5291.350000	327.155273	52.212299
10118.855851	5291.350000	325.864258	-71.125031
10118.855851	5291.350000	324.573242	-97.039513
10118.855851	5291.350000	323.281250	94.445755
10118.855851	5291.350000	321.989258	8.187211
10118.855851	5291.350000	320.697266	39.836254
10118.855851	5291.350000	319.405273	-50.889153
10118.855851	5291.350000	318.112305	-166.749771
10118.855851	5291.350000	316.819336	-13.851840
10118.855851	5291.350000	315.526367	-82.765182
10118.855851	5291.350000	314.232422	203.637802
10118.855851	5291.350000	312.938477	-83.409668
10118.855851	5291.350000	311.644531	38.526680
10118.855851	5291.350000	310.349609	-94.518135
10118.855851	5291.350000	309.054688	-31.809120
10118.855851	5291.350000	307.759766	-128.927567
10118.855851	5291.350000	306.464844	12.874409
10118.855851	5291.350000	305.168945	151.640091
10118.855851	5291.350000	303.873047	239.910324
10118.855851	5291.350000	302.577148	164.112549
10118.855851	5291.350000	301.281250	221.507172
10118.855851	5291.350000	299.984375	304.536469
