#X		#Y		#Wave		#Intensity
-14907.599468	5332.990000	1999.946289	-11.709876
-14907.599468	5332.990000	1998.981445	2.569539
-14907.599468	5332.990000	1998.017578	28.737534
-14907.599468	5332.990000	1997.052734	10.298615
-14907.599468	5332.990000	1996.088867	103.370720
-14907.599468	5332.990000	1995.124023	-14.144163
-14907.599468	5332.990000	1994.159180	7.091269
-14907.599468	5332.990000	1993.193359	-65.770889
-14907.599468	5332.990000	1992.228516	37.187229
-14907.599468	5332.990000	1991.262695	21.299067
-14907.599468	5332.990000	1990.296875	-29.222174
-14907.599468	5332.990000	1989.331055	-3.007096
-14907.599468	5332.990000	1988.365234	-4.006129
-14907.599468	5332.990000	1987.398438	-34.677761
-14907.599468	5332.990000	1986.432617	38.540981
-14907.599468	5332.990000	1985.465820	-4.470740
-14907.599468	5332.990000	1984.499023	-62.289612
-14907.599468	5332.990000	1983.532227	-23.681778
-14907.599468	5332.990000	1982.565430	111.299263
-14907.599468	5332.990000	1981.597656	53.519508
-14907.599468	5332.990000	1980.629883	-48.694725
-14907.599468	5332.990000	1979.662109	39.316910
-14907.599468	5332.990000	1978.694336	-20.857992
-14907.599468	5332.990000	1977.726563	72.072495
-14907.599468	5332.990000	1976.758789	56.365131
-14907.599468	5332.990000	1975.790039	-80.260536
-14907.599468	5332.990000	1974.821289	74.345932
-14907.599468	5332.990000	1973.852539	24.134644
-14907.599468	5332.990000	1972.883789	52.883591
-14907.599468	5332.990000	1971.915039	-7.151956
-14907.599468	5332.990000	1970.945313	16.678232
-14907.599468	5332.990000	1969.975586	82.417831
-14907.599468	5332.990000	1969.005859	10.112394
-14907.599468	5332.990000	1968.036133	-5.477700
-14907.599468	5332.990000	1967.066406	121.852509
-14907.599468	5332.990000	1966.096680	42.214966
-14907.599468	5332.990000	1965.125977	14.337553
-14907.599468	5332.990000	1964.155273	13.566119
-14907.599468	5332.990000	1963.184570	133.444229
-14907.599468	5332.990000	1962.213867	36.664387
-14907.599468	5332.990000	1961.242188	-13.310411
-14907.599468	5332.990000	1960.271484	22.865374
-14907.599468	5332.990000	1959.299805	9.830305
-14907.599468	5332.990000	1958.328125	43.543201
-14907.599468	5332.990000	1957.356445	74.791267
-14907.599468	5332.990000	1956.384766	37.186394
-14907.599468	5332.990000	1955.412109	-79.066673
-14907.599468	5332.990000	1954.439453	119.347282
-14907.599468	5332.990000	1953.467773	-58.301468
-14907.599468	5332.990000	1952.495117	31.938221
-14907.599468	5332.990000	1951.521484	4.234653
-14907.599468	5332.990000	1950.548828	52.687584
-14907.599468	5332.990000	1949.575195	76.571198
-14907.599468	5332.990000	1948.601563	88.175743
-14907.599468	5332.990000	1947.627930	97.326736
-14907.599468	5332.990000	1946.654297	45.122131
-14907.599468	5332.990000	1945.680664	-68.403580
-14907.599468	5332.990000	1944.706055	48.735134
-14907.599468	5332.990000	1943.732422	-54.927486
-14907.599468	5332.990000	1942.757813	37.649883
-14907.599468	5332.990000	1941.783203	41.924686
-14907.599468	5332.990000	1940.807617	-27.344326
-14907.599468	5332.990000	1939.833008	-5.892745
-14907.599468	5332.990000	1938.857422	-13.853283
-14907.599468	5332.990000	1937.881836	61.498817
-14907.599468	5332.990000	1936.906250	-86.098602
-14907.599468	5332.990000	1935.930664	-71.986076
-14907.599468	5332.990000	1934.955078	3.344745
-14907.599468	5332.990000	1933.978516	-33.974331
-14907.599468	5332.990000	1933.001953	21.743341
-14907.599468	5332.990000	1932.025391	8.914310
-14907.599468	5332.990000	1931.048828	79.289841
-14907.599468	5332.990000	1930.072266	81.138275
-14907.599468	5332.990000	1929.094727	2.267464
-14907.599468	5332.990000	1928.118164	-15.431804
-14907.599468	5332.990000	1927.140625	-16.006975
-14907.599468	5332.990000	1926.163086	44.536926
-14907.599468	5332.990000	1925.184570	26.843197
-14907.599468	5332.990000	1924.207031	94.689819
-14907.599468	5332.990000	1923.228516	-10.965519
-14907.599468	5332.990000	1922.250000	34.877773
-14907.599468	5332.990000	1921.271484	-12.108151
-14907.599468	5332.990000	1920.292969	-73.728180
-14907.599468	5332.990000	1919.314453	18.490135
-14907.599468	5332.990000	1918.334961	98.468170
-14907.599468	5332.990000	1917.355469	-9.510787
-14907.599468	5332.990000	1916.375977	82.641937
-14907.599468	5332.990000	1915.396484	-32.614880
-14907.599468	5332.990000	1914.416992	20.477839
-14907.599468	5332.990000	1913.436523	-48.390232
-14907.599468	5332.990000	1912.457031	-51.399105
-14907.599468	5332.990000	1911.476563	-37.343540
-14907.599468	5332.990000	1910.496094	-106.167519
-14907.599468	5332.990000	1909.515625	2.930271
-14907.599468	5332.990000	1908.534180	-9.840483
-14907.599468	5332.990000	1907.552734	48.036201
-14907.599468	5332.990000	1906.572266	88.839500
-14907.599468	5332.990000	1905.590820	54.134987
-14907.599468	5332.990000	1904.608398	-36.557770
-14907.599468	5332.990000	1903.626953	-22.548128
-14907.599468	5332.990000	1902.644531	66.900124
-14907.599468	5332.990000	1901.663086	-14.021876
-14907.599468	5332.990000	1900.680664	-34.095745
-14907.599468	5332.990000	1899.698242	-7.950490
-14907.599468	5332.990000	1898.714844	81.411644
-14907.599468	5332.990000	1897.732422	56.454777
-14907.599468	5332.990000	1896.749023	-102.205521
-14907.599468	5332.990000	1895.765625	-0.737292
-14907.599468	5332.990000	1894.782227	15.632711
-14907.599468	5332.990000	1893.798828	5.264659
-14907.599468	5332.990000	1892.814453	-9.963589
-14907.599468	5332.990000	1891.831055	50.100639
-14907.599468	5332.990000	1890.846680	0.861433
-14907.599468	5332.990000	1889.862305	2.620019
-14907.599468	5332.990000	1888.877930	18.936037
-14907.599468	5332.990000	1887.892578	49.801342
-14907.599468	5332.990000	1886.908203	-9.132312
-14907.599468	5332.990000	1885.922852	31.417294
-14907.599468	5332.990000	1884.937500	4.028275
-14907.599468	5332.990000	1883.952148	-62.160370
-14907.599468	5332.990000	1882.965820	26.848797
-14907.599468	5332.990000	1881.980469	33.393402
-14907.599468	5332.990000	1880.994141	-27.938488
-14907.599468	5332.990000	1880.007813	14.948131
-14907.599468	5332.990000	1879.021484	33.581913
-14907.599468	5332.990000	1878.035156	90.959526
-14907.599468	5332.990000	1877.047852	53.850109
-14907.599468	5332.990000	1876.061523	21.589684
-14907.599468	5332.990000	1875.074219	-95.404915
-14907.599468	5332.990000	1874.086914	32.117142
-14907.599468	5332.990000	1873.098633	4.692299
-14907.599468	5332.990000	1872.111328	-66.285492
-14907.599468	5332.990000	1871.123047	-18.703152
-14907.599468	5332.990000	1870.135742	-19.523630
-14907.599468	5332.990000	1869.147461	124.746727
-14907.599468	5332.990000	1868.158203	97.283302
-14907.599468	5332.990000	1867.169922	40.811680
-14907.599468	5332.990000	1866.180664	105.199745
-14907.599468	5332.990000	1865.192383	94.641640
-14907.599468	5332.990000	1864.203125	16.427071
-14907.599468	5332.990000	1863.213867	37.271839
-14907.599468	5332.990000	1862.223633	21.870506
-14907.599468	5332.990000	1861.234375	18.538406
-14907.599468	5332.990000	1860.244141	-54.817150
-14907.599468	5332.990000	1859.253906	69.776276
-14907.599468	5332.990000	1858.263672	35.030731
-14907.599468	5332.990000	1857.273438	60.609432
-14907.599468	5332.990000	1856.282227	57.217888
-14907.599468	5332.990000	1855.291992	27.284843
-14907.599468	5332.990000	1854.300781	-43.645042
-14907.599468	5332.990000	1853.309570	42.160748
-14907.599468	5332.990000	1852.317383	50.782200
-14907.599468	5332.990000	1851.326172	-44.248814
-14907.599468	5332.990000	1850.333984	106.535866
-14907.599468	5332.990000	1849.342773	105.468208
-14907.599468	5332.990000	1848.350586	29.715067
-14907.599468	5332.990000	1847.357422	165.914261
-14907.599468	5332.990000	1846.365234	-18.202255
-14907.599468	5332.990000	1845.372070	12.001783
-14907.599468	5332.990000	1844.379883	179.382156
-14907.599468	5332.990000	1843.386719	86.778473
-14907.599468	5332.990000	1842.393555	143.375549
-14907.599468	5332.990000	1841.399414	45.976395
-14907.599468	5332.990000	1840.406250	88.103416
-14907.599468	5332.990000	1839.412109	103.748955
-14907.599468	5332.990000	1838.417969	71.290024
-14907.599468	5332.990000	1837.423828	70.080078
-14907.599468	5332.990000	1836.429688	13.579997
-14907.599468	5332.990000	1835.434570	17.160620
-14907.599468	5332.990000	1834.440430	37.544937
-14907.599468	5332.990000	1833.445313	-21.359314
-14907.599468	5332.990000	1832.450195	-39.427711
-14907.599468	5332.990000	1831.454102	-11.881991
-14907.599468	5332.990000	1830.458984	49.250462
-14907.599468	5332.990000	1829.462891	4.735693
-14907.599468	5332.990000	1828.466797	-20.577454
-14907.599468	5332.990000	1827.470703	50.078079
-14907.599468	5332.990000	1826.474609	-28.036030
-14907.599468	5332.990000	1825.478516	-91.743782
-14907.599468	5332.990000	1824.481445	10.017195
-14907.599468	5332.990000	1823.484375	-20.136843
-14907.599468	5332.990000	1822.487305	103.118546
-14907.599468	5332.990000	1821.490234	-51.692253
-14907.599468	5332.990000	1820.493164	-45.916176
-14907.599468	5332.990000	1819.495117	94.002014
-14907.599468	5332.990000	1818.498047	90.140007
-14907.599468	5332.990000	1817.500000	126.975975
-14907.599468	5332.990000	1816.500977	12.939791
-14907.599468	5332.990000	1815.502930	-69.945694
-14907.599468	5332.990000	1814.504883	112.857895
-14907.599468	5332.990000	1813.505859	-25.082539
-14907.599468	5332.990000	1812.506836	52.343319
-14907.599468	5332.990000	1811.507813	48.395245
-14907.599468	5332.990000	1810.508789	65.959709
-14907.599468	5332.990000	1809.508789	52.417046
-14907.599468	5332.990000	1808.508789	24.521196
-14907.599468	5332.990000	1807.508789	77.891304
-14907.599468	5332.990000	1806.508789	95.380173
-14907.599468	5332.990000	1805.508789	17.273466
-14907.599468	5332.990000	1804.508789	65.795319
-14907.599468	5332.990000	1803.507813	64.126045
-14907.599468	5332.990000	1802.506836	52.891254
-14907.599468	5332.990000	1801.505859	67.910316
-14907.599468	5332.990000	1800.504883	1.747951
-14907.599468	5332.990000	1799.502930	112.208702
-14907.599468	5332.990000	1798.501953	98.531944
-14907.599468	5332.990000	1797.500000	-34.442547
-14907.599468	5332.990000	1796.498047	16.288357
-14907.599468	5332.990000	1795.496094	-35.562653
-14907.599468	5332.990000	1794.493164	-37.336113
-14907.599468	5332.990000	1793.491211	103.915764
-14907.599468	5332.990000	1792.488281	37.734509
-14907.599468	5332.990000	1791.485352	-26.051945
-14907.599468	5332.990000	1790.482422	10.241022
-14907.599468	5332.990000	1789.478516	60.798702
-14907.599468	5332.990000	1788.475586	-76.829185
-14907.599468	5332.990000	1787.471680	59.423943
-14907.599468	5332.990000	1786.467773	50.383392
-14907.599468	5332.990000	1785.463867	10.388335
-14907.599468	5332.990000	1784.459961	58.451530
-14907.599468	5332.990000	1783.455078	16.062897
-14907.599468	5332.990000	1782.450195	-38.217575
-14907.599468	5332.990000	1781.445313	9.786700
-14907.599468	5332.990000	1780.440430	17.332136
-14907.599468	5332.990000	1779.435547	-46.467426
-14907.599468	5332.990000	1778.429688	22.865438
-14907.599468	5332.990000	1777.424805	-83.717651
-14907.599468	5332.990000	1776.418945	9.333027
-14907.599468	5332.990000	1775.413086	66.698418
-14907.599468	5332.990000	1774.406250	-20.870413
-14907.599468	5332.990000	1773.400391	-32.419064
-14907.599468	5332.990000	1772.393555	79.495422
-14907.599468	5332.990000	1771.386719	-48.421795
-14907.599468	5332.990000	1770.379883	58.681423
-14907.599468	5332.990000	1769.373047	11.478509
-14907.599468	5332.990000	1768.365234	71.050301
-14907.599468	5332.990000	1767.358398	57.049843
-14907.599468	5332.990000	1766.350586	80.989784
-14907.599468	5332.990000	1765.342773	33.768974
-14907.599468	5332.990000	1764.334961	3.150202
-14907.599468	5332.990000	1763.326172	53.124420
-14907.599468	5332.990000	1762.318359	46.190243
-14907.599468	5332.990000	1761.309570	-36.579220
-14907.599468	5332.990000	1760.300781	-36.411049
-14907.599468	5332.990000	1759.291016	110.598518
-14907.599468	5332.990000	1758.282227	-2.956115
-14907.599468	5332.990000	1757.272461	-90.435265
-14907.599468	5332.990000	1756.262695	-92.670448
-14907.599468	5332.990000	1755.252930	115.730782
-14907.599468	5332.990000	1754.243164	-97.170921
-14907.599468	5332.990000	1753.233398	85.105278
-14907.599468	5332.990000	1752.222656	-16.555954
-14907.599468	5332.990000	1751.211914	-122.918709
-14907.599468	5332.990000	1750.201172	9.569389
-14907.599468	5332.990000	1749.190430	4.878428
-14907.599468	5332.990000	1748.179688	111.270981
-14907.599468	5332.990000	1747.167969	-39.978672
-14907.599468	5332.990000	1746.156250	21.467970
-14907.599468	5332.990000	1745.144531	21.461382
-14907.599468	5332.990000	1744.132813	16.721418
-14907.599468	5332.990000	1743.121094	-14.002037
-14907.599468	5332.990000	1742.108398	-58.890312
-14907.599468	5332.990000	1741.095703	-23.513784
-14907.599468	5332.990000	1740.083008	9.480221
-14907.599468	5332.990000	1739.070313	28.294964
-14907.599468	5332.990000	1738.057617	143.819244
-14907.599468	5332.990000	1737.043945	-16.680038
-14907.599468	5332.990000	1736.030273	37.474571
-14907.599468	5332.990000	1735.016602	-5.070056
-14907.599468	5332.990000	1734.002930	32.543644
-14907.599468	5332.990000	1732.989258	185.622940
-14907.599468	5332.990000	1731.974609	131.265747
-14907.599468	5332.990000	1730.959961	95.769196
-14907.599468	5332.990000	1729.945313	27.300665
-14907.599468	5332.990000	1728.930664	64.830528
-14907.599468	5332.990000	1727.916016	147.076935
-14907.599468	5332.990000	1726.900391	137.468582
-14907.599468	5332.990000	1725.885742	316.159027
-14907.599468	5332.990000	1724.870117	285.328033
-14907.599468	5332.990000	1723.853516	268.616791
-14907.599468	5332.990000	1722.837891	249.554886
-14907.599468	5332.990000	1721.822266	343.387207
-14907.599468	5332.990000	1720.805664	227.891479
-14907.599468	5332.990000	1719.789063	307.571014
-14907.599468	5332.990000	1718.772461	330.799225
-14907.599468	5332.990000	1717.754883	243.553131
-14907.599468	5332.990000	1716.738281	226.827942
-14907.599468	5332.990000	1715.720703	268.832581
-14907.599468	5332.990000	1714.703125	233.305008
-14907.599468	5332.990000	1713.685547	230.662338
-14907.599468	5332.990000	1712.667969	310.192352
-14907.599468	5332.990000	1711.649414	237.100006
-14907.599468	5332.990000	1710.630859	274.339844
-14907.599468	5332.990000	1709.612305	283.401978
-14907.599468	5332.990000	1708.593750	297.148163
-14907.599468	5332.990000	1707.575195	153.725540
-14907.599468	5332.990000	1706.555664	303.502380
-14907.599468	5332.990000	1705.536133	249.223770
-14907.599468	5332.990000	1704.516602	305.144226
-14907.599468	5332.990000	1703.497070	180.562302
-14907.599468	5332.990000	1702.477539	180.224930
-14907.599468	5332.990000	1701.457031	198.625946
-14907.599468	5332.990000	1700.437500	345.856598
-14907.599468	5332.990000	1699.416992	244.767105
-14907.599468	5332.990000	1698.395508	253.766800
-14907.599468	5332.990000	1697.375000	286.173798
-14907.599468	5332.990000	1696.354492	304.521423
-14907.599468	5332.990000	1695.333008	262.010498
-14907.599468	5332.990000	1694.311523	156.338699
-14907.599468	5332.990000	1693.290039	127.903931
-14907.599468	5332.990000	1692.267578	115.848396
-14907.599468	5332.990000	1691.246094	5.582263
-14907.599468	5332.990000	1690.223633	-22.814808
-14907.599468	5332.990000	1689.201172	32.949635
-14907.599468	5332.990000	1688.178711	20.914822
-14907.599468	5332.990000	1687.155273	22.901423
-14907.599468	5332.990000	1686.132813	41.241737
-14907.599468	5332.990000	1685.109375	101.615768
-14907.599468	5332.990000	1684.085938	7.834759
-14907.599468	5332.990000	1683.062500	12.153767
-14907.599468	5332.990000	1682.039063	16.470903
-14907.599468	5332.990000	1681.014648	74.465004
-14907.599468	5332.990000	1679.990234	53.097210
-14907.599468	5332.990000	1678.965820	-136.243378
-14907.599468	5332.990000	1677.941406	143.345734
-14907.599468	5332.990000	1676.916992	33.355198
-14907.599468	5332.990000	1675.891602	46.986801
-14907.599468	5332.990000	1674.866211	-13.987030
-14907.599468	5332.990000	1673.840820	-46.966278
-14907.599468	5332.990000	1672.815430	-26.333344
-14907.599468	5332.990000	1671.790039	131.758133
-14907.599468	5332.990000	1670.763672	112.748215
-14907.599468	5332.990000	1669.737305	-48.323086
-14907.599468	5332.990000	1668.710938	25.855181
-14907.599468	5332.990000	1667.684570	174.506805
-14907.599468	5332.990000	1666.658203	97.318741
-14907.599468	5332.990000	1665.630859	131.867523
-14907.599468	5332.990000	1664.603516	59.373573
-14907.599468	5332.990000	1663.576172	10.173227
-14907.599468	5332.990000	1662.548828	167.998093
-14907.599468	5332.990000	1661.520508	267.626892
-14907.599468	5332.990000	1660.493164	134.724380
-14907.599468	5332.990000	1659.464844	255.248184
-14907.599468	5332.990000	1658.436523	124.728294
-14907.599468	5332.990000	1657.408203	122.061821
-14907.599468	5332.990000	1656.378906	161.215500
-14907.599468	5332.990000	1655.350586	195.714386
-14907.599468	5332.990000	1654.321289	183.756393
-14907.599468	5332.990000	1653.291992	273.967896
-14907.599468	5332.990000	1652.261719	229.506592
-14907.599468	5332.990000	1651.232422	187.389877
-14907.599468	5332.990000	1650.202148	258.996155
-14907.599468	5332.990000	1649.171875	140.336060
-14907.599468	5332.990000	1648.141602	156.263260
-14907.599468	5332.990000	1647.111328	167.551331
-14907.599468	5332.990000	1646.080078	229.849457
-14907.599468	5332.990000	1645.049805	122.899086
-14907.599468	5332.990000	1644.018555	152.743744
-14907.599468	5332.990000	1642.987305	150.139847
-14907.599468	5332.990000	1641.955078	89.618675
-14907.599468	5332.990000	1640.923828	110.204582
-14907.599468	5332.990000	1639.891602	119.206772
-14907.599468	5332.990000	1638.859375	102.741013
-14907.599468	5332.990000	1637.827148	53.876553
-14907.599468	5332.990000	1636.794922	42.072517
-14907.599468	5332.990000	1635.761719	111.275002
-14907.599468	5332.990000	1634.729492	92.536850
-14907.599468	5332.990000	1633.696289	6.725446
-14907.599468	5332.990000	1632.662109	112.919815
-14907.599468	5332.990000	1631.628906	31.777496
-14907.599468	5332.990000	1630.594727	-97.878525
-14907.599468	5332.990000	1629.561523	-0.946885
-14907.599468	5332.990000	1628.527344	12.755045
-14907.599468	5332.990000	1627.493164	79.603691
-14907.599468	5332.990000	1626.458008	74.818169
-14907.599468	5332.990000	1625.423828	104.689926
-14907.599468	5332.990000	1624.388672	51.423660
-14907.599468	5332.990000	1623.353516	136.715332
-14907.599468	5332.990000	1622.318359	-29.629026
-14907.599468	5332.990000	1621.282227	-41.271114
-14907.599468	5332.990000	1620.247070	25.556263
-14907.599468	5332.990000	1619.210938	-25.293201
-14907.599468	5332.990000	1618.174805	64.587593
-14907.599468	5332.990000	1617.137695	94.482033
-14907.599468	5332.990000	1616.101563	-11.658685
-14907.599468	5332.990000	1615.064453	68.973312
-14907.599468	5332.990000	1614.027344	71.221359
-14907.599468	5332.990000	1612.990234	-18.694447
-14907.599468	5332.990000	1611.953125	13.540473
-14907.599468	5332.990000	1610.916016	38.863010
-14907.599468	5332.990000	1609.877930	-0.299096
-14907.599468	5332.990000	1608.839844	73.388893
-14907.599468	5332.990000	1607.801758	-30.201817
-14907.599468	5332.990000	1606.763672	-34.770802
-14907.599468	5332.990000	1605.724609	34.309174
-14907.599468	5332.990000	1604.685547	11.343993
-14907.599468	5332.990000	1603.646484	20.603058
-14907.599468	5332.990000	1602.607422	119.563530
-14907.599468	5332.990000	1601.568359	46.042427
-14907.599468	5332.990000	1600.528320	108.197800
-14907.599468	5332.990000	1599.489258	133.566177
-14907.599468	5332.990000	1598.449219	94.589554
-14907.599468	5332.990000	1597.408203	152.137939
-14907.599468	5332.990000	1596.368164	101.711426
-14907.599468	5332.990000	1595.327148	230.457855
-14907.599468	5332.990000	1594.287109	33.099945
-14907.599468	5332.990000	1593.246094	109.030693
-14907.599468	5332.990000	1592.204102	118.377701
-14907.599468	5332.990000	1591.163086	148.389206
-14907.599468	5332.990000	1590.121094	65.971725
-14907.599468	5332.990000	1589.079102	1.951703
-14907.599468	5332.990000	1588.037109	18.244032
-14907.599468	5332.990000	1586.995117	78.112236
-14907.599468	5332.990000	1585.953125	-61.491447
-14907.599468	5332.990000	1584.910156	122.173729
-14907.599468	5332.990000	1583.867188	51.394588
-14907.599468	5332.990000	1582.824219	21.899969
-14907.599468	5332.990000	1581.781250	118.428490
-14907.599468	5332.990000	1580.737305	43.150150
-14907.599468	5332.990000	1579.693359	43.484020
-14907.599468	5332.990000	1578.649414	52.990002
-14907.599468	5332.990000	1577.605469	5.279019
-14907.599468	5332.990000	1576.561523	-40.110512
-14907.599468	5332.990000	1575.516602	-23.688223
-14907.599468	5332.990000	1574.472656	-11.832542
-14907.599468	5332.990000	1573.427734	-22.841125
-14907.599468	5332.990000	1572.381836	-33.832016
-14907.599468	5332.990000	1571.336914	7.783801
-14907.599468	5332.990000	1570.291016	-37.468739
-14907.599468	5332.990000	1569.246094	-82.687698
-14907.599468	5332.990000	1568.200195	9.227119
-14907.599468	5332.990000	1567.153320	30.297302
-14907.599468	5332.990000	1566.107422	-37.706154
-14907.599468	5332.990000	1565.060547	-66.846306
-14907.599468	5332.990000	1564.013672	-54.861546
-14907.599468	5332.990000	1562.966797	84.970612
-14907.599468	5332.990000	1561.919922	23.916342
-14907.599468	5332.990000	1560.872070	3.974496
-14907.599468	5332.990000	1559.825195	50.219105
-14907.599468	5332.990000	1558.777344	0.657587
-14907.599468	5332.990000	1557.729492	24.109083
-14907.599468	5332.990000	1556.680664	33.885487
-14907.599468	5332.990000	1555.632813	7.200103
-14907.599468	5332.990000	1554.583984	124.130295
-14907.599468	5332.990000	1553.535156	104.304703
-14907.599468	5332.990000	1552.486328	214.366684
-14907.599468	5332.990000	1551.436523	64.723190
-14907.599468	5332.990000	1550.387695	8.529979
-14907.599468	5332.990000	1549.337891	48.006893
-14907.599468	5332.990000	1548.288086	148.950455
-14907.599468	5332.990000	1547.238281	33.643200
-14907.599468	5332.990000	1546.187500	109.549728
-14907.599468	5332.990000	1545.136719	160.415497
-14907.599468	5332.990000	1544.086914	-27.568541
-14907.599468	5332.990000	1543.035156	91.564720
-14907.599468	5332.990000	1541.984375	99.250343
-14907.599468	5332.990000	1540.933594	129.683197
-14907.599468	5332.990000	1539.881836	173.757675
-14907.599468	5332.990000	1538.830078	56.484276
-14907.599468	5332.990000	1537.778320	123.309303
-14907.599468	5332.990000	1536.725586	110.618172
-14907.599468	5332.990000	1535.673828	-17.879124
-14907.599468	5332.990000	1534.621094	103.467369
-14907.599468	5332.990000	1533.568359	124.891678
-14907.599468	5332.990000	1532.515625	39.643585
-14907.599468	5332.990000	1531.461914	38.411545
-14907.599468	5332.990000	1530.409180	146.104858
-14907.599468	5332.990000	1529.355469	56.416096
-14907.599468	5332.990000	1528.301758	175.436874
-14907.599468	5332.990000	1527.247070	44.995117
-14907.599468	5332.990000	1526.193359	91.457260
-14907.599468	5332.990000	1525.138672	35.917614
-14907.599468	5332.990000	1524.083984	30.273874
-14907.599468	5332.990000	1523.029297	67.698898
-14907.599468	5332.990000	1521.974609	-14.935714
-14907.599468	5332.990000	1520.918945	-54.488243
-14907.599468	5332.990000	1519.863281	-30.604280
-14907.599468	5332.990000	1518.807617	-49.727909
-14907.599468	5332.990000	1517.751953	-23.556393
-14907.599468	5332.990000	1516.696289	-13.219615
-14907.599468	5332.990000	1515.639648	98.948639
-14907.599468	5332.990000	1514.583008	-62.635044
-14907.599468	5332.990000	1513.526367	-52.245338
-14907.599468	5332.990000	1512.469727	75.744713
-14907.599468	5332.990000	1511.412109	-126.382164
-14907.599468	5332.990000	1510.355469	92.022186
-14907.599468	5332.990000	1509.297852	68.542542
-14907.599468	5332.990000	1508.240234	-43.031101
-14907.599468	5332.990000	1507.181641	10.367500
-14907.599468	5332.990000	1506.124023	-37.875107
-14907.599468	5332.990000	1505.065430	47.149944
-14907.599468	5332.990000	1504.006836	5.726974
-14907.599468	5332.990000	1502.948242	77.200447
-14907.599468	5332.990000	1501.888672	26.794880
-14907.599468	5332.990000	1500.830078	44.117840
-14907.599468	5332.990000	1499.770508	-15.250506
-14907.599468	5332.990000	1498.710938	42.706738
-14907.599468	5332.990000	1497.650391	-14.348350
-14907.599468	5332.990000	1496.590820	-35.290028
-14907.599468	5332.990000	1495.530273	29.450275
-14907.599468	5332.990000	1494.469727	-20.755384
-14907.599468	5332.990000	1493.409180	-5.580138
-14907.599468	5332.990000	1492.348633	0.594884
-14907.599468	5332.990000	1491.287109	-146.374069
-14907.599468	5332.990000	1490.225586	-18.537365
-14907.599468	5332.990000	1489.164063	-64.095001
-14907.599468	5332.990000	1488.102539	-12.825088
-14907.599468	5332.990000	1487.041016	-123.597534
-14907.599468	5332.990000	1485.978516	4.201310
-14907.599468	5332.990000	1484.916016	14.990462
-14907.599468	5332.990000	1483.853516	109.000351
-14907.599468	5332.990000	1482.791016	45.585178
-14907.599468	5332.990000	1481.727539	103.615005
-14907.599468	5332.990000	1480.664063	127.922836
-14907.599468	5332.990000	1479.600586	188.186844
-14907.599468	5332.990000	1478.537109	306.872345
-14907.599468	5332.990000	1477.473633	319.889648
-14907.599468	5332.990000	1476.409180	548.532959
-14907.599468	5332.990000	1475.344727	786.082275
-14907.599468	5332.990000	1474.280273	893.269409
-14907.599468	5332.990000	1473.215820	897.216187
-14907.599468	5332.990000	1472.151367	845.127808
-14907.599468	5332.990000	1471.085938	858.129700
-14907.599468	5332.990000	1470.020508	662.624451
-14907.599468	5332.990000	1468.955078	722.653748
-14907.599468	5332.990000	1467.888672	800.554199
-14907.599468	5332.990000	1466.823242	656.900085
-14907.599468	5332.990000	1465.756836	528.827881
-14907.599468	5332.990000	1464.690430	580.058350
-14907.599468	5332.990000	1463.624023	416.390533
-14907.599468	5332.990000	1462.556641	389.406372
-14907.599468	5332.990000	1461.490234	306.524231
-14907.599468	5332.990000	1460.422852	333.003601
-14907.599468	5332.990000	1459.355469	272.778778
-14907.599468	5332.990000	1458.287109	122.604836
-14907.599468	5332.990000	1457.219727	158.283600
-14907.599468	5332.990000	1456.151367	226.923065
-14907.599468	5332.990000	1455.083008	133.766983
-14907.599468	5332.990000	1454.014648	223.138763
-14907.599468	5332.990000	1452.945313	203.027496
-14907.599468	5332.990000	1451.876953	146.728241
-14907.599468	5332.990000	1450.807617	175.847900
-14907.599468	5332.990000	1449.738281	214.089401
-14907.599468	5332.990000	1448.668945	185.013184
-14907.599468	5332.990000	1447.598633	196.192398
-14907.599468	5332.990000	1446.528320	307.606995
-14907.599468	5332.990000	1445.458008	416.387024
-14907.599468	5332.990000	1444.387695	300.402496
-14907.599468	5332.990000	1443.317383	259.239777
-14907.599468	5332.990000	1442.246094	309.740875
-14907.599468	5332.990000	1441.174805	294.602448
-14907.599468	5332.990000	1440.103516	360.285126
-14907.599468	5332.990000	1439.032227	412.123749
-14907.599468	5332.990000	1437.960938	397.993469
-14907.599468	5332.990000	1436.888672	522.498840
-14907.599468	5332.990000	1435.816406	502.687012
-14907.599468	5332.990000	1434.744141	522.075745
-14907.599468	5332.990000	1433.670898	369.152893
-14907.599468	5332.990000	1432.598633	381.025726
-14907.599468	5332.990000	1431.525391	306.825531
-14907.599468	5332.990000	1430.452148	182.277969
-14907.599468	5332.990000	1429.378906	263.984222
-14907.599468	5332.990000	1428.304688	224.803284
-14907.599468	5332.990000	1427.231445	236.488586
-14907.599468	5332.990000	1426.157227	85.972565
-14907.599468	5332.990000	1425.083008	102.964645
-14907.599468	5332.990000	1424.007813	46.064095
-14907.599468	5332.990000	1422.933594	126.007874
-14907.599468	5332.990000	1421.858398	10.057871
-14907.599468	5332.990000	1420.783203	68.173943
-14907.599468	5332.990000	1419.708008	54.895779
-14907.599468	5332.990000	1418.631836	27.683308
-14907.599468	5332.990000	1417.555664	5.484133
-14907.599468	5332.990000	1416.479492	26.296200
-14907.599468	5332.990000	1415.403320	-18.287823
-14907.599468	5332.990000	1414.327148	19.904324
-14907.599468	5332.990000	1413.250000	-13.690086
-14907.599468	5332.990000	1412.173828	-11.260852
-14907.599468	5332.990000	1411.096680	71.377731
-14907.599468	5332.990000	1410.018555	-29.210447
-14907.599468	5332.990000	1408.941406	21.220047
-14907.599468	5332.990000	1407.863281	-50.477051
-14907.599468	5332.990000	1406.785156	-37.363529
-14907.599468	5332.990000	1405.707031	0.958937
-14907.599468	5332.990000	1404.628906	90.005859
-14907.599468	5332.990000	1403.549805	80.156998
-14907.599468	5332.990000	1402.470703	39.569992
-14907.599468	5332.990000	1401.391602	137.979111
-14907.599468	5332.990000	1400.312500	51.708202
-14907.599468	5332.990000	1399.233398	21.915857
-14907.599468	5332.990000	1398.153320	-24.683165
-14907.599468	5332.990000	1397.073242	100.564575
-14907.599468	5332.990000	1395.993164	32.406769
-14907.599468	5332.990000	1394.913086	47.388462
-14907.599468	5332.990000	1393.832031	-5.749908
-14907.599468	5332.990000	1392.750977	90.237587
-14907.599468	5332.990000	1391.669922	-85.941406
-14907.599468	5332.990000	1390.588867	47.912701
-14907.599468	5332.990000	1389.506836	88.629250
-14907.599468	5332.990000	1388.425781	80.481110
-14907.599468	5332.990000	1387.343750	-38.009636
-14907.599468	5332.990000	1386.261719	50.994183
-14907.599468	5332.990000	1385.178711	27.069008
-14907.599468	5332.990000	1384.096680	5.403418
-14907.599468	5332.990000	1383.013672	92.552025
-14907.599468	5332.990000	1381.930664	74.227943
-14907.599468	5332.990000	1380.846680	50.255215
-14907.599468	5332.990000	1379.763672	5.184885
-14907.599468	5332.990000	1378.679688	4.595807
-14907.599468	5332.990000	1377.595703	53.054825
-14907.599468	5332.990000	1376.511719	62.500057
-14907.599468	5332.990000	1375.427734	68.102760
-14907.599468	5332.990000	1374.342773	73.082771
-14907.599468	5332.990000	1373.257813	49.508366
-14907.599468	5332.990000	1372.172852	32.034451
-14907.599468	5332.990000	1371.087891	71.124527
-14907.599468	5332.990000	1370.001953	98.400795
-14907.599468	5332.990000	1368.916992	118.501564
-14907.599468	5332.990000	1367.831055	-5.644320
-14907.599468	5332.990000	1366.744141	41.825348
-14907.599468	5332.990000	1365.658203	15.083745
-14907.599468	5332.990000	1364.571289	-51.331841
-14907.599468	5332.990000	1363.484375	11.596509
-14907.599468	5332.990000	1362.397461	-11.810280
-14907.599468	5332.990000	1361.310547	0.282388
-14907.599468	5332.990000	1360.222656	13.583683
-14907.599468	5332.990000	1359.135742	-18.379292
-14907.599468	5332.990000	1358.047852	4.587565
-14907.599468	5332.990000	1356.958984	10.356955
-14907.599468	5332.990000	1355.871094	-16.795767
-14907.599468	5332.990000	1354.782227	63.990288
-14907.599468	5332.990000	1353.693359	-58.359550
-14907.599468	5332.990000	1352.604492	34.593082
-14907.599468	5332.990000	1351.515625	12.977207
-14907.599468	5332.990000	1350.425781	-31.085596
-14907.599468	5332.990000	1349.335938	-11.590183
-14907.599468	5332.990000	1348.246094	-22.898489
-14907.599468	5332.990000	1347.156250	127.820419
-14907.599468	5332.990000	1346.066406	90.402603
-14907.599468	5332.990000	1344.975586	29.925470
-14907.599468	5332.990000	1343.884766	49.406353
-14907.599468	5332.990000	1342.793945	-3.034994
-14907.599468	5332.990000	1341.702148	29.952534
-14907.599468	5332.990000	1340.611328	-31.339981
-14907.599468	5332.990000	1339.519531	70.056160
-14907.599468	5332.990000	1338.427734	19.561823
-14907.599468	5332.990000	1337.334961	115.772522
-14907.599468	5332.990000	1336.243164	28.934872
-14907.599468	5332.990000	1335.150391	21.294701
-14907.599468	5332.990000	1334.057617	47.687416
-14907.599468	5332.990000	1332.964844	114.800644
-14907.599468	5332.990000	1331.871094	7.178155
-14907.599468	5332.990000	1330.778320	86.099976
-14907.599468	5332.990000	1329.684570	17.151579
-14907.599468	5332.990000	1328.590820	-0.274280
-14907.599468	5332.990000	1327.496094	100.613014
-14907.599468	5332.990000	1326.402344	26.402296
-14907.599468	5332.990000	1325.307617	148.545029
-14907.599468	5332.990000	1324.212891	-18.780384
-14907.599468	5332.990000	1323.117188	80.253777
-14907.599468	5332.990000	1322.022461	7.173357
-14907.599468	5332.990000	1320.926758	119.481339
-14907.599468	5332.990000	1319.831055	58.776043
-14907.599468	5332.990000	1318.735352	105.208961
-14907.599468	5332.990000	1317.638672	41.007004
-14907.599468	5332.990000	1316.542969	100.427437
-14907.599468	5332.990000	1315.446289	112.621475
-14907.599468	5332.990000	1314.349609	133.611725
-14907.599468	5332.990000	1313.251953	152.877792
-14907.599468	5332.990000	1312.155273	134.010437
-14907.599468	5332.990000	1311.057617	108.976311
-14907.599468	5332.990000	1309.959961	80.472572
-14907.599468	5332.990000	1308.862305	101.025482
-14907.599468	5332.990000	1307.763672	127.663254
-14907.599468	5332.990000	1306.665039	192.371384
-14907.599468	5332.990000	1305.566406	146.652924
-14907.599468	5332.990000	1304.467773	121.947487
-14907.599468	5332.990000	1303.369141	106.185852
-14907.599468	5332.990000	1302.269531	79.721436
-14907.599468	5332.990000	1301.169922	160.591492
-14907.599468	5332.990000	1300.070313	63.225842
-14907.599468	5332.990000	1298.970703	32.769161
-14907.599468	5332.990000	1297.870117	106.044098
-14907.599468	5332.990000	1296.769531	91.090340
-14907.599468	5332.990000	1295.668945	82.024734
-14907.599468	5332.990000	1294.568359	-0.328115
-14907.599468	5332.990000	1293.466797	82.747261
-14907.599468	5332.990000	1292.366211	48.686077
-14907.599468	5332.990000	1291.264648	160.253113
-14907.599468	5332.990000	1290.162109	-8.661842
-14907.599468	5332.990000	1289.060547	90.161339
-14907.599468	5332.990000	1287.958008	78.253319
-14907.599468	5332.990000	1286.855469	205.944565
-14907.599468	5332.990000	1285.752930	71.491318
-14907.599468	5332.990000	1284.650391	68.307068
-14907.599468	5332.990000	1283.546875	71.649765
-14907.599468	5332.990000	1282.444336	67.337692
-14907.599468	5332.990000	1281.339844	126.936638
-14907.599468	5332.990000	1280.236328	158.547623
-14907.599468	5332.990000	1279.132813	111.101929
-14907.599468	5332.990000	1278.028320	139.205658
-14907.599468	5332.990000	1276.923828	121.730553
-14907.599468	5332.990000	1275.819336	61.631851
-14907.599468	5332.990000	1274.713867	101.771744
-14907.599468	5332.990000	1273.608398	87.659447
-14907.599468	5332.990000	1272.503906	85.314896
-14907.599468	5332.990000	1271.397461	69.246979
-14907.599468	5332.990000	1270.291992	114.832870
-14907.599468	5332.990000	1269.185547	103.449646
-14907.599468	5332.990000	1268.080078	31.695641
-14907.599468	5332.990000	1266.972656	117.159569
-14907.599468	5332.990000	1265.866211	20.338243
-14907.599468	5332.990000	1264.759766	-58.028687
-14907.599468	5332.990000	1263.652344	3.810118
-14907.599468	5332.990000	1262.544922	58.031124
-14907.599468	5332.990000	1261.436523	-32.246159
-14907.599468	5332.990000	1260.329102	15.525383
-14907.599468	5332.990000	1259.220703	-55.947865
-14907.599468	5332.990000	1258.112305	-23.089035
-14907.599468	5332.990000	1257.003906	-29.237562
-14907.599468	5332.990000	1255.895508	-41.195278
-14907.599468	5332.990000	1254.786133	18.915371
-14907.599468	5332.990000	1253.676758	-106.074829
-14907.599468	5332.990000	1252.567383	-53.380547
-14907.599468	5332.990000	1251.458008	-18.331938
-14907.599468	5332.990000	1250.347656	17.421934
-14907.599468	5332.990000	1249.237305	-19.241251
-14907.599468	5332.990000	1248.126953	-76.494659
-14907.599468	5332.990000	1247.016602	2.516124
-14907.599468	5332.990000	1245.905273	45.783882
-14907.599468	5332.990000	1244.793945	-15.633034
-14907.599468	5332.990000	1243.682617	48.408623
-14907.599468	5332.990000	1242.571289	-20.331450
-14907.599468	5332.990000	1241.459961	-30.679487
-14907.599468	5332.990000	1240.347656	24.627535
-14907.599468	5332.990000	1239.235352	-8.061969
-14907.599468	5332.990000	1238.123047	-1.747814
-14907.599468	5332.990000	1237.009766	19.046637
-14907.599468	5332.990000	1235.897461	-7.041256
-14907.599468	5332.990000	1234.784180	-67.551323
-14907.599468	5332.990000	1233.670898	-15.131707
-14907.599468	5332.990000	1232.556641	-33.222286
-14907.599468	5332.990000	1231.443359	-33.119499
-14907.599468	5332.990000	1230.329102	-50.704273
-14907.599468	5332.990000	1229.214844	-57.184788
-14907.599468	5332.990000	1228.099609	19.241009
-14907.599468	5332.990000	1226.985352	35.897560
-14907.599468	5332.990000	1225.870117	5.993274
-14907.599468	5332.990000	1224.754883	-48.553795
-14907.599468	5332.990000	1223.639648	-34.194622
-14907.599468	5332.990000	1222.523438	-43.634987
-14907.599468	5332.990000	1221.408203	-2.083106
-14907.599468	5332.990000	1220.291992	-52.423637
-14907.599468	5332.990000	1219.174805	-31.926167
-14907.599468	5332.990000	1218.058594	-29.367252
-14907.599468	5332.990000	1216.941406	-0.503635
-14907.599468	5332.990000	1215.824219	47.636738
-14907.599468	5332.990000	1214.707031	44.552605
-14907.599468	5332.990000	1213.589844	28.800325
-14907.599468	5332.990000	1212.471680	13.913101
-14907.599468	5332.990000	1211.353516	-34.029324
-14907.599468	5332.990000	1210.235352	43.308712
-14907.599468	5332.990000	1209.117188	14.930096
-14907.599468	5332.990000	1207.998047	-28.967430
-14907.599468	5332.990000	1206.878906	64.705185
-14907.599468	5332.990000	1205.759766	-2.268170
-14907.599468	5332.990000	1204.640625	-18.442692
-14907.599468	5332.990000	1203.520508	-4.346001
-14907.599468	5332.990000	1202.401367	2.878551
-14907.599468	5332.990000	1201.281250	56.799049
-14907.599468	5332.990000	1200.160156	-31.472486
-14907.599468	5332.990000	1199.040039	-23.807892
-14907.599468	5332.990000	1197.918945	-43.631054
-14907.599468	5332.990000	1196.797852	-12.219815
-14907.599468	5332.990000	1195.676758	-65.683090
-14907.599468	5332.990000	1194.555664	-37.723778
-14907.599468	5332.990000	1193.433594	39.261082
-14907.599468	5332.990000	1192.311523	0.353769
-14907.599468	5332.990000	1191.189453	53.464668
-14907.599468	5332.990000	1190.066406	45.984325
-14907.599468	5332.990000	1188.944336	-16.723396
-14907.599468	5332.990000	1187.821289	30.011526
-14907.599468	5332.990000	1186.698242	-25.044750
-14907.599468	5332.990000	1185.574219	-42.296131
-14907.599468	5332.990000	1184.451172	-53.262737
-14907.599468	5332.990000	1183.327148	-36.493340
-14907.599468	5332.990000	1182.203125	18.344168
-14907.599468	5332.990000	1181.078125	-67.773285
-14907.599468	5332.990000	1179.954102	84.366898
-14907.599468	5332.990000	1178.829102	17.905855
-14907.599468	5332.990000	1177.704102	-7.604815
-14907.599468	5332.990000	1176.579102	13.043866
-14907.599468	5332.990000	1175.453125	-13.791545
-14907.599468	5332.990000	1174.327148	39.338036
-14907.599468	5332.990000	1173.201172	-35.688980
-14907.599468	5332.990000	1172.075195	-11.523477
-14907.599468	5332.990000	1170.949219	-27.193289
-14907.599468	5332.990000	1169.822266	-67.238373
-14907.599468	5332.990000	1168.695313	-126.255257
-14907.599468	5332.990000	1167.568359	-58.929012
-14907.599468	5332.990000	1166.440430	-37.201942
-14907.599468	5332.990000	1165.313477	-19.325665
-14907.599468	5332.990000	1164.185547	-29.093493
-14907.599468	5332.990000	1163.057617	-40.287724
-14907.599468	5332.990000	1161.928711	-50.156597
-14907.599468	5332.990000	1160.800781	-16.451925
-14907.599468	5332.990000	1159.671875	-30.813250
-14907.599468	5332.990000	1158.541992	-5.026474
-14907.599468	5332.990000	1157.413086	54.733284
-14907.599468	5332.990000	1156.283203	19.550819
-14907.599468	5332.990000	1155.154297	-47.334663
-14907.599468	5332.990000	1154.023438	-9.924556
-14907.599468	5332.990000	1152.893555	76.732506
-14907.599468	5332.990000	1151.763672	84.768143
-14907.599468	5332.990000	1150.632813	27.201660
-14907.599468	5332.990000	1149.501953	61.681004
-14907.599468	5332.990000	1148.370117	-31.397341
-14907.599468	5332.990000	1147.239258	1.500354
-14907.599468	5332.990000	1146.107422	26.557911
-14907.599468	5332.990000	1144.975586	27.265104
-14907.599468	5332.990000	1143.843750	35.106323
-14907.599468	5332.990000	1142.710938	92.775887
-14907.599468	5332.990000	1141.578125	16.034824
-14907.599468	5332.990000	1140.445313	47.060162
-14907.599468	5332.990000	1139.312500	83.554794
-14907.599468	5332.990000	1138.178711	-5.753535
-14907.599468	5332.990000	1137.045898	69.000549
-14907.599468	5332.990000	1135.912109	17.533007
-14907.599468	5332.990000	1134.777344	41.003513
-14907.599468	5332.990000	1133.643555	3.137578
-14907.599468	5332.990000	1132.508789	39.652355
-14907.599468	5332.990000	1131.374023	63.808689
-14907.599468	5332.990000	1130.239258	-7.846519
-14907.599468	5332.990000	1129.104492	30.026110
-14907.599468	5332.990000	1127.968750	7.993881
-14907.599468	5332.990000	1126.833008	74.146515
-14907.599468	5332.990000	1125.697266	-8.131918
-14907.599468	5332.990000	1124.560547	101.726112
-14907.599468	5332.990000	1123.424805	9.231608
-14907.599468	5332.990000	1122.288086	16.902918
-14907.599468	5332.990000	1121.151367	-10.571335
-14907.599468	5332.990000	1120.013672	14.068022
-14907.599468	5332.990000	1118.876953	25.580326
-14907.599468	5332.990000	1117.739258	-28.396488
-14907.599468	5332.990000	1116.601563	-29.762152
-14907.599468	5332.990000	1115.462891	36.438538
-14907.599468	5332.990000	1114.324219	20.107613
-14907.599468	5332.990000	1113.186523	-2.727374
-14907.599468	5332.990000	1112.046875	28.725100
-14907.599468	5332.990000	1110.908203	-29.009521
-14907.599468	5332.990000	1109.769531	-33.987278
-14907.599468	5332.990000	1108.629883	-23.702459
-14907.599468	5332.990000	1107.490234	49.378109
-14907.599468	5332.990000	1106.349609	36.606812
-14907.599468	5332.990000	1105.209961	66.496277
-14907.599468	5332.990000	1104.069336	42.659439
-14907.599468	5332.990000	1102.928711	-19.698883
-14907.599468	5332.990000	1101.787109	7.982662
-14907.599468	5332.990000	1100.646484	92.663277
-14907.599468	5332.990000	1099.504883	27.813282
-14907.599468	5332.990000	1098.363281	22.108953
-14907.599468	5332.990000	1097.221680	13.302287
-14907.599468	5332.990000	1096.079102	91.403351
-14907.599468	5332.990000	1094.936523	76.530327
-14907.599468	5332.990000	1093.793945	33.600494
-14907.599468	5332.990000	1092.651367	59.223286
-14907.599468	5332.990000	1091.507813	108.929001
-14907.599468	5332.990000	1090.364258	50.596840
-14907.599468	5332.990000	1089.220703	22.297890
-14907.599468	5332.990000	1088.077148	137.062469
-14907.599468	5332.990000	1086.933594	8.572763
-14907.599468	5332.990000	1085.789063	153.805099
-14907.599468	5332.990000	1084.644531	115.896027
-14907.599468	5332.990000	1083.499023	126.329681
-14907.599468	5332.990000	1082.354492	73.693344
-14907.599468	5332.990000	1081.208984	20.556803
-14907.599468	5332.990000	1080.063477	1.461410
-14907.599468	5332.990000	1078.917969	83.199203
-14907.599468	5332.990000	1077.771484	19.414953
-14907.599468	5332.990000	1076.625977	36.810719
-14907.599468	5332.990000	1075.479492	27.730431
-14907.599468	5332.990000	1074.332031	76.605774
-14907.599468	5332.990000	1073.185547	8.250880
-14907.599468	5332.990000	1072.038086	113.903717
-14907.599468	5332.990000	1070.890625	82.455986
-14907.599468	5332.990000	1069.743164	1.047885
-14907.599468	5332.990000	1068.594727	-25.647520
-14907.599468	5332.990000	1067.447266	9.247660
-14907.599468	5332.990000	1066.298828	71.319496
-14907.599468	5332.990000	1065.149414	88.746506
-14907.599468	5332.990000	1064.000977	74.137794
-14907.599468	5332.990000	1062.851563	86.815254
-14907.599468	5332.990000	1061.702148	78.345673
-14907.599468	5332.990000	1060.552734	2.055040
-14907.599468	5332.990000	1059.402344	-57.333069
-14907.599468	5332.990000	1058.252930	2.538050
-14907.599468	5332.990000	1057.102539	109.391869
-14907.599468	5332.990000	1055.951172	29.240892
-14907.599468	5332.990000	1054.800781	66.889824
-14907.599468	5332.990000	1053.649414	29.289673
-14907.599468	5332.990000	1052.498047	-10.653152
-14907.599468	5332.990000	1051.346680	35.247440
-14907.599468	5332.990000	1050.194336	60.507000
-14907.599468	5332.990000	1049.042969	66.259613
-14907.599468	5332.990000	1047.890625	94.006798
-14907.599468	5332.990000	1046.738281	27.142521
-14907.599468	5332.990000	1045.584961	29.464317
-14907.599468	5332.990000	1044.431641	-3.815965
-14907.599468	5332.990000	1043.278320	52.134979
-14907.599468	5332.990000	1042.125000	35.758362
-14907.599468	5332.990000	1040.971680	18.156288
-14907.599468	5332.990000	1039.817383	8.752983
-14907.599468	5332.990000	1038.663086	56.643368
-14907.599468	5332.990000	1037.508789	-21.512844
-14907.599468	5332.990000	1036.353516	-36.308517
-14907.599468	5332.990000	1035.198242	61.178417
-14907.599468	5332.990000	1034.042969	-29.722153
-14907.599468	5332.990000	1032.887695	152.781815
-14907.599468	5332.990000	1031.732422	-33.099174
-14907.599468	5332.990000	1030.576172	14.998780
-14907.599468	5332.990000	1029.419922	4.758504
-14907.599468	5332.990000	1028.263672	45.614864
-14907.599468	5332.990000	1027.106445	37.695187
-14907.599468	5332.990000	1025.949219	45.373219
-14907.599468	5332.990000	1024.792969	25.108162
-14907.599468	5332.990000	1023.634766	23.908356
-14907.599468	5332.990000	1022.477539	30.776302
-14907.599468	5332.990000	1021.319336	57.694382
-14907.599468	5332.990000	1020.161133	-31.383821
-14907.599468	5332.990000	1019.002930	-28.416754
-14907.599468	5332.990000	1017.843750	68.808105
-14907.599468	5332.990000	1016.684570	-7.374550
-14907.599468	5332.990000	1015.525391	-49.148998
-14907.599468	5332.990000	1014.366211	-15.578670
-14907.599468	5332.990000	1013.207031	-61.500671
-14907.599468	5332.990000	1012.046875	-8.962015
-14907.599468	5332.990000	1010.886719	-3.838207
-14907.599468	5332.990000	1009.726563	-17.644337
-14907.599468	5332.990000	1008.565430	48.449047
-14907.599468	5332.990000	1007.404297	-43.226284
-14907.599468	5332.990000	1006.243164	-22.770872
-14907.599468	5332.990000	1005.082031	54.639061
-14907.599468	5332.990000	1003.920898	61.058975
-14907.599468	5332.990000	1002.758789	34.640343
-14907.599468	5332.990000	1001.596680	61.619717
-14907.599468	5332.990000	1000.433594	-42.316032
-14907.599468	5332.990000	999.271484	21.127703
-14907.599468	5332.990000	998.108398	-0.771338
-14907.599468	5332.990000	996.945313	38.470474
-14907.599468	5332.990000	995.782227	-45.554775
-14907.599468	5332.990000	994.618164	14.765551
-14907.599468	5332.990000	993.454102	33.341110
-14907.599468	5332.990000	992.290039	70.971504
-14907.599468	5332.990000	991.125977	49.144558
-14907.599468	5332.990000	989.960938	32.037128
-14907.599468	5332.990000	988.796875	38.257057
-14907.599468	5332.990000	987.630859	-26.177647
-14907.599468	5332.990000	986.465820	48.881344
-14907.599468	5332.990000	985.300781	-15.378383
-14907.599468	5332.990000	984.134766	66.185585
-14907.599468	5332.990000	982.968750	122.164307
-14907.599468	5332.990000	981.801758	34.876705
-14907.599468	5332.990000	980.635742	60.006069
-14907.599468	5332.990000	979.468750	-32.678425
-14907.599468	5332.990000	978.301758	-63.757362
-14907.599468	5332.990000	977.133789	-56.692333
-14907.599468	5332.990000	975.966797	23.289309
-14907.599468	5332.990000	974.798828	-84.975159
-14907.599468	5332.990000	973.630859	-5.839998
-14907.599468	5332.990000	972.461914	45.407513
-14907.599468	5332.990000	971.293945	36.075905
-14907.599468	5332.990000	970.125000	41.672134
-14907.599468	5332.990000	968.956055	93.626602
-14907.599468	5332.990000	967.786133	102.513847
-14907.599468	5332.990000	966.617188	72.559135
-14907.599468	5332.990000	965.447266	27.792629
-14907.599468	5332.990000	964.276367	-66.689468
-14907.599468	5332.990000	963.106445	-32.483166
-14907.599468	5332.990000	961.935547	80.272003
-14907.599468	5332.990000	960.764648	-13.944985
-14907.599468	5332.990000	959.593750	42.847584
-14907.599468	5332.990000	958.422852	94.910233
-14907.599468	5332.990000	957.250977	38.696144
-14907.599468	5332.990000	956.079102	104.940163
-14907.599468	5332.990000	954.907227	94.584198
-14907.599468	5332.990000	953.734375	15.725726
-14907.599468	5332.990000	952.562500	16.068041
-14907.599468	5332.990000	951.389648	-24.494213
-14907.599468	5332.990000	950.215820	-23.994467
-14907.599468	5332.990000	949.042969	-41.172554
-14907.599468	5332.990000	947.869141	7.563683
-14907.599468	5332.990000	946.695313	-91.810455
-14907.599468	5332.990000	945.521484	-101.624535
-14907.599468	5332.990000	944.346680	-119.042320
-14907.599468	5332.990000	943.172852	65.481743
-14907.599468	5332.990000	941.998047	-156.808563
-14907.599468	5332.990000	940.822266	-48.791168
-14907.599468	5332.990000	939.647461	-17.747662
-14907.599468	5332.990000	938.471680	26.197071
-14907.599468	5332.990000	937.295898	-65.514633
-14907.599468	5332.990000	936.119141	-11.306062
-14907.599468	5332.990000	934.943359	37.710873
-14907.599468	5332.990000	933.766602	-2.738378
-14907.599468	5332.990000	932.589844	30.904242
-14907.599468	5332.990000	931.413086	115.711243
-14907.599468	5332.990000	930.235352	82.864807
-14907.599468	5332.990000	929.057617	67.921776
-14907.599468	5332.990000	927.879883	-74.787300
-14907.599468	5332.990000	926.702148	27.874304
-14907.599468	5332.990000	925.523438	120.285553
-14907.599468	5332.990000	924.344727	84.918549
-14907.599468	5332.990000	923.166016	16.357756
-14907.599468	5332.990000	921.987305	21.890530
-14907.599468	5332.990000	920.807617	-44.081223
-14907.599468	5332.990000	919.627930	-43.121777
-14907.599468	5332.990000	919.497070	-7.791438
-14907.599468	5332.990000	918.331055	-40.555672
-14907.599468	5332.990000	917.165039	21.124201
-14907.599468	5332.990000	915.999023	16.436892
-14907.599468	5332.990000	914.833008	80.632393
-14907.599468	5332.990000	913.666016	55.532284
-14907.599468	5332.990000	912.499023	38.093281
-14907.599468	5332.990000	911.332031	35.959415
-14907.599468	5332.990000	910.165039	13.434623
-14907.599468	5332.990000	908.997070	69.924721
-14907.599468	5332.990000	907.830078	-3.556771
-14907.599468	5332.990000	906.661133	-5.676658
-14907.599468	5332.990000	905.493164	20.220846
-14907.599468	5332.990000	904.325195	18.097462
-14907.599468	5332.990000	903.156250	-14.575086
-14907.599468	5332.990000	901.987305	21.492424
-14907.599468	5332.990000	900.818359	49.911053
-14907.599468	5332.990000	899.648438	19.798769
-14907.599468	5332.990000	898.478516	-56.090370
-14907.599468	5332.990000	897.308594	-25.127966
-14907.599468	5332.990000	896.138672	-19.605797
-14907.599468	5332.990000	894.968750	26.591105
-14907.599468	5332.990000	893.797852	-16.192005
-14907.599468	5332.990000	892.626953	-15.755758
-14907.599468	5332.990000	891.456055	-15.319666
-14907.599468	5332.990000	890.284180	7.979594
-14907.599468	5332.990000	889.113281	64.284676
-14907.599468	5332.990000	887.941406	31.696270
-14907.599468	5332.990000	886.768555	16.892815
-14907.599468	5332.990000	885.596680	116.311882
-14907.599468	5332.990000	884.423828	139.561737
-14907.599468	5332.990000	883.250977	-27.481272
-14907.599468	5332.990000	882.078125	18.618135
-14907.599468	5332.990000	880.905273	-8.847604
-14907.599468	5332.990000	879.731445	123.438927
-14907.599468	5332.990000	878.557617	-122.050209
-14907.599468	5332.990000	877.383789	30.481581
-14907.599468	5332.990000	876.209961	30.910231
-14907.599468	5332.990000	875.035156	84.542412
-14907.599468	5332.990000	873.860352	-11.292644
-14907.599468	5332.990000	872.685547	-84.296631
-14907.599468	5332.990000	871.510742	-15.482784
-14907.599468	5332.990000	870.334961	53.303223
-14907.599468	5332.990000	869.159180	8.170161
-14907.599468	5332.990000	867.983398	3.541329
-14907.599468	5332.990000	866.807617	-49.153389
-14907.599468	5332.990000	865.630859	-48.710361
-14907.599468	5332.990000	864.454102	-63.440739
-14907.599468	5332.990000	863.277344	0.211585
-14907.599468	5332.990000	862.100586	38.559063
-14907.599468	5332.990000	860.922852	74.363914
-14907.599468	5332.990000	859.745117	26.770304
-14907.599468	5332.990000	858.567383	-89.012825
-14907.599468	5332.990000	857.389648	-38.052422
-14907.599468	5332.990000	856.210938	2.786284
-14907.599468	5332.990000	855.032227	-72.527824
-14907.599468	5332.990000	853.853516	23.830387
-14907.599468	5332.990000	852.674805	-6.033904
-14907.599468	5332.990000	851.495117	-10.655128
-14907.599468	5332.990000	850.315430	62.925102
-14907.599468	5332.990000	849.135742	111.252869
-14907.599468	5332.990000	847.956055	-29.558107
-14907.599468	5332.990000	846.775391	109.524620
-14907.599468	5332.990000	845.595703	39.343685
-14907.599468	5332.990000	844.415039	19.591248
-14907.599468	5332.990000	843.233398	4.885166
-14907.599468	5332.990000	842.052734	50.637894
-14907.599468	5332.990000	840.871094	0.669761
-14907.599468	5332.990000	839.689453	81.653030
-14907.599468	5332.990000	838.506836	-6.065404
-14907.599468	5332.990000	837.325195	137.804855
-14907.599468	5332.990000	836.142578	95.402229
-14907.599468	5332.990000	834.959961	98.300354
-14907.599468	5332.990000	833.777344	-6.964695
-14907.599468	5332.990000	832.593750	88.998634
-14907.599468	5332.990000	831.410156	-43.882256
-14907.599468	5332.990000	830.226563	-53.534927
-14907.599468	5332.990000	829.042969	-50.619362
-14907.599468	5332.990000	827.858398	-10.015485
-14907.599468	5332.990000	826.673828	10.471433
-14907.599468	5332.990000	825.489258	-34.357895
-14907.599468	5332.990000	824.304688	111.680542
-14907.599468	5332.990000	823.120117	26.672617
-14907.599468	5332.990000	821.934570	112.389259
-14907.599468	5332.990000	820.749023	4.824525
-14907.599468	5332.990000	819.562500	40.322590
-14907.599468	5332.990000	818.376953	-6.982353
-14907.599468	5332.990000	817.190430	-16.648476
-14907.599468	5332.990000	816.003906	18.822683
-14907.599468	5332.990000	814.817383	89.374901
-14907.599468	5332.990000	813.629883	-75.720192
-14907.599468	5332.990000	812.442383	49.948978
-14907.599468	5332.990000	811.254883	10.198975
-14907.599468	5332.990000	810.067383	63.146671
-14907.599468	5332.990000	808.878906	-24.181173
-14907.599468	5332.990000	807.690430	41.264942
-14907.599468	5332.990000	806.501953	124.204185
-14907.599468	5332.990000	805.313477	-28.169436
-14907.599468	5332.990000	804.124023	-22.831856
-14907.599468	5332.990000	802.934570	25.031578
-14907.599468	5332.990000	801.745117	-22.181021
-14907.599468	5332.990000	800.555664	18.151857
-14907.599468	5332.990000	799.365234	85.967827
-14907.599468	5332.990000	798.175781	153.751038
-14907.599468	5332.990000	796.985352	-38.424950
-14907.599468	5332.990000	795.793945	-38.119076
-14907.599468	5332.990000	794.603516	22.139906
-14907.599468	5332.990000	793.412109	52.396950
-14907.599468	5332.990000	792.220703	75.144966
-14907.599468	5332.990000	791.028320	42.951908
-14907.599468	5332.990000	789.836914	23.247545
-14907.599468	5332.990000	788.644531	60.947407
-14907.599468	5332.990000	787.452148	38.742905
-14907.599468	5332.990000	786.258789	98.866287
-14907.599468	5332.990000	785.066406	-18.124237
-14907.599468	5332.990000	783.873047	71.898750
-14907.599468	5332.990000	782.679688	-87.430206
-14907.599468	5332.990000	781.485352	-42.306622
-14907.599468	5332.990000	780.291992	85.029671
-14907.599468	5332.990000	779.097656	35.408924
-14907.599468	5332.990000	777.903320	23.168333
-14907.599468	5332.990000	776.708008	-58.806572
-14907.599468	5332.990000	775.512695	-58.583611
-14907.599468	5332.990000	774.318359	18.806278
-14907.599468	5332.990000	773.122070	21.490515
-14907.599468	5332.990000	771.926758	19.189913
-14907.599468	5332.990000	770.730469	21.860638
-14907.599468	5332.990000	769.534180	119.045242
-14907.599468	5332.990000	768.337891	9.771485
-14907.599468	5332.990000	767.141602	141.714584
-14907.599468	5332.990000	765.944336	-12.276110
-14907.599468	5332.990000	764.747070	139.486755
-14907.599468	5332.990000	763.549805	32.758724
-14907.599468	5332.990000	762.351563	55.252659
-14907.599468	5332.990000	761.154297	-53.910767
-14907.599468	5332.990000	759.956055	53.008945
-14907.599468	5332.990000	758.757813	58.084423
-14907.599468	5332.990000	757.558594	90.455757
-14907.599468	5332.990000	756.359375	169.959274
-14907.599468	5332.990000	755.160156	23.633217
-14907.599468	5332.990000	753.960938	103.102768
-14907.599468	5332.990000	752.761719	33.722107
-14907.599468	5332.990000	751.561523	31.313662
-14907.599468	5332.990000	750.361328	-60.349937
-14907.599468	5332.990000	749.160156	71.092796
-14907.599468	5332.990000	747.959961	118.217018
-14907.599468	5332.990000	746.758789	-3.160727
-14907.599468	5332.990000	745.557617	11.742463
-14907.599468	5332.990000	744.356445	110.834244
-14907.599468	5332.990000	743.154297	100.931625
-14907.599468	5332.990000	741.952148	21.711103
-14907.599468	5332.990000	740.750000	86.064941
-14907.599468	5332.990000	739.547852	113.266525
-14907.599468	5332.990000	738.344727	81.073997
-14907.599468	5332.990000	737.142578	71.147118
-14907.599468	5332.990000	735.939453	63.689034
-14907.599468	5332.990000	734.735352	147.705521
-14907.599468	5332.990000	733.532227	53.701347
-14907.599468	5332.990000	732.328125	127.781960
-14907.599468	5332.990000	731.124023	144.993301
-14907.599468	5332.990000	729.918945	75.726791
-14907.599468	5332.990000	728.714844	6.480163
-14907.599468	5332.990000	727.509766	55.780941
-14907.599468	5332.990000	726.303711	112.458885
-14907.599468	5332.990000	725.098633	70.372620
-14907.599468	5332.990000	723.892578	-23.527769
-14907.599468	5332.990000	722.686523	45.439941
-14907.599468	5332.990000	721.480469	20.634344
-14907.599468	5332.990000	720.274414	35.289028
-14907.599468	5332.990000	719.067383	106.639587
-14907.599468	5332.990000	717.860352	39.901001
-14907.599468	5332.990000	716.653320	37.261936
-14907.599468	5332.990000	715.445313	-12.203647
-14907.599468	5332.990000	714.238281	-81.367691
-14907.599468	5332.990000	713.030273	-76.618370
-14907.599468	5332.990000	711.821289	-96.506538
-14907.599468	5332.990000	710.613281	-49.919945
-14907.599468	5332.990000	709.404297	60.638191
-14907.599468	5332.990000	708.195313	13.633156
-14907.599468	5332.990000	706.986328	-3.835480
-14907.599468	5332.990000	705.776367	-50.826870
-14907.599468	5332.990000	704.566406	25.166779
-14907.599468	5332.990000	703.356445	71.610512
-14907.599468	5332.990000	702.146484	63.938633
-14907.599468	5332.990000	700.935547	-29.768402
-14907.599468	5332.990000	699.724609	95.265793
-14907.599468	5332.990000	698.513672	48.252861
-14907.599468	5332.990000	697.302734	-11.032332
-14907.599468	5332.990000	696.090820	-13.817449
-14907.599468	5332.990000	694.878906	86.514015
-14907.599468	5332.990000	693.666992	78.779427
-14907.599468	5332.990000	692.455078	21.951162
-14907.599468	5332.990000	691.242188	33.843281
-14907.599468	5332.990000	690.029297	-64.678650
-14907.599468	5332.990000	688.816406	50.223484
-14907.599468	5332.990000	687.602539	40.000679
-14907.599468	5332.990000	686.389648	27.319969
-14907.599468	5332.990000	685.175781	17.085312
-14907.599468	5332.990000	683.960938	38.704140
-14907.599468	5332.990000	682.747070	55.402863
-14907.599468	5332.990000	681.532227	52.486271
-14907.599468	5332.990000	680.317383	7.924510
-14907.599468	5332.990000	679.102539	-34.180626
-14907.599468	5332.990000	677.886719	-56.693386
-14907.599468	5332.990000	676.670898	89.679649
-14907.599468	5332.990000	675.455078	69.576157
-14907.599468	5332.990000	674.239258	29.897751
-14907.599468	5332.990000	673.022461	-2.436394
-14907.599468	5332.990000	671.805664	75.283188
-14907.599468	5332.990000	670.588867	79.607513
-14907.599468	5332.990000	669.372070	93.697479
-14907.599468	5332.990000	668.154297	58.890446
-14907.599468	5332.990000	666.936523	4.538982
-14907.599468	5332.990000	665.718750	-98.659889
-14907.599468	5332.990000	664.500977	22.881985
-14907.599468	5332.990000	663.282227	32.031708
-14907.599468	5332.990000	662.063477	50.932423
-14907.599468	5332.990000	660.844727	57.609779
-14907.599468	5332.990000	659.625000	98.439415
-14907.599468	5332.990000	658.405273	68.483925
-14907.599468	5332.990000	657.185547	-2.939282
-14907.599468	5332.990000	655.965820	71.989388
-14907.599468	5332.990000	654.745117	-14.055874
-14907.599468	5332.990000	653.525391	-12.313055
-14907.599468	5332.990000	652.303711	45.476460
-14907.599468	5332.990000	651.083008	166.588516
-14907.599468	5332.990000	649.861328	129.278931
-14907.599468	5332.990000	648.640625	-15.199736
-14907.599468	5332.990000	647.417969	76.592918
-14907.599468	5332.990000	646.196289	102.597885
-14907.599468	5332.990000	644.973633	-12.604621
-14907.599468	5332.990000	643.750977	71.796173
-14907.599468	5332.990000	642.528320	-2.007568
-14907.599468	5332.990000	641.305664	-17.405943
-14907.599468	5332.990000	640.082031	130.147232
-14907.599468	5332.990000	638.858398	46.619743
-14907.599468	5332.990000	637.634766	106.555092
-14907.599468	5332.990000	636.410156	74.090012
-14907.599468	5332.990000	635.185547	46.488949
-14907.599468	5332.990000	633.960938	38.325928
-14907.599468	5332.990000	632.736328	39.872471
-14907.599468	5332.990000	631.510742	99.693520
-14907.599468	5332.990000	630.285156	18.651697
-14907.599468	5332.990000	629.059570	22.598131
-14907.599468	5332.990000	627.833984	-19.580900
-14907.599468	5332.990000	626.607422	40.161446
-14907.599468	5332.990000	625.380859	34.366306
-14907.599468	5332.990000	624.154297	50.393101
-14907.599468	5332.990000	622.927734	-54.845512
-14907.599468	5332.990000	621.700195	58.151382
-14907.599468	5332.990000	620.472656	103.220367
-14907.599468	5332.990000	619.245117	7.701347
-14907.599468	5332.990000	618.016602	115.737793
-14907.599468	5332.990000	616.788086	27.503962
-14907.599468	5332.990000	615.559570	-38.904877
-14907.599468	5332.990000	614.331055	-25.390022
-14907.599468	5332.990000	613.101563	51.051842
-14907.599468	5332.990000	611.872070	-29.870823
-14907.599468	5332.990000	610.642578	34.421394
-14907.599468	5332.990000	609.413086	-17.450344
-14907.599468	5332.990000	608.182617	-23.352375
-14907.599468	5332.990000	606.952148	57.797089
-14907.599468	5332.990000	605.721680	-102.874443
-14907.599468	5332.990000	604.491211	-19.343470
-14907.599468	5332.990000	603.259766	-56.694847
-14907.599468	5332.990000	602.028320	-60.211994
-14907.599468	5332.990000	600.796875	-196.601379
-14907.599468	5332.990000	599.564453	-35.871487
-14907.599468	5332.990000	598.332031	54.755100
-14907.599468	5332.990000	597.099609	29.453739
-14907.599468	5332.990000	595.867188	6.568254
-14907.599468	5332.990000	594.633789	-124.908379
-14907.599468	5332.990000	593.400391	23.528313
-14907.599468	5332.990000	592.166992	70.584221
-14907.599468	5332.990000	590.933594	28.382214
-14907.599468	5332.990000	589.699219	36.822231
-14907.599468	5332.990000	588.464844	-29.477457
-14907.599468	5332.990000	587.230469	-13.814869
-14907.599468	5332.990000	585.995117	52.433056
-14907.599468	5332.990000	584.760742	-81.305267
-14907.599468	5332.990000	583.525391	-3.044540
-14907.599468	5332.990000	582.289063	48.686001
-14907.599468	5332.990000	581.053711	66.682480
-14907.599468	5332.990000	579.817383	62.999985
-14907.599468	5332.990000	578.581055	-44.167233
-14907.599468	5332.990000	577.343750	-28.592644
-14907.599468	5332.990000	576.107422	35.077057
-14907.599468	5332.990000	574.870117	36.183533
-14907.599468	5332.990000	573.631836	39.685577
-14907.599468	5332.990000	572.394531	23.948244
-14907.599468	5332.990000	571.156250	-30.244455
-14907.599468	5332.990000	569.917969	-2.723386
-14907.599468	5332.990000	568.679688	-92.937202
-14907.599468	5332.990000	567.440430	11.430172
-14907.599468	5332.990000	566.202148	-18.728806
-14907.599468	5332.990000	564.961914	23.141874
-14907.599468	5332.990000	563.722656	-117.435539
-14907.599468	5332.990000	562.482422	-73.175652
-14907.599468	5332.990000	561.243164	55.034473
-14907.599468	5332.990000	560.001953	80.034241
-14907.599468	5332.990000	558.761719	30.671146
-14907.599468	5332.990000	557.520508	36.470284
-14907.599468	5332.990000	556.279297	27.876959
-14907.599468	5332.990000	555.038086	86.389030
-14907.599468	5332.990000	553.795898	-3.696276
-14907.599468	5332.990000	552.554688	-17.086281
-14907.599468	5332.990000	551.311523	12.635209
-14907.599468	5332.990000	550.069336	-19.923481
-14907.599468	5332.990000	548.826172	-6.985865
-14907.599468	5332.990000	547.583984	34.664597
-14907.599468	5332.990000	546.339844	14.068053
-14907.599468	5332.990000	545.096680	-68.733772
-14907.599468	5332.990000	543.852539	1.588782
-14907.599468	5332.990000	542.608398	47.959072
-14907.599468	5332.990000	541.364258	-41.988834
-14907.599468	5332.990000	540.119141	42.607399
-14907.599468	5332.990000	538.875000	-11.461921
-14907.599468	5332.990000	537.628906	-15.334728
-14907.599468	5332.990000	536.383789	30.958746
-14907.599468	5332.990000	535.137695	-49.366417
-14907.599468	5332.990000	533.892578	-3.097281
-14907.599468	5332.990000	532.645508	45.531967
-14907.599468	5332.990000	531.399414	51.169598
-14907.599468	5332.990000	530.152344	28.160032
-14907.599468	5332.990000	528.905273	62.417854
-14907.599468	5332.990000	527.658203	68.029236
-14907.599468	5332.990000	526.410156	28.317860
-14907.599468	5332.990000	525.163086	24.384623
-14907.599468	5332.990000	523.914063	-48.688126
-14907.599468	5332.990000	522.666016	-35.931988
-14907.599468	5332.990000	521.416992	-44.634220
-14907.599468	5332.990000	520.167969	-31.897341
-14907.599468	5332.990000	518.918945	-19.172066
-14907.599468	5332.990000	517.669922	36.406063
-14907.599468	5332.990000	516.419922	-84.229980
-14907.599468	5332.990000	515.169922	16.551653
-14907.599468	5332.990000	513.919922	-15.987124
-14907.599468	5332.990000	512.668945	-119.898727
-14907.599468	5332.990000	511.417969	16.487520
-14907.599468	5332.990000	510.166992	-68.373146
-14907.599468	5332.990000	508.916016	-74.736908
-14907.599468	5332.990000	507.664063	-69.219452
-14907.599468	5332.990000	506.412109	26.606234
-14907.599468	5332.990000	505.160156	3.570605
-14907.599468	5332.990000	503.907227	49.433674
-14907.599468	5332.990000	502.655273	21.638453
-14907.599468	5332.990000	501.402344	29.467745
-14907.599468	5332.990000	500.148438	42.033710
-14907.599468	5332.990000	498.895508	-54.602718
-14907.599468	5332.990000	497.641602	24.409815
-14907.599468	5332.990000	496.387695	15.591076
-14907.599468	5332.990000	495.132813	-9.837838
-14907.599468	5332.990000	493.878906	54.859558
-14907.599468	5332.990000	492.624023	-77.285530
-14907.599468	5332.990000	491.368164	30.050907
-14907.599468	5332.990000	490.113281	73.339737
-14907.599468	5332.990000	488.857422	59.729042
-14907.599468	5332.990000	487.601563	67.436813
-14907.599468	5332.990000	486.344727	1.704290
-14907.599468	5332.990000	485.088867	-61.640945
-14907.599468	5332.990000	483.832031	81.009056
-14907.599468	5332.990000	482.575195	83.930603
-14907.599468	5332.990000	481.317383	202.799942
-14907.599468	5332.990000	480.059570	70.806725
-14907.599468	5332.990000	478.801758	-25.658012
-14907.599468	5332.990000	477.543945	17.443762
-14907.599468	5332.990000	476.285156	8.494505
-14907.599468	5332.990000	475.027344	37.361862
-14907.599468	5332.990000	473.767578	-35.428032
-14907.599468	5332.990000	472.508789	76.114098
-14907.599468	5332.990000	471.249023	41.120331
-14907.599468	5332.990000	469.989258	-43.473381
-14907.599468	5332.990000	468.729492	-54.839561
-14907.599468	5332.990000	467.469727	-49.689068
-14907.599468	5332.990000	466.208984	-2.069070
-14907.599468	5332.990000	464.948242	50.234684
-14907.599468	5332.990000	463.686523	19.919352
-14907.599468	5332.990000	462.425781	13.190543
-14907.599468	5332.990000	461.164063	11.163450
-14907.599468	5332.990000	459.901367	131.728897
-14907.599468	5332.990000	458.639648	146.143295
-14907.599468	5332.990000	457.376953	78.041237
-14907.599468	5332.990000	456.114258	71.214844
-14907.599468	5332.990000	454.851563	64.371796
-14907.599468	5332.990000	453.587891	52.799358
-14907.599468	5332.990000	452.324219	151.888016
-14907.599468	5332.990000	451.060547	121.424744
-14907.599468	5332.990000	449.796875	74.475815
-14907.599468	5332.990000	448.532227	48.702602
-14907.599468	5332.990000	447.267578	128.792709
-14907.599468	5332.990000	446.002930	128.846298
-14907.599468	5332.990000	444.737305	65.375435
-14907.599468	5332.990000	443.471680	39.526485
-14907.599468	5332.990000	442.206055	-0.442281
-14907.599468	5332.990000	440.940430	109.994980
-14907.599468	5332.990000	439.673828	74.671021
-14907.599468	5332.990000	438.407227	55.778065
-14907.599468	5332.990000	437.140625	177.786713
-14907.599468	5332.990000	435.873047	78.978073
-14907.599468	5332.990000	434.605469	50.611984
-14907.599468	5332.990000	433.337891	-29.412781
-14907.599468	5332.990000	432.070313	-53.115948
-14907.599468	5332.990000	430.801758	59.234085
-14907.599468	5332.990000	429.533203	56.561714
-14907.599468	5332.990000	428.264648	140.625229
-14907.599468	5332.990000	426.996094	149.585983
-14907.599468	5332.990000	425.726563	-5.588093
-14907.599468	5332.990000	424.457031	66.598724
-14907.599468	5332.990000	423.186523	30.927505
-14907.599468	5332.990000	421.916992	245.892593
-14907.599468	5332.990000	420.646484	71.927979
-14907.599468	5332.990000	419.375977	-38.782135
-14907.599468	5332.990000	418.104492	61.207645
-14907.599468	5332.990000	416.833008	118.976540
-14907.599468	5332.990000	415.561523	99.449326
-14907.599468	5332.990000	414.290039	182.822708
-14907.599468	5332.990000	413.017578	78.981277
-14907.599468	5332.990000	411.746094	89.724380
-14907.599468	5332.990000	410.472656	198.603729
-14907.599468	5332.990000	409.200195	148.429092
-14907.599468	5332.990000	407.926758	72.510437
-14907.599468	5332.990000	406.653320	108.720245
-14907.599468	5332.990000	405.379883	23.381493
-14907.599468	5332.990000	404.105469	15.088451
-14907.599468	5332.990000	402.831055	-35.294167
-14907.599468	5332.990000	401.556641	14.664661
-14907.599468	5332.990000	400.282227	80.873962
-14907.599468	5332.990000	399.006836	86.313171
-14907.599468	5332.990000	397.731445	-31.967892
-14907.599468	5332.990000	396.456055	103.971680
-14907.599468	5332.990000	395.179688	18.238743
-14907.599468	5332.990000	393.903320	135.305771
-14907.599468	5332.990000	392.626953	117.049103
-14907.599468	5332.990000	391.350586	168.635315
-14907.599468	5332.990000	390.073242	173.516602
-14907.599468	5332.990000	388.795898	138.712128
-14907.599468	5332.990000	387.518555	92.193291
-14907.599468	5332.990000	386.240234	96.829941
-14907.599468	5332.990000	384.961914	59.472870
-14907.599468	5332.990000	383.683594	112.809898
-14907.599468	5332.990000	382.405273	93.896011
-14907.599468	5332.990000	381.125977	153.989029
-14907.599468	5332.990000	379.846680	37.189350
-14907.599468	5332.990000	378.567383	87.768143
-14907.599468	5332.990000	377.287109	12.674762
-14907.599468	5332.990000	376.006836	93.241875
-14907.599468	5332.990000	374.726563	45.853065
-14907.599468	5332.990000	373.446289	47.165291
-14907.599468	5332.990000	372.165039	-21.325956
-14907.599468	5332.990000	370.883789	61.050255
-14907.599468	5332.990000	369.602539	73.616524
-14907.599468	5332.990000	368.320313	-4.480219
-14907.599468	5332.990000	367.039063	-98.908585
-14907.599468	5332.990000	365.755859	-35.648438
-14907.599468	5332.990000	364.473633	-7.338477
-14907.599468	5332.990000	363.190430	23.141329
-14907.599468	5332.990000	361.907227	-67.106407
-14907.599468	5332.990000	360.624023	-87.903954
-14907.599468	5332.990000	359.340820	-20.757484
-14907.599468	5332.990000	358.056641	-9.405317
-14907.599468	5332.990000	356.772461	13.377917
-14907.599468	5332.990000	355.487305	-12.647902
-14907.599468	5332.990000	354.202148	60.761738
-14907.599468	5332.990000	352.916992	2.010066
-14907.599468	5332.990000	351.631836	77.379646
-14907.599468	5332.990000	350.346680	20.637367
-14907.599468	5332.990000	349.060547	-80.216080
-14907.599468	5332.990000	347.774414	-3.076503
-14907.599468	5332.990000	346.487305	39.156013
-14907.599468	5332.990000	345.200195	0.261075
-14907.599468	5332.990000	343.913086	58.292870
-14907.599468	5332.990000	342.625977	25.973246
-14907.599468	5332.990000	341.338867	-34.252865
-14907.599468	5332.990000	340.050781	-20.726980
-14907.599468	5332.990000	338.762695	48.026920
-14907.599468	5332.990000	337.473633	19.552134
-14907.599468	5332.990000	336.184570	-9.118275
-14907.599468	5332.990000	334.895508	-86.461578
-14907.599468	5332.990000	333.606445	-4.754909
-14907.599468	5332.990000	332.317383	-70.966888
-14907.599468	5332.990000	331.027344	-54.341480
-14907.599468	5332.990000	329.736328	49.674015
-14907.599468	5332.990000	328.446289	49.660332
-14907.599468	5332.990000	327.155273	10.210248
-14907.599468	5332.990000	325.864258	58.111710
-14907.599468	5332.990000	324.573242	-2.554759
-14907.599468	5332.990000	323.281250	-84.191147
-14907.599468	5332.990000	321.989258	-4.828042
-14907.599468	5332.990000	320.697266	-27.082407
-14907.599468	5332.990000	319.405273	19.469000
-14907.599468	5332.990000	318.112305	-44.765636
-14907.599468	5332.990000	316.819336	-40.217068
-14907.599468	5332.990000	315.526367	-65.865364
-14907.599468	5332.990000	314.232422	-25.099115
-14907.599468	5332.990000	312.938477	-5.344794
-14907.599468	5332.990000	311.644531	30.192186
-14907.599468	5332.990000	310.349609	-49.539307
-14907.599468	5332.990000	309.054688	70.389641
-14907.599468	5332.990000	307.759766	3.835121
-14907.599468	5332.990000	306.464844	26.572353
-14907.599468	5332.990000	305.168945	53.548409
-14907.599468	5332.990000	303.873047	160.538742
-14907.599468	5332.990000	302.577148	136.285065
-14907.599468	5332.990000	301.281250	139.231964
-14907.599468	5332.990000	299.984375	125.744026
