#X		#Y		#Wave		#Intensity
9372.840426	5029.075000	1999.946289	-11.454277
9372.840426	5029.075000	1998.981445	-236.996155
9372.840426	5029.075000	1998.017578	107.074463
9372.840426	5029.075000	1997.052734	106.385628
9372.840426	5029.075000	1996.088867	-325.587433
9372.840426	5029.075000	1995.124023	22.753075
9372.840426	5029.075000	1994.159180	-127.017883
9372.840426	5029.075000	1993.193359	176.271835
9372.840426	5029.075000	1992.228516	-85.186844
9372.840426	5029.075000	1991.262695	-128.858368
9372.840426	5029.075000	1990.296875	-241.948837
9372.840426	5029.075000	1989.331055	-60.672771
9372.840426	5029.075000	1988.365234	90.721024
9372.840426	5029.075000	1987.398438	-47.464928
9372.840426	5029.075000	1986.432617	34.384155
9372.840426	5029.075000	1985.465820	227.356293
9372.840426	5029.075000	1984.499023	-86.640205
9372.840426	5029.075000	1983.532227	202.465683
9372.840426	5029.075000	1982.565430	-119.027634
9372.840426	5029.075000	1981.597656	80.834457
9372.840426	5029.075000	1980.629883	278.060913
9372.840426	5029.075000	1979.662109	10.794618
9372.840426	5029.075000	1978.694336	165.810165
9372.840426	5029.075000	1977.726563	76.264900
9372.840426	5029.075000	1976.758789	28.642214
9372.840426	5029.075000	1975.790039	-16.567209
9372.840426	5029.075000	1974.821289	-118.581978
9372.840426	5029.075000	1973.852539	85.297844
9372.840426	5029.075000	1972.883789	197.775040
9372.840426	5029.075000	1971.915039	194.242722
9372.840426	5029.075000	1970.945313	262.163513
9372.840426	5029.075000	1969.975586	135.251312
9372.840426	5029.075000	1969.005859	77.353088
9372.840426	5029.075000	1968.036133	-44.640316
9372.840426	5029.075000	1967.066406	230.056396
9372.840426	5029.075000	1966.096680	125.244041
9372.840426	5029.075000	1965.125977	-31.288345
9372.840426	5029.075000	1964.155273	132.331146
9372.840426	5029.075000	1963.184570	29.957800
9372.840426	5029.075000	1962.213867	181.141174
9372.840426	5029.075000	1961.242188	251.023407
9372.840426	5029.075000	1960.271484	47.722454
9372.840426	5029.075000	1959.299805	144.623352
9372.840426	5029.075000	1958.328125	91.425865
9372.840426	5029.075000	1957.356445	-79.814964
9372.840426	5029.075000	1956.384766	-2.660348
9372.840426	5029.075000	1955.412109	62.162189
9372.840426	5029.075000	1954.439453	-3.319663
9372.840426	5029.075000	1953.467773	-88.442513
9372.840426	5029.075000	1952.495117	148.331345
9372.840426	5029.075000	1951.521484	215.509674
9372.840426	5029.075000	1950.548828	250.734406
9372.840426	5029.075000	1949.575195	-35.746010
9372.840426	5029.075000	1948.601563	-98.694283
9372.840426	5029.075000	1947.627930	110.861969
9372.840426	5029.075000	1946.654297	-89.519981
9372.840426	5029.075000	1945.680664	75.802055
9372.840426	5029.075000	1944.706055	-1.815131
9372.840426	5029.075000	1943.732422	295.905640
9372.840426	5029.075000	1942.757813	306.588501
9372.840426	5029.075000	1941.783203	-133.890106
9372.840426	5029.075000	1940.807617	77.922218
9372.840426	5029.075000	1939.833008	147.508362
9372.840426	5029.075000	1938.857422	187.676895
9372.840426	5029.075000	1937.881836	218.048218
9372.840426	5029.075000	1936.906250	-77.386368
9372.840426	5029.075000	1935.930664	-54.285999
9372.840426	5029.075000	1934.955078	20.251661
9372.840426	5029.075000	1933.978516	4.193395
9372.840426	5029.075000	1933.001953	-82.824158
9372.840426	5029.075000	1932.025391	-86.572632
9372.840426	5029.075000	1931.048828	12.478062
9372.840426	5029.075000	1930.072266	348.830627
9372.840426	5029.075000	1929.094727	27.088446
9372.840426	5029.075000	1928.118164	123.695251
9372.840426	5029.075000	1927.140625	-200.275726
9372.840426	5029.075000	1926.163086	91.968895
9372.840426	5029.075000	1925.184570	225.256088
9372.840426	5029.075000	1924.207031	-108.242287
9372.840426	5029.075000	1923.228516	10.430842
9372.840426	5029.075000	1922.250000	-73.669685
9372.840426	5029.075000	1921.271484	-101.532761
9372.840426	5029.075000	1920.292969	-209.940262
9372.840426	5029.075000	1919.314453	-44.825474
9372.840426	5029.075000	1918.334961	59.231304
9372.840426	5029.075000	1917.355469	82.741592
9372.840426	5029.075000	1916.375977	-179.223114
9372.840426	5029.075000	1915.396484	71.277771
9372.840426	5029.075000	1914.416992	68.036377
9372.840426	5029.075000	1913.436523	69.706795
9372.840426	5029.075000	1912.457031	47.025097
9372.840426	5029.075000	1911.476563	-75.568840
9372.840426	5029.075000	1910.496094	-171.272934
9372.840426	5029.075000	1909.515625	-47.582317
9372.840426	5029.075000	1908.534180	-240.651489
9372.840426	5029.075000	1907.552734	-136.417831
9372.840426	5029.075000	1906.572266	-122.307121
9372.840426	5029.075000	1905.590820	-10.764032
9372.840426	5029.075000	1904.608398	-118.353081
9372.840426	5029.075000	1903.626953	-130.933762
9372.840426	5029.075000	1902.644531	-85.067810
9372.840426	5029.075000	1901.663086	138.444672
9372.840426	5029.075000	1900.680664	-76.011665
9372.840426	5029.075000	1899.698242	164.506195
9372.840426	5029.075000	1898.714844	1.257885
9372.840426	5029.075000	1897.732422	66.663666
9372.840426	5029.075000	1896.749023	-62.409241
9372.840426	5029.075000	1895.765625	83.253456
9372.840426	5029.075000	1894.782227	-26.274403
9372.840426	5029.075000	1893.798828	-55.551830
9372.840426	5029.075000	1892.814453	-172.242950
9372.840426	5029.075000	1891.831055	-41.126259
9372.840426	5029.075000	1890.846680	-116.437790
9372.840426	5029.075000	1889.862305	19.530598
9372.840426	5029.075000	1888.877930	189.458084
9372.840426	5029.075000	1887.892578	-150.312576
9372.840426	5029.075000	1886.908203	194.344070
9372.840426	5029.075000	1885.922852	65.817162
9372.840426	5029.075000	1884.937500	-176.639481
9372.840426	5029.075000	1883.952148	114.549744
9372.840426	5029.075000	1882.965820	-52.612228
9372.840426	5029.075000	1881.980469	-62.113537
9372.840426	5029.075000	1880.994141	175.637268
9372.840426	5029.075000	1880.007813	-39.841515
9372.840426	5029.075000	1879.021484	-143.766373
9372.840426	5029.075000	1878.035156	-5.389921
9372.840426	5029.075000	1877.047852	-155.258942
9372.840426	5029.075000	1876.061523	-254.200806
9372.840426	5029.075000	1875.074219	85.124191
9372.840426	5029.075000	1874.086914	172.597397
9372.840426	5029.075000	1873.098633	8.360540
9372.840426	5029.075000	1872.111328	-204.194214
9372.840426	5029.075000	1871.123047	59.938953
9372.840426	5029.075000	1870.135742	-48.507034
9372.840426	5029.075000	1869.147461	-207.682587
9372.840426	5029.075000	1868.158203	-117.740746
9372.840426	5029.075000	1867.169922	385.559113
9372.840426	5029.075000	1866.180664	30.655506
9372.840426	5029.075000	1865.192383	-70.370171
9372.840426	5029.075000	1864.203125	-91.615494
9372.840426	5029.075000	1863.213867	-64.530403
9372.840426	5029.075000	1862.223633	-172.695801
9372.840426	5029.075000	1861.234375	-174.566544
9372.840426	5029.075000	1860.244141	-108.828018
9372.840426	5029.075000	1859.253906	53.443771
9372.840426	5029.075000	1858.263672	-66.702179
9372.840426	5029.075000	1857.273438	-222.991302
9372.840426	5029.075000	1856.282227	-77.661682
9372.840426	5029.075000	1855.291992	111.031898
9372.840426	5029.075000	1854.300781	77.795685
9372.840426	5029.075000	1853.309570	189.239197
9372.840426	5029.075000	1852.317383	160.826447
9372.840426	5029.075000	1851.326172	146.882751
9372.840426	5029.075000	1850.333984	185.959076
9372.840426	5029.075000	1849.342773	46.731289
9372.840426	5029.075000	1848.350586	-116.533821
9372.840426	5029.075000	1847.357422	132.090637
9372.840426	5029.075000	1846.365234	115.746376
9372.840426	5029.075000	1845.372070	226.998993
9372.840426	5029.075000	1844.379883	148.048782
9372.840426	5029.075000	1843.386719	-137.841370
9372.840426	5029.075000	1842.393555	100.898933
9372.840426	5029.075000	1841.399414	-33.334641
9372.840426	5029.075000	1840.406250	118.691475
9372.840426	5029.075000	1839.412109	-188.656418
9372.840426	5029.075000	1838.417969	-58.317616
9372.840426	5029.075000	1837.423828	4.652386
9372.840426	5029.075000	1836.429688	149.301590
9372.840426	5029.075000	1835.434570	231.406418
9372.840426	5029.075000	1834.440430	169.316803
9372.840426	5029.075000	1833.445313	56.793465
9372.840426	5029.075000	1832.450195	102.799545
9372.840426	5029.075000	1831.454102	-213.796783
9372.840426	5029.075000	1830.458984	-131.780197
9372.840426	5029.075000	1829.462891	130.203629
9372.840426	5029.075000	1828.466797	200.087631
9372.840426	5029.075000	1827.470703	133.165009
9372.840426	5029.075000	1826.474609	116.622421
9372.840426	5029.075000	1825.478516	167.219864
9372.840426	5029.075000	1824.481445	112.265839
9372.840426	5029.075000	1823.484375	124.439484
9372.840426	5029.075000	1822.487305	246.849426
9372.840426	5029.075000	1821.490234	-9.475798
9372.840426	5029.075000	1820.493164	-69.244957
9372.840426	5029.075000	1819.495117	84.198990
9372.840426	5029.075000	1818.498047	175.281876
9372.840426	5029.075000	1817.500000	-16.284006
9372.840426	5029.075000	1816.500977	-200.621536
9372.840426	5029.075000	1815.502930	139.341766
9372.840426	5029.075000	1814.504883	-47.408947
9372.840426	5029.075000	1813.505859	33.893608
9372.840426	5029.075000	1812.506836	155.807831
9372.840426	5029.075000	1811.507813	50.395523
9372.840426	5029.075000	1810.508789	-47.836185
9372.840426	5029.075000	1809.508789	-213.016602
9372.840426	5029.075000	1808.508789	-33.903591
9372.840426	5029.075000	1807.508789	102.081306
9372.840426	5029.075000	1806.508789	300.113190
9372.840426	5029.075000	1805.508789	294.938507
9372.840426	5029.075000	1804.508789	3.057585
9372.840426	5029.075000	1803.507813	93.403450
9372.840426	5029.075000	1802.506836	193.229248
9372.840426	5029.075000	1801.505859	99.586121
9372.840426	5029.075000	1800.504883	199.293777
9372.840426	5029.075000	1799.502930	236.870102
9372.840426	5029.075000	1798.501953	26.225750
9372.840426	5029.075000	1797.500000	214.040619
9372.840426	5029.075000	1796.498047	63.029049
9372.840426	5029.075000	1795.496094	-52.196220
9372.840426	5029.075000	1794.493164	35.253613
9372.840426	5029.075000	1793.491211	-1.339231
9372.840426	5029.075000	1792.488281	143.183273
9372.840426	5029.075000	1791.485352	27.853140
9372.840426	5029.075000	1790.482422	141.249908
9372.840426	5029.075000	1789.478516	-169.464325
9372.840426	5029.075000	1788.475586	-44.256859
9372.840426	5029.075000	1787.471680	-78.688812
9372.840426	5029.075000	1786.467773	308.245728
9372.840426	5029.075000	1785.463867	102.280647
9372.840426	5029.075000	1784.459961	-8.460466
9372.840426	5029.075000	1783.455078	-128.726883
9372.840426	5029.075000	1782.450195	60.270729
9372.840426	5029.075000	1781.445313	54.107128
9372.840426	5029.075000	1780.440430	-28.204416
9372.840426	5029.075000	1779.435547	281.775146
9372.840426	5029.075000	1778.429688	59.094215
9372.840426	5029.075000	1777.424805	150.176270
9372.840426	5029.075000	1776.418945	79.583328
9372.840426	5029.075000	1775.413086	256.050415
9372.840426	5029.075000	1774.406250	-125.817596
9372.840426	5029.075000	1773.400391	19.641518
9372.840426	5029.075000	1772.393555	119.875130
9372.840426	5029.075000	1771.386719	-19.760376
9372.840426	5029.075000	1770.379883	13.873363
9372.840426	5029.075000	1769.373047	49.813168
9372.840426	5029.075000	1768.365234	2.638285
9372.840426	5029.075000	1767.358398	-80.155388
9372.840426	5029.075000	1766.350586	297.149475
9372.840426	5029.075000	1765.342773	-98.796394
9372.840426	5029.075000	1764.334961	-37.070415
9372.840426	5029.075000	1763.326172	131.242401
9372.840426	5029.075000	1762.318359	138.279160
9372.840426	5029.075000	1761.309570	-134.349731
9372.840426	5029.075000	1760.300781	40.822182
9372.840426	5029.075000	1759.291016	265.609131
9372.840426	5029.075000	1758.282227	142.133026
9372.840426	5029.075000	1757.272461	-64.225540
9372.840426	5029.075000	1756.262695	-111.956924
9372.840426	5029.075000	1755.252930	-12.986054
9372.840426	5029.075000	1754.243164	421.912537
9372.840426	5029.075000	1753.233398	189.398849
9372.840426	5029.075000	1752.222656	56.262436
9372.840426	5029.075000	1751.211914	-140.738678
9372.840426	5029.075000	1750.201172	68.982338
9372.840426	5029.075000	1749.190430	-97.330429
9372.840426	5029.075000	1748.179688	-169.093063
9372.840426	5029.075000	1747.167969	-21.111019
9372.840426	5029.075000	1746.156250	93.676834
9372.840426	5029.075000	1745.144531	295.765564
9372.840426	5029.075000	1744.132813	67.860275
9372.840426	5029.075000	1743.121094	35.978512
9372.840426	5029.075000	1742.108398	60.710121
9372.840426	5029.075000	1741.095703	-101.108063
9372.840426	5029.075000	1740.083008	-41.078545
9372.840426	5029.075000	1739.070313	96.735237
9372.840426	5029.075000	1738.057617	-46.303383
9372.840426	5029.075000	1737.043945	15.857123
9372.840426	5029.075000	1736.030273	21.336153
9372.840426	5029.075000	1735.016602	-171.301758
9372.840426	5029.075000	1734.002930	105.187630
9372.840426	5029.075000	1732.989258	2.050517
9372.840426	5029.075000	1731.974609	-30.416679
9372.840426	5029.075000	1730.959961	104.345222
9372.840426	5029.075000	1729.945313	-29.536682
9372.840426	5029.075000	1728.930664	-215.239014
9372.840426	5029.075000	1727.916016	-170.172729
9372.840426	5029.075000	1726.900391	-16.893202
9372.840426	5029.075000	1725.885742	272.789856
9372.840426	5029.075000	1724.870117	-70.738380
9372.840426	5029.075000	1723.853516	-162.442719
9372.840426	5029.075000	1722.837891	-14.221396
9372.840426	5029.075000	1721.822266	-296.522400
9372.840426	5029.075000	1720.805664	-190.779266
9372.840426	5029.075000	1719.789063	-197.984863
9372.840426	5029.075000	1718.772461	1.608156
9372.840426	5029.075000	1717.754883	-130.308914
9372.840426	5029.075000	1716.738281	-165.890411
9372.840426	5029.075000	1715.720703	-152.184677
9372.840426	5029.075000	1714.703125	0.038440
9372.840426	5029.075000	1713.685547	-211.848709
9372.840426	5029.075000	1712.667969	-12.826268
9372.840426	5029.075000	1711.649414	85.118111
9372.840426	5029.075000	1710.630859	-9.485388
9372.840426	5029.075000	1709.612305	67.190720
9372.840426	5029.075000	1708.593750	-39.212601
9372.840426	5029.075000	1707.575195	-176.124664
9372.840426	5029.075000	1706.555664	-64.451302
9372.840426	5029.075000	1705.536133	-6.803629
9372.840426	5029.075000	1704.516602	-28.938097
9372.840426	5029.075000	1703.497070	-76.900215
9372.840426	5029.075000	1702.477539	11.020379
9372.840426	5029.075000	1701.457031	2.789752
9372.840426	5029.075000	1700.437500	-73.418541
9372.840426	5029.075000	1699.416992	-79.392548
9372.840426	5029.075000	1698.395508	151.080933
9372.840426	5029.075000	1697.375000	156.669891
9372.840426	5029.075000	1696.354492	274.559113
9372.840426	5029.075000	1695.333008	-54.641068
9372.840426	5029.075000	1694.311523	-74.910271
9372.840426	5029.075000	1693.290039	12.390644
9372.840426	5029.075000	1692.267578	-265.267700
9372.840426	5029.075000	1691.246094	-9.692319
9372.840426	5029.075000	1690.223633	147.535065
9372.840426	5029.075000	1689.201172	-38.967289
9372.840426	5029.075000	1688.178711	36.310902
9372.840426	5029.075000	1687.155273	-12.333737
9372.840426	5029.075000	1686.132813	-65.673576
9372.840426	5029.075000	1685.109375	77.160454
9372.840426	5029.075000	1684.085938	-144.414322
9372.840426	5029.075000	1683.062500	133.713013
9372.840426	5029.075000	1682.039063	124.555710
9372.840426	5029.075000	1681.014648	178.370163
9372.840426	5029.075000	1679.990234	220.452805
9372.840426	5029.075000	1678.965820	421.126495
9372.840426	5029.075000	1677.941406	472.392792
9372.840426	5029.075000	1676.916992	344.021820
9372.840426	5029.075000	1675.891602	131.711212
9372.840426	5029.075000	1674.866211	278.457825
9372.840426	5029.075000	1673.840820	350.523071
9372.840426	5029.075000	1672.815430	326.974884
9372.840426	5029.075000	1671.790039	133.314896
9372.840426	5029.075000	1670.763672	112.065811
9372.840426	5029.075000	1669.737305	169.974686
9372.840426	5029.075000	1668.710938	195.224808
9372.840426	5029.075000	1667.684570	215.772842
9372.840426	5029.075000	1666.658203	122.222015
9372.840426	5029.075000	1665.630859	319.569519
9372.840426	5029.075000	1664.603516	263.188538
9372.840426	5029.075000	1663.576172	190.511444
9372.840426	5029.075000	1662.548828	441.127747
9372.840426	5029.075000	1661.520508	270.705444
9372.840426	5029.075000	1660.493164	532.769958
9372.840426	5029.075000	1659.464844	322.816772
9372.840426	5029.075000	1658.436523	668.371582
9372.840426	5029.075000	1657.408203	500.238861
9372.840426	5029.075000	1656.378906	492.436096
9372.840426	5029.075000	1655.350586	484.615936
9372.840426	5029.075000	1654.321289	416.384949
9372.840426	5029.075000	1653.291992	501.394989
9372.840426	5029.075000	1652.261719	333.309052
9372.840426	5029.075000	1651.232422	515.731079
9372.840426	5029.075000	1650.202148	660.923828
9372.840426	5029.075000	1649.171875	699.313599
9372.840426	5029.075000	1648.141602	568.336792
9372.840426	5029.075000	1647.111328	564.941284
9372.840426	5029.075000	1646.080078	760.925842
9372.840426	5029.075000	1645.049805	889.591797
9372.840426	5029.075000	1644.018555	607.932251
9372.840426	5029.075000	1642.987305	595.173462
9372.840426	5029.075000	1641.955078	675.071045
9372.840426	5029.075000	1640.923828	868.432495
9372.840426	5029.075000	1639.891602	779.143250
9372.840426	5029.075000	1638.859375	833.437500
9372.840426	5029.075000	1637.827148	894.638306
9372.840426	5029.075000	1636.794922	995.150696
9372.840426	5029.075000	1635.761719	1021.550659
9372.840426	5029.075000	1634.729492	964.637878
9372.840426	5029.075000	1633.696289	986.379822
9372.840426	5029.075000	1632.662109	1075.167847
9372.840426	5029.075000	1631.628906	1002.047852
9372.840426	5029.075000	1630.594727	670.000916
9372.840426	5029.075000	1629.561523	1091.633545
9372.840426	5029.075000	1628.527344	979.231506
9372.840426	5029.075000	1627.493164	1153.380493
9372.840426	5029.075000	1626.458008	950.892883
9372.840426	5029.075000	1625.423828	1120.347778
9372.840426	5029.075000	1624.388672	1225.066040
9372.840426	5029.075000	1623.353516	1135.799561
9372.840426	5029.075000	1622.318359	979.619568
9372.840426	5029.075000	1621.282227	985.045105
9372.840426	5029.075000	1620.247070	1161.225952
9372.840426	5029.075000	1619.210938	968.207275
9372.840426	5029.075000	1618.174805	1255.030273
9372.840426	5029.075000	1617.137695	1158.919189
9372.840426	5029.075000	1616.101563	1099.744141
9372.840426	5029.075000	1615.064453	1204.257813
9372.840426	5029.075000	1614.027344	1122.048096
9372.840426	5029.075000	1612.990234	1155.088257
9372.840426	5029.075000	1611.953125	1372.432007
9372.840426	5029.075000	1610.916016	1532.111328
9372.840426	5029.075000	1609.877930	1198.887695
9372.840426	5029.075000	1608.839844	1372.358765
9372.840426	5029.075000	1607.801758	1426.062378
9372.840426	5029.075000	1606.763672	1146.015137
9372.840426	5029.075000	1605.724609	1238.872925
9372.840426	5029.075000	1604.685547	1646.905151
9372.840426	5029.075000	1603.646484	1530.323730
9372.840426	5029.075000	1602.607422	1563.289551
9372.840426	5029.075000	1601.568359	1837.690063
9372.840426	5029.075000	1600.528320	1695.882690
9372.840426	5029.075000	1599.489258	1708.151367
9372.840426	5029.075000	1598.449219	1633.096436
9372.840426	5029.075000	1597.408203	1762.566650
9372.840426	5029.075000	1596.368164	1554.330200
9372.840426	5029.075000	1595.327148	1493.173096
9372.840426	5029.075000	1594.287109	1425.177979
9372.840426	5029.075000	1593.246094	1511.039429
9372.840426	5029.075000	1592.204102	1424.728882
9372.840426	5029.075000	1591.163086	1618.459717
9372.840426	5029.075000	1590.121094	1121.496704
9372.840426	5029.075000	1589.079102	1099.611206
9372.840426	5029.075000	1588.037109	1213.077148
9372.840426	5029.075000	1586.995117	1317.350708
9372.840426	5029.075000	1585.953125	1203.805420
9372.840426	5029.075000	1584.910156	1115.537476
9372.840426	5029.075000	1583.867188	857.741394
9372.840426	5029.075000	1582.824219	1007.927917
9372.840426	5029.075000	1581.781250	935.869263
9372.840426	5029.075000	1580.737305	1193.680908
9372.840426	5029.075000	1579.693359	1107.926758
9372.840426	5029.075000	1578.649414	969.578247
9372.840426	5029.075000	1577.605469	1261.661499
9372.840426	5029.075000	1576.561523	933.442932
9372.840426	5029.075000	1575.516602	770.130066
9372.840426	5029.075000	1574.472656	563.454773
9372.840426	5029.075000	1573.427734	530.721863
9372.840426	5029.075000	1572.381836	879.932312
9372.840426	5029.075000	1571.336914	872.370422
9372.840426	5029.075000	1570.291016	761.977966
9372.840426	5029.075000	1569.246094	781.943542
9372.840426	5029.075000	1568.200195	753.947327
9372.840426	5029.075000	1567.153320	725.997986
9372.840426	5029.075000	1566.107422	716.375671
9372.840426	5029.075000	1565.060547	768.454163
9372.840426	5029.075000	1564.013672	736.072021
9372.840426	5029.075000	1562.966797	838.431213
9372.840426	5029.075000	1561.919922	767.335144
9372.840426	5029.075000	1560.872070	1022.614868
9372.840426	5029.075000	1559.825195	805.585083
9372.840426	5029.075000	1558.777344	830.467834
9372.840426	5029.075000	1557.729492	866.788818
9372.840426	5029.075000	1556.680664	957.857910
9372.840426	5029.075000	1555.632813	978.276428
9372.840426	5029.075000	1554.583984	761.690552
9372.840426	5029.075000	1553.535156	871.102478
9372.840426	5029.075000	1552.486328	782.307800
9372.840426	5029.075000	1551.436523	953.270813
9372.840426	5029.075000	1550.387695	967.078735
9372.840426	5029.075000	1549.337891	1206.350830
9372.840426	5029.075000	1548.288086	1297.604614
9372.840426	5029.075000	1547.238281	1133.958008
9372.840426	5029.075000	1546.187500	1348.176270
9372.840426	5029.075000	1545.136719	1355.325562
9372.840426	5029.075000	1544.086914	1153.255005
9372.840426	5029.075000	1543.035156	1210.579956
9372.840426	5029.075000	1541.984375	1236.108154
9372.840426	5029.075000	1540.933594	1207.122803
9372.840426	5029.075000	1539.881836	1410.043579
9372.840426	5029.075000	1538.830078	1226.618042
9372.840426	5029.075000	1537.778320	1365.954224
9372.840426	5029.075000	1536.725586	1482.575684
9372.840426	5029.075000	1535.673828	1328.948853
9372.840426	5029.075000	1534.621094	1293.516724
9372.840426	5029.075000	1533.568359	1289.944458
9372.840426	5029.075000	1532.515625	1352.258179
9372.840426	5029.075000	1531.461914	1273.907349
9372.840426	5029.075000	1530.409180	1297.756226
9372.840426	5029.075000	1529.355469	1142.447754
9372.840426	5029.075000	1528.301758	1055.304810
9372.840426	5029.075000	1527.247070	931.978516
9372.840426	5029.075000	1526.193359	781.562988
9372.840426	5029.075000	1525.138672	495.271942
9372.840426	5029.075000	1524.083984	564.957336
9372.840426	5029.075000	1523.029297	396.777954
9372.840426	5029.075000	1521.974609	550.408081
9372.840426	5029.075000	1520.918945	402.813599
9372.840426	5029.075000	1519.863281	223.646988
9372.840426	5029.075000	1518.807617	128.389206
9372.840426	5029.075000	1517.751953	71.718513
9372.840426	5029.075000	1516.696289	64.930298
9372.840426	5029.075000	1515.639648	153.242630
9372.840426	5029.075000	1514.583008	-45.704060
9372.840426	5029.075000	1513.526367	121.901253
9372.840426	5029.075000	1512.469727	156.098083
9372.840426	5029.075000	1511.412109	-44.776096
9372.840426	5029.075000	1510.355469	-175.420197
9372.840426	5029.075000	1509.297852	141.529770
9372.840426	5029.075000	1508.240234	175.991135
9372.840426	5029.075000	1507.181641	-65.092926
9372.840426	5029.075000	1506.124023	-197.587921
9372.840426	5029.075000	1505.065430	-27.363680
9372.840426	5029.075000	1504.006836	-89.673126
9372.840426	5029.075000	1502.948242	-142.851807
9372.840426	5029.075000	1501.888672	-414.844849
9372.840426	5029.075000	1500.830078	78.258781
9372.840426	5029.075000	1499.770508	-168.697159
9372.840426	5029.075000	1498.710938	-201.204254
9372.840426	5029.075000	1497.650391	66.296509
9372.840426	5029.075000	1496.590820	-11.177003
9372.840426	5029.075000	1495.530273	26.418743
9372.840426	5029.075000	1494.469727	127.185577
9372.840426	5029.075000	1493.409180	18.442181
9372.840426	5029.075000	1492.348633	-33.856041
9372.840426	5029.075000	1491.287109	127.918716
9372.840426	5029.075000	1490.225586	98.301537
9372.840426	5029.075000	1489.164063	19.247797
9372.840426	5029.075000	1488.102539	28.097633
9372.840426	5029.075000	1487.041016	-5.732656
9372.840426	5029.075000	1485.978516	-145.220383
9372.840426	5029.075000	1484.916016	167.663269
9372.840426	5029.075000	1483.853516	-214.597092
9372.840426	5029.075000	1482.791016	-137.813690
9372.840426	5029.075000	1481.727539	-299.295593
9372.840426	5029.075000	1480.664063	-98.717468
9372.840426	5029.075000	1479.600586	-167.799789
9372.840426	5029.075000	1478.537109	-66.013031
9372.840426	5029.075000	1477.473633	-209.042526
9372.840426	5029.075000	1476.409180	-57.714535
9372.840426	5029.075000	1475.344727	-180.241287
9372.840426	5029.075000	1474.280273	-109.614784
9372.840426	5029.075000	1473.215820	-20.756708
9372.840426	5029.075000	1472.151367	29.633902
9372.840426	5029.075000	1471.085938	-146.173141
9372.840426	5029.075000	1470.020508	124.318459
9372.840426	5029.075000	1468.955078	251.222153
9372.840426	5029.075000	1467.888672	91.651718
9372.840426	5029.075000	1466.823242	212.118393
9372.840426	5029.075000	1465.756836	330.574249
9372.840426	5029.075000	1464.690430	325.274963
9372.840426	5029.075000	1463.624023	408.212799
9372.840426	5029.075000	1462.556641	557.863220
9372.840426	5029.075000	1461.490234	878.049133
9372.840426	5029.075000	1460.422852	980.920715
9372.840426	5029.075000	1459.355469	1023.272156
9372.840426	5029.075000	1458.287109	931.907349
9372.840426	5029.075000	1457.219727	1079.798950
9372.840426	5029.075000	1456.151367	1124.603516
9372.840426	5029.075000	1455.083008	1010.720398
9372.840426	5029.075000	1454.014648	1111.397705
9372.840426	5029.075000	1452.945313	953.334229
9372.840426	5029.075000	1451.876953	871.091553
9372.840426	5029.075000	1450.807617	1052.422852
9372.840426	5029.075000	1449.738281	848.879211
9372.840426	5029.075000	1448.668945	1181.622925
9372.840426	5029.075000	1447.598633	732.298340
9372.840426	5029.075000	1446.528320	758.616699
9372.840426	5029.075000	1445.458008	876.339661
9372.840426	5029.075000	1444.387695	846.162537
9372.840426	5029.075000	1443.317383	773.157471
9372.840426	5029.075000	1442.246094	834.344482
9372.840426	5029.075000	1441.174805	757.279846
9372.840426	5029.075000	1440.103516	453.287750
9372.840426	5029.075000	1439.032227	727.561462
9372.840426	5029.075000	1437.960938	579.194763
9372.840426	5029.075000	1436.888672	536.793762
9372.840426	5029.075000	1435.816406	493.396820
9372.840426	5029.075000	1434.744141	330.474548
9372.840426	5029.075000	1433.670898	534.508362
9372.840426	5029.075000	1432.598633	523.144592
9372.840426	5029.075000	1431.525391	424.586456
9372.840426	5029.075000	1430.452148	545.094543
9372.840426	5029.075000	1429.378906	480.770203
9372.840426	5029.075000	1428.304688	478.118774
9372.840426	5029.075000	1427.231445	440.271942
9372.840426	5029.075000	1426.157227	171.377136
9372.840426	5029.075000	1425.083008	323.006958
9372.840426	5029.075000	1424.007813	222.077133
9372.840426	5029.075000	1422.933594	113.070206
9372.840426	5029.075000	1421.858398	339.520996
9372.840426	5029.075000	1420.783203	182.574005
9372.840426	5029.075000	1419.708008	223.467285
9372.840426	5029.075000	1418.631836	284.392334
9372.840426	5029.075000	1417.555664	34.292152
9372.840426	5029.075000	1416.479492	247.133362
9372.840426	5029.075000	1415.403320	43.349304
9372.840426	5029.075000	1414.327148	83.187813
9372.840426	5029.075000	1413.250000	32.823154
9372.840426	5029.075000	1412.173828	-40.066525
9372.840426	5029.075000	1411.096680	-68.601105
9372.840426	5029.075000	1410.018555	42.221336
9372.840426	5029.075000	1408.941406	-25.943033
9372.840426	5029.075000	1407.863281	-131.897247
9372.840426	5029.075000	1406.785156	9.496177
9372.840426	5029.075000	1405.707031	45.225212
9372.840426	5029.075000	1404.628906	70.086449
9372.840426	5029.075000	1403.549805	-62.442448
9372.840426	5029.075000	1402.470703	31.334234
9372.840426	5029.075000	1401.391602	46.134930
9372.840426	5029.075000	1400.312500	56.392910
9372.840426	5029.075000	1399.233398	53.609806
9372.840426	5029.075000	1398.153320	16.027308
9372.840426	5029.075000	1397.073242	8.825080
9372.840426	5029.075000	1395.993164	-111.493317
9372.840426	5029.075000	1394.913086	-21.211449
9372.840426	5029.075000	1393.832031	61.369701
9372.840426	5029.075000	1392.750977	-210.408432
9372.840426	5029.075000	1391.669922	175.801437
9372.840426	5029.075000	1390.588867	180.086807
9372.840426	5029.075000	1389.506836	15.553229
9372.840426	5029.075000	1388.425781	64.912369
9372.840426	5029.075000	1387.343750	255.985123
9372.840426	5029.075000	1386.261719	71.012810
9372.840426	5029.075000	1385.178711	-34.740540
9372.840426	5029.075000	1384.096680	21.109945
9372.840426	5029.075000	1383.013672	170.209946
9372.840426	5029.075000	1381.930664	34.710629
9372.840426	5029.075000	1380.846680	-40.699898
9372.840426	5029.075000	1379.763672	-109.429352
9372.840426	5029.075000	1378.679688	54.296436
9372.840426	5029.075000	1377.595703	36.715229
9372.840426	5029.075000	1376.511719	158.001373
9372.840426	5029.075000	1375.427734	-12.618032
9372.840426	5029.075000	1374.342773	28.047438
9372.840426	5029.075000	1373.257813	-96.455177
9372.840426	5029.075000	1372.172852	348.996704
9372.840426	5029.075000	1371.087891	-69.679451
9372.840426	5029.075000	1370.001953	42.228558
9372.840426	5029.075000	1368.916992	-24.763639
9372.840426	5029.075000	1367.831055	-154.502609
9372.840426	5029.075000	1366.744141	62.447857
9372.840426	5029.075000	1365.658203	-67.026894
9372.840426	5029.075000	1364.571289	75.585350
9372.840426	5029.075000	1363.484375	68.528229
9372.840426	5029.075000	1362.397461	75.121521
9372.840426	5029.075000	1361.310547	34.794399
9372.840426	5029.075000	1360.222656	158.490051
9372.840426	5029.075000	1359.135742	67.963127
9372.840426	5029.075000	1358.047852	67.667007
9372.840426	5029.075000	1356.958984	23.467548
9372.840426	5029.075000	1355.871094	65.578964
9372.840426	5029.075000	1354.782227	324.578033
9372.840426	5029.075000	1353.693359	340.311340
9372.840426	5029.075000	1352.604492	264.219666
9372.840426	5029.075000	1351.515625	153.763412
9372.840426	5029.075000	1350.425781	183.175354
9372.840426	5029.075000	1349.335938	241.872055
9372.840426	5029.075000	1348.246094	483.520935
9372.840426	5029.075000	1347.156250	340.879181
9372.840426	5029.075000	1346.066406	336.891510
9372.840426	5029.075000	1344.975586	308.843750
9372.840426	5029.075000	1343.884766	270.327942
9372.840426	5029.075000	1342.793945	336.566101
9372.840426	5029.075000	1341.702148	397.391052
9372.840426	5029.075000	1340.611328	471.123718
9372.840426	5029.075000	1339.519531	498.258484
9372.840426	5029.075000	1338.427734	231.586288
9372.840426	5029.075000	1337.334961	437.344482
9372.840426	5029.075000	1336.243164	415.978485
9372.840426	5029.075000	1335.150391	682.397156
9372.840426	5029.075000	1334.057617	690.791687
9372.840426	5029.075000	1332.964844	556.766846
9372.840426	5029.075000	1331.871094	525.646179
9372.840426	5029.075000	1330.778320	687.341370
9372.840426	5029.075000	1329.684570	916.810608
9372.840426	5029.075000	1328.590820	1078.611938
9372.840426	5029.075000	1327.496094	994.899109
9372.840426	5029.075000	1326.402344	1087.427124
9372.840426	5029.075000	1325.307617	1058.877441
9372.840426	5029.075000	1324.212891	875.071228
9372.840426	5029.075000	1323.117188	709.820862
9372.840426	5029.075000	1322.022461	661.900513
9372.840426	5029.075000	1320.926758	566.001404
9372.840426	5029.075000	1319.831055	476.279968
9372.840426	5029.075000	1318.735352	461.103607
9372.840426	5029.075000	1317.638672	360.255402
9372.840426	5029.075000	1316.542969	190.292267
9372.840426	5029.075000	1315.446289	240.820068
9372.840426	5029.075000	1314.349609	215.038788
9372.840426	5029.075000	1313.251953	161.112473
9372.840426	5029.075000	1312.155273	234.034286
9372.840426	5029.075000	1311.057617	101.149612
9372.840426	5029.075000	1309.959961	199.184662
9372.840426	5029.075000	1308.862305	-8.195256
9372.840426	5029.075000	1307.763672	291.095001
9372.840426	5029.075000	1306.665039	143.850830
9372.840426	5029.075000	1305.566406	247.171143
9372.840426	5029.075000	1304.467773	161.765213
9372.840426	5029.075000	1303.369141	133.314957
9372.840426	5029.075000	1302.269531	151.242584
9372.840426	5029.075000	1301.169922	279.961456
9372.840426	5029.075000	1300.070313	46.300026
9372.840426	5029.075000	1298.970703	203.442108
9372.840426	5029.075000	1297.870117	172.812027
9372.840426	5029.075000	1296.769531	249.744873
9372.840426	5029.075000	1295.668945	287.716522
9372.840426	5029.075000	1294.568359	258.731140
9372.840426	5029.075000	1293.466797	282.681885
9372.840426	5029.075000	1292.366211	479.561584
9372.840426	5029.075000	1291.264648	493.150482
9372.840426	5029.075000	1290.162109	465.494843
9372.840426	5029.075000	1289.060547	667.292358
9372.840426	5029.075000	1287.958008	639.946533
9372.840426	5029.075000	1286.855469	469.524536
9372.840426	5029.075000	1285.752930	487.576477
9372.840426	5029.075000	1284.650391	532.876099
9372.840426	5029.075000	1283.546875	581.182007
9372.840426	5029.075000	1282.444336	397.597809
9372.840426	5029.075000	1281.339844	407.526001
9372.840426	5029.075000	1280.236328	391.896698
9372.840426	5029.075000	1279.132813	558.890442
9372.840426	5029.075000	1278.028320	254.715195
9372.840426	5029.075000	1276.923828	238.235840
9372.840426	5029.075000	1275.819336	346.964355
9372.840426	5029.075000	1274.713867	118.725967
9372.840426	5029.075000	1273.608398	191.662811
9372.840426	5029.075000	1272.503906	121.811539
9372.840426	5029.075000	1271.397461	258.219574
9372.840426	5029.075000	1270.291992	149.374207
9372.840426	5029.075000	1269.185547	117.754776
9372.840426	5029.075000	1268.080078	178.699829
9372.840426	5029.075000	1266.972656	67.757996
9372.840426	5029.075000	1265.866211	224.683914
9372.840426	5029.075000	1264.759766	159.664215
9372.840426	5029.075000	1263.652344	-72.243294
9372.840426	5029.075000	1262.544922	-35.698368
9372.840426	5029.075000	1261.436523	-146.562149
9372.840426	5029.075000	1260.329102	-121.950386
9372.840426	5029.075000	1259.220703	79.633141
9372.840426	5029.075000	1258.112305	-302.195007
9372.840426	5029.075000	1257.003906	-219.399384
9372.840426	5029.075000	1255.895508	-243.083221
9372.840426	5029.075000	1254.786133	-297.248230
9372.840426	5029.075000	1253.676758	-273.667480
9372.840426	5029.075000	1252.567383	-401.539948
9372.840426	5029.075000	1251.458008	-265.126068
9372.840426	5029.075000	1250.347656	-121.023178
9372.840426	5029.075000	1249.237305	-98.876526
9372.840426	5029.075000	1248.126953	28.789787
9372.840426	5029.075000	1247.016602	-157.160660
9372.840426	5029.075000	1245.905273	-85.497086
9372.840426	5029.075000	1244.793945	30.754440
9372.840426	5029.075000	1243.682617	190.493622
9372.840426	5029.075000	1242.571289	109.775467
9372.840426	5029.075000	1241.459961	310.264343
9372.840426	5029.075000	1240.347656	372.317993
9372.840426	5029.075000	1239.235352	243.899582
9372.840426	5029.075000	1238.123047	223.222366
9372.840426	5029.075000	1237.009766	285.559082
9372.840426	5029.075000	1235.897461	159.121017
9372.840426	5029.075000	1234.784180	157.494400
9372.840426	5029.075000	1233.670898	153.949112
9372.840426	5029.075000	1232.556641	291.009857
9372.840426	5029.075000	1231.443359	152.750244
9372.840426	5029.075000	1230.329102	169.249680
9372.840426	5029.075000	1229.214844	218.197952
9372.840426	5029.075000	1228.099609	229.393234
9372.840426	5029.075000	1226.985352	454.389618
9372.840426	5029.075000	1225.870117	461.607330
9372.840426	5029.075000	1224.754883	347.702942
9372.840426	5029.075000	1223.639648	468.087036
9372.840426	5029.075000	1222.523438	482.738342
9372.840426	5029.075000	1221.408203	583.320496
9372.840426	5029.075000	1220.291992	371.250641
9372.840426	5029.075000	1219.174805	107.561401
9372.840426	5029.075000	1218.058594	294.122406
9372.840426	5029.075000	1216.941406	5.271767
9372.840426	5029.075000	1215.824219	-6.387542
9372.840426	5029.075000	1214.707031	50.526703
9372.840426	5029.075000	1213.589844	-12.800552
9372.840426	5029.075000	1212.471680	93.551819
9372.840426	5029.075000	1211.353516	-17.779921
9372.840426	5029.075000	1210.235352	-10.737761
9372.840426	5029.075000	1209.117188	-17.274427
9372.840426	5029.075000	1207.998047	-121.769630
9372.840426	5029.075000	1206.878906	-78.353630
9372.840426	5029.075000	1205.759766	-144.603180
9372.840426	5029.075000	1204.640625	-96.410423
9372.840426	5029.075000	1203.520508	-159.089706
9372.840426	5029.075000	1202.401367	-58.095116
9372.840426	5029.075000	1201.281250	-45.443436
9372.840426	5029.075000	1200.160156	-195.175308
9372.840426	5029.075000	1199.040039	-127.831612
9372.840426	5029.075000	1197.918945	-93.320831
9372.840426	5029.075000	1196.797852	-197.823822
9372.840426	5029.075000	1195.676758	-148.821594
9372.840426	5029.075000	1194.555664	-127.316605
9372.840426	5029.075000	1193.433594	8.420596
9372.840426	5029.075000	1192.311523	-181.799515
9372.840426	5029.075000	1191.189453	-154.371033
9372.840426	5029.075000	1190.066406	-211.490295
9372.840426	5029.075000	1188.944336	-240.869644
9372.840426	5029.075000	1187.821289	-278.628845
9372.840426	5029.075000	1186.698242	-334.593079
9372.840426	5029.075000	1185.574219	-396.270294
9372.840426	5029.075000	1184.451172	-211.383347
9372.840426	5029.075000	1183.327148	-386.058044
9372.840426	5029.075000	1182.203125	-299.048157
9372.840426	5029.075000	1181.078125	-448.580475
9372.840426	5029.075000	1179.954102	-121.259460
9372.840426	5029.075000	1178.829102	-266.490448
9372.840426	5029.075000	1177.704102	-287.519196
9372.840426	5029.075000	1176.579102	-298.318848
9372.840426	5029.075000	1175.453125	-82.247162
9372.840426	5029.075000	1174.327148	-145.905334
9372.840426	5029.075000	1173.201172	-118.246933
9372.840426	5029.075000	1172.075195	-107.555588
9372.840426	5029.075000	1170.949219	151.842117
9372.840426	5029.075000	1169.822266	-2.856086
9372.840426	5029.075000	1168.695313	92.733192
9372.840426	5029.075000	1167.568359	110.080231
9372.840426	5029.075000	1166.440430	166.044815
9372.840426	5029.075000	1165.313477	186.546753
9372.840426	5029.075000	1164.185547	78.560890
9372.840426	5029.075000	1163.057617	371.816467
9372.840426	5029.075000	1161.928711	377.169281
9372.840426	5029.075000	1160.800781	596.463196
9372.840426	5029.075000	1159.671875	450.192383
9372.840426	5029.075000	1158.541992	678.753845
9372.840426	5029.075000	1157.413086	501.834381
9372.840426	5029.075000	1156.283203	535.599915
9372.840426	5029.075000	1155.154297	590.457214
9372.840426	5029.075000	1154.023438	728.430786
9372.840426	5029.075000	1152.893555	785.614502
9372.840426	5029.075000	1151.763672	792.748840
9372.840426	5029.075000	1150.632813	800.272156
9372.840426	5029.075000	1149.501953	763.520752
9372.840426	5029.075000	1148.370117	702.104797
9372.840426	5029.075000	1147.239258	627.191467
9372.840426	5029.075000	1146.107422	673.964478
9372.840426	5029.075000	1144.975586	655.440857
9372.840426	5029.075000	1143.843750	446.110565
9372.840426	5029.075000	1142.710938	343.487976
9372.840426	5029.075000	1141.578125	232.254318
9372.840426	5029.075000	1140.445313	128.886841
9372.840426	5029.075000	1139.312500	363.394043
9372.840426	5029.075000	1138.178711	198.217957
9372.840426	5029.075000	1137.045898	202.209030
9372.840426	5029.075000	1135.912109	75.342369
9372.840426	5029.075000	1134.777344	301.535583
9372.840426	5029.075000	1133.643555	305.316071
9372.840426	5029.075000	1132.508789	351.873657
9372.840426	5029.075000	1131.374023	319.954315
9372.840426	5029.075000	1130.239258	331.146729
9372.840426	5029.075000	1129.104492	270.903778
9372.840426	5029.075000	1127.968750	59.485500
9372.840426	5029.075000	1126.833008	170.084457
9372.840426	5029.075000	1125.697266	168.397690
9372.840426	5029.075000	1124.560547	215.358017
9372.840426	5029.075000	1123.424805	220.083527
9372.840426	5029.075000	1122.288086	174.391159
9372.840426	5029.075000	1121.151367	135.761810
9372.840426	5029.075000	1120.013672	159.330261
9372.840426	5029.075000	1118.876953	79.572388
9372.840426	5029.075000	1117.739258	-47.979332
9372.840426	5029.075000	1116.601563	46.580948
9372.840426	5029.075000	1115.462891	262.107605
9372.840426	5029.075000	1114.324219	107.354263
9372.840426	5029.075000	1113.186523	332.630341
9372.840426	5029.075000	1112.046875	343.537170
9372.840426	5029.075000	1110.908203	103.792465
9372.840426	5029.075000	1109.769531	226.900940
9372.840426	5029.075000	1108.629883	383.560516
9372.840426	5029.075000	1107.490234	259.387390
9372.840426	5029.075000	1106.349609	363.461212
9372.840426	5029.075000	1105.209961	454.555817
9372.840426	5029.075000	1104.069336	425.717407
9372.840426	5029.075000	1102.928711	572.108215
9372.840426	5029.075000	1101.787109	699.656372
9372.840426	5029.075000	1100.646484	713.582520
9372.840426	5029.075000	1099.504883	585.982117
9372.840426	5029.075000	1098.363281	645.715942
9372.840426	5029.075000	1097.221680	586.445068
9372.840426	5029.075000	1096.079102	556.110168
9372.840426	5029.075000	1094.936523	484.277130
9372.840426	5029.075000	1093.793945	555.728149
9372.840426	5029.075000	1092.651367	425.638977
9372.840426	5029.075000	1091.507813	335.784027
9372.840426	5029.075000	1090.364258	189.689423
9372.840426	5029.075000	1089.220703	327.562164
9372.840426	5029.075000	1088.077148	478.297729
9372.840426	5029.075000	1086.933594	356.731049
9372.840426	5029.075000	1085.789063	354.757446
9372.840426	5029.075000	1084.644531	307.651367
9372.840426	5029.075000	1083.499023	412.295410
9372.840426	5029.075000	1082.354492	273.301208
9372.840426	5029.075000	1081.208984	358.856781
9372.840426	5029.075000	1080.063477	288.607880
9372.840426	5029.075000	1078.917969	388.061310
9372.840426	5029.075000	1077.771484	196.549622
9372.840426	5029.075000	1076.625977	336.793427
9372.840426	5029.075000	1075.479492	181.421646
9372.840426	5029.075000	1074.332031	317.608032
9372.840426	5029.075000	1073.185547	283.558777
9372.840426	5029.075000	1072.038086	72.208260
9372.840426	5029.075000	1070.890625	184.944778
9372.840426	5029.075000	1069.743164	424.902161
9372.840426	5029.075000	1068.594727	237.464401
9372.840426	5029.075000	1067.447266	22.074520
9372.840426	5029.075000	1066.298828	134.580521
9372.840426	5029.075000	1065.149414	345.183502
9372.840426	5029.075000	1064.000977	93.956619
9372.840426	5029.075000	1062.851563	287.602142
9372.840426	5029.075000	1061.702148	94.365181
9372.840426	5029.075000	1060.552734	489.728271
9372.840426	5029.075000	1059.402344	-107.244293
9372.840426	5029.075000	1058.252930	366.921570
9372.840426	5029.075000	1057.102539	85.547760
9372.840426	5029.075000	1055.951172	54.533657
9372.840426	5029.075000	1054.800781	123.935616
9372.840426	5029.075000	1053.649414	134.007919
9372.840426	5029.075000	1052.498047	-8.610348
9372.840426	5029.075000	1051.346680	-186.865356
9372.840426	5029.075000	1050.194336	35.754158
9372.840426	5029.075000	1049.042969	89.743507
9372.840426	5029.075000	1047.890625	111.088959
9372.840426	5029.075000	1046.738281	234.704269
9372.840426	5029.075000	1045.584961	189.109344
9372.840426	5029.075000	1044.431641	172.965088
9372.840426	5029.075000	1043.278320	147.382965
9372.840426	5029.075000	1042.125000	116.629723
9372.840426	5029.075000	1040.971680	284.456451
9372.840426	5029.075000	1039.817383	234.733429
9372.840426	5029.075000	1038.663086	356.696045
9372.840426	5029.075000	1037.508789	214.387436
9372.840426	5029.075000	1036.353516	363.671844
9372.840426	5029.075000	1035.198242	373.942078
9372.840426	5029.075000	1034.042969	546.299805
9372.840426	5029.075000	1032.887695	773.376099
9372.840426	5029.075000	1031.732422	621.784302
9372.840426	5029.075000	1030.576172	968.241150
9372.840426	5029.075000	1029.419922	803.258728
9372.840426	5029.075000	1028.263672	407.425110
9372.840426	5029.075000	1027.106445	347.483124
9372.840426	5029.075000	1025.949219	513.840576
9372.840426	5029.075000	1024.792969	445.677887
9372.840426	5029.075000	1023.634766	657.694763
9372.840426	5029.075000	1022.477539	832.825684
9372.840426	5029.075000	1021.319336	143.106613
9372.840426	5029.075000	1020.161133	263.714172
9372.840426	5029.075000	1019.002930	144.515762
9372.840426	5029.075000	1017.843750	309.228516
9372.840426	5029.075000	1016.684570	197.698090
9372.840426	5029.075000	1015.525391	245.728348
9372.840426	5029.075000	1014.366211	205.326370
9372.840426	5029.075000	1013.207031	-170.846558
9372.840426	5029.075000	1012.046875	-131.017746
9372.840426	5029.075000	1010.886719	-79.830643
9372.840426	5029.075000	1009.726563	190.673950
9372.840426	5029.075000	1008.565430	40.632835
9372.840426	5029.075000	1007.404297	-18.698856
9372.840426	5029.075000	1006.243164	-106.824821
9372.840426	5029.075000	1005.082031	114.477814
9372.840426	5029.075000	1003.920898	101.766876
9372.840426	5029.075000	1002.758789	158.172134
9372.840426	5029.075000	1001.596680	443.100311
9372.840426	5029.075000	1000.433594	280.880310
9372.840426	5029.075000	999.271484	384.429108
9372.840426	5029.075000	998.108398	346.383850
9372.840426	5029.075000	996.945313	484.954071
9372.840426	5029.075000	995.782227	398.261108
9372.840426	5029.075000	994.618164	415.376892
9372.840426	5029.075000	993.454102	151.142929
9372.840426	5029.075000	992.290039	551.008667
9372.840426	5029.075000	991.125977	576.973389
9372.840426	5029.075000	989.960938	427.302216
9372.840426	5029.075000	988.796875	534.945984
9372.840426	5029.075000	987.630859	689.712219
9372.840426	5029.075000	986.465820	578.626892
9372.840426	5029.075000	985.300781	667.176697
9372.840426	5029.075000	984.134766	609.160828
9372.840426	5029.075000	982.968750	614.933838
9372.840426	5029.075000	981.801758	479.303589
9372.840426	5029.075000	980.635742	183.325943
9372.840426	5029.075000	979.468750	95.170990
9372.840426	5029.075000	978.301758	171.759872
9372.840426	5029.075000	977.133789	98.769432
9372.840426	5029.075000	975.966797	41.223614
9372.840426	5029.075000	974.798828	15.188690
9372.840426	5029.075000	973.630859	29.131857
9372.840426	5029.075000	972.461914	-35.054382
9372.840426	5029.075000	971.293945	-7.548920
9372.840426	5029.075000	970.125000	145.953506
9372.840426	5029.075000	968.956055	338.650665
9372.840426	5029.075000	967.786133	76.440834
9372.840426	5029.075000	966.617188	161.164886
9372.840426	5029.075000	965.447266	71.542854
9372.840426	5029.075000	964.276367	-121.820648
9372.840426	5029.075000	963.106445	-156.859894
9372.840426	5029.075000	961.935547	-142.337494
9372.840426	5029.075000	960.764648	-239.885513
9372.840426	5029.075000	959.593750	-64.009552
9372.840426	5029.075000	958.422852	90.102104
9372.840426	5029.075000	957.250977	142.602280
9372.840426	5029.075000	956.079102	54.292618
9372.840426	5029.075000	954.907227	-287.642059
9372.840426	5029.075000	953.734375	-332.526611
9372.840426	5029.075000	952.562500	19.915218
9372.840426	5029.075000	951.389648	-119.018227
9372.840426	5029.075000	950.215820	-51.961597
9372.840426	5029.075000	949.042969	201.167206
9372.840426	5029.075000	947.869141	-161.941116
9372.840426	5029.075000	946.695313	-86.913338
9372.840426	5029.075000	945.521484	79.770264
9372.840426	5029.075000	944.346680	202.466232
9372.840426	5029.075000	943.172852	22.401512
9372.840426	5029.075000	941.998047	-157.614365
9372.840426	5029.075000	940.822266	-126.411369
9372.840426	5029.075000	939.647461	-21.188171
9372.840426	5029.075000	938.471680	-84.141281
9372.840426	5029.075000	937.295898	-22.597458
9372.840426	5029.075000	936.119141	-149.167175
9372.840426	5029.075000	934.943359	9.159115
9372.840426	5029.075000	933.766602	50.359486
9372.840426	5029.075000	932.589844	-96.505035
9372.840426	5029.075000	931.413086	30.930960
9372.840426	5029.075000	930.235352	138.122284
9372.840426	5029.075000	929.057617	95.285332
9372.840426	5029.075000	927.879883	143.930023
9372.840426	5029.075000	926.702148	134.109253
9372.840426	5029.075000	925.523438	96.295319
9372.840426	5029.075000	924.344727	-27.887125
9372.840426	5029.075000	923.166016	-30.155676
9372.840426	5029.075000	921.987305	-75.628342
9372.840426	5029.075000	920.807617	74.348648
9372.840426	5029.075000	919.627930	77.062210
9372.840426	5029.075000	919.497070	-85.081955
9372.840426	5029.075000	918.331055	52.053547
9372.840426	5029.075000	917.165039	-130.535248
9372.840426	5029.075000	915.999023	1.418398
9372.840426	5029.075000	914.833008	-171.006271
9372.840426	5029.075000	913.666016	-206.486740
9372.840426	5029.075000	912.499023	-26.529881
9372.840426	5029.075000	911.332031	-59.553562
9372.840426	5029.075000	910.165039	-74.858444
9372.840426	5029.075000	908.997070	-199.114288
9372.840426	5029.075000	907.830078	-27.028118
9372.840426	5029.075000	906.661133	122.170723
9372.840426	5029.075000	905.493164	13.048708
9372.840426	5029.075000	904.325195	-15.063972
9372.840426	5029.075000	903.156250	-73.560860
9372.840426	5029.075000	901.987305	90.583565
9372.840426	5029.075000	900.818359	67.441666
9372.840426	5029.075000	899.648438	-97.346992
9372.840426	5029.075000	898.478516	-120.500954
9372.840426	5029.075000	897.308594	144.521851
9372.840426	5029.075000	896.138672	146.543747
9372.840426	5029.075000	894.968750	47.453506
9372.840426	5029.075000	893.797852	-286.588959
9372.840426	5029.075000	892.626953	266.093445
9372.840426	5029.075000	891.456055	68.457771
9372.840426	5029.075000	890.284180	125.893379
9372.840426	5029.075000	889.113281	319.594391
9372.840426	5029.075000	887.941406	104.312042
9372.840426	5029.075000	886.768555	93.484787
9372.840426	5029.075000	885.596680	170.931885
9372.840426	5029.075000	884.423828	361.825287
9372.840426	5029.075000	883.250977	-14.807132
9372.840426	5029.075000	882.078125	110.432068
9372.840426	5029.075000	880.905273	-44.222698
9372.840426	5029.075000	879.731445	70.830544
9372.840426	5029.075000	878.557617	316.836487
9372.840426	5029.075000	877.383789	154.588089
9372.840426	5029.075000	876.209961	93.127380
9372.840426	5029.075000	875.035156	99.654839
9372.840426	5029.075000	873.860352	289.944519
9372.840426	5029.075000	872.685547	32.060909
9372.840426	5029.075000	871.510742	-170.378860
9372.840426	5029.075000	870.334961	14.726979
9372.840426	5029.075000	869.159180	-44.292747
9372.840426	5029.075000	867.983398	-10.258369
9372.840426	5029.075000	866.807617	13.673833
9372.840426	5029.075000	865.630859	-20.258778
9372.840426	5029.075000	864.454102	-26.557358
9372.840426	5029.075000	863.277344	-95.712181
9372.840426	5029.075000	862.100586	-64.365875
9372.840426	5029.075000	860.922852	-161.176697
9372.840426	5029.075000	859.745117	168.984146
9372.840426	5029.075000	858.567383	-13.272059
9372.840426	5029.075000	857.389648	-34.810623
9372.840426	5029.075000	856.210938	86.699333
9372.840426	5029.075000	855.032227	-77.954117
9372.840426	5029.075000	853.853516	186.464294
9372.840426	5029.075000	852.674805	134.676178
9372.840426	5029.075000	851.495117	298.562073
9372.840426	5029.075000	850.315430	51.130836
9372.840426	5029.075000	849.135742	97.078674
9372.840426	5029.075000	847.956055	125.430878
9372.840426	5029.075000	846.775391	-66.777832
9372.840426	5029.075000	845.595703	-221.359451
9372.840426	5029.075000	844.415039	-290.744446
9372.840426	5029.075000	843.233398	-197.350983
9372.840426	5029.075000	842.052734	-73.982124
9372.840426	5029.075000	840.871094	-208.537262
9372.840426	5029.075000	839.689453	-12.701686
9372.840426	5029.075000	838.506836	132.976120
9372.840426	5029.075000	837.325195	-109.213943
9372.840426	5029.075000	836.142578	-43.683216
9372.840426	5029.075000	834.959961	-125.756546
9372.840426	5029.075000	833.777344	-292.836426
9372.840426	5029.075000	832.593750	-67.428535
9372.840426	5029.075000	831.410156	-44.581291
9372.840426	5029.075000	830.226563	-159.205017
9372.840426	5029.075000	829.042969	8.476478
9372.840426	5029.075000	827.858398	-183.607056
9372.840426	5029.075000	826.673828	-41.030323
9372.840426	5029.075000	825.489258	-43.351116
9372.840426	5029.075000	824.304688	-317.781525
9372.840426	5029.075000	823.120117	121.603012
9372.840426	5029.075000	821.934570	-212.701477
9372.840426	5029.075000	820.749023	-107.861366
9372.840426	5029.075000	819.562500	-284.928589
9372.840426	5029.075000	818.376953	-70.474762
9372.840426	5029.075000	817.190430	-190.209991
9372.840426	5029.075000	816.003906	-187.799606
9372.840426	5029.075000	814.817383	-48.369778
9372.840426	5029.075000	813.629883	-140.741180
9372.840426	5029.075000	812.442383	-103.581947
9372.840426	5029.075000	811.254883	87.930923
9372.840426	5029.075000	810.067383	-124.041672
9372.840426	5029.075000	808.878906	-106.940651
9372.840426	5029.075000	807.690430	-22.684055
9372.840426	5029.075000	806.501953	-70.386383
9372.840426	5029.075000	805.313477	-257.428772
9372.840426	5029.075000	804.124023	-228.033478
9372.840426	5029.075000	802.934570	-54.454422
9372.840426	5029.075000	801.745117	-124.646912
9372.840426	5029.075000	800.555664	140.732513
9372.840426	5029.075000	799.365234	-11.567874
9372.840426	5029.075000	798.175781	-134.028839
9372.840426	5029.075000	796.985352	96.283844
9372.840426	5029.075000	795.793945	75.601250
9372.840426	5029.075000	794.603516	-9.679258
9372.840426	5029.075000	793.412109	-13.037717
9372.840426	5029.075000	792.220703	48.099419
9372.840426	5029.075000	791.028320	-49.660473
9372.840426	5029.075000	789.836914	152.799942
9372.840426	5029.075000	788.644531	223.656601
9372.840426	5029.075000	787.452148	71.225372
9372.840426	5029.075000	786.258789	176.695496
9372.840426	5029.075000	785.066406	244.890640
9372.840426	5029.075000	783.873047	65.149529
9372.840426	5029.075000	782.679688	21.733471
9372.840426	5029.075000	781.485352	45.183121
9372.840426	5029.075000	780.291992	-42.889492
9372.840426	5029.075000	779.097656	-230.036560
9372.840426	5029.075000	777.903320	-48.222240
9372.840426	5029.075000	776.708008	133.467987
9372.840426	5029.075000	775.512695	15.558346
9372.840426	5029.075000	774.318359	192.116135
9372.840426	5029.075000	773.122070	-81.715248
9372.840426	5029.075000	771.926758	248.045135
9372.840426	5029.075000	770.730469	322.905121
9372.840426	5029.075000	769.534180	573.225952
9372.840426	5029.075000	768.337891	227.659653
9372.840426	5029.075000	767.141602	411.069183
9372.840426	5029.075000	765.944336	500.455597
9372.840426	5029.075000	764.747070	320.482086
9372.840426	5029.075000	763.549805	639.445190
9372.840426	5029.075000	762.351563	437.187714
9372.840426	5029.075000	761.154297	625.041565
9372.840426	5029.075000	759.956055	721.434753
9372.840426	5029.075000	758.757813	575.888062
9372.840426	5029.075000	757.558594	590.721680
9372.840426	5029.075000	756.359375	701.700562
9372.840426	5029.075000	755.160156	824.909363
9372.840426	5029.075000	753.960938	802.532349
9372.840426	5029.075000	752.761719	590.286865
9372.840426	5029.075000	751.561523	597.432251
9372.840426	5029.075000	750.361328	611.912537
9372.840426	5029.075000	749.160156	806.177429
9372.840426	5029.075000	747.959961	965.823425
9372.840426	5029.075000	746.758789	1078.552002
9372.840426	5029.075000	745.557617	991.740967
9372.840426	5029.075000	744.356445	707.976807
9372.840426	5029.075000	743.154297	680.228516
9372.840426	5029.075000	741.952148	814.833923
9372.840426	5029.075000	740.750000	518.805420
9372.840426	5029.075000	739.547852	161.350662
9372.840426	5029.075000	738.344727	426.130798
9372.840426	5029.075000	737.142578	422.758911
9372.840426	5029.075000	735.939453	350.500061
9372.840426	5029.075000	734.735352	317.527618
9372.840426	5029.075000	733.532227	139.546661
9372.840426	5029.075000	732.328125	163.008545
9372.840426	5029.075000	731.124023	397.614777
9372.840426	5029.075000	729.918945	42.742096
9372.840426	5029.075000	728.714844	220.684845
9372.840426	5029.075000	727.509766	133.406693
9372.840426	5029.075000	726.303711	217.873917
9372.840426	5029.075000	725.098633	86.343155
9372.840426	5029.075000	723.892578	312.926178
9372.840426	5029.075000	722.686523	78.297516
9372.840426	5029.075000	721.480469	297.300629
9372.840426	5029.075000	720.274414	-13.350000
9372.840426	5029.075000	719.067383	-86.206787
9372.840426	5029.075000	717.860352	29.578846
9372.840426	5029.075000	716.653320	8.057371
9372.840426	5029.075000	715.445313	182.420334
9372.840426	5029.075000	714.238281	-8.226107
9372.840426	5029.075000	713.030273	-206.208542
9372.840426	5029.075000	711.821289	-112.893669
9372.840426	5029.075000	710.613281	-56.391754
9372.840426	5029.075000	709.404297	-95.409615
9372.840426	5029.075000	708.195313	56.326588
9372.840426	5029.075000	706.986328	-24.413897
9372.840426	5029.075000	705.776367	78.195816
9372.840426	5029.075000	704.566406	-186.012634
9372.840426	5029.075000	703.356445	63.099133
9372.840426	5029.075000	702.146484	26.125589
9372.840426	5029.075000	700.935547	30.625843
9372.840426	5029.075000	699.724609	27.725698
9372.840426	5029.075000	698.513672	178.608505
9372.840426	5029.075000	697.302734	422.138245
9372.840426	5029.075000	696.090820	211.442230
9372.840426	5029.075000	694.878906	383.935516
9372.840426	5029.075000	693.666992	165.869873
9372.840426	5029.075000	692.455078	179.581940
9372.840426	5029.075000	691.242188	363.944916
9372.840426	5029.075000	690.029297	209.197357
9372.840426	5029.075000	688.816406	27.623268
9372.840426	5029.075000	687.602539	48.360271
9372.840426	5029.075000	686.389648	295.661713
9372.840426	5029.075000	685.175781	238.216125
9372.840426	5029.075000	683.960938	78.403038
9372.840426	5029.075000	682.747070	269.296448
9372.840426	5029.075000	681.532227	46.083626
9372.840426	5029.075000	680.317383	97.983131
9372.840426	5029.075000	679.102539	86.501648
9372.840426	5029.075000	677.886719	177.147507
9372.840426	5029.075000	676.670898	65.746910
9372.840426	5029.075000	675.455078	382.419830
9372.840426	5029.075000	674.239258	107.932770
9372.840426	5029.075000	673.022461	49.870953
9372.840426	5029.075000	671.805664	327.216156
9372.840426	5029.075000	670.588867	322.446747
9372.840426	5029.075000	669.372070	346.758942
9372.840426	5029.075000	668.154297	302.956543
9372.840426	5029.075000	666.936523	237.235413
9372.840426	5029.075000	665.718750	159.322037
9372.840426	5029.075000	664.500977	278.014191
9372.840426	5029.075000	663.282227	328.608673
9372.840426	5029.075000	662.063477	68.477341
9372.840426	5029.075000	660.844727	24.314537
9372.840426	5029.075000	659.625000	55.282082
9372.840426	5029.075000	658.405273	229.247223
9372.840426	5029.075000	657.185547	293.947266
9372.840426	5029.075000	655.965820	147.635056
9372.840426	5029.075000	654.745117	248.516235
9372.840426	5029.075000	653.525391	206.314270
9372.840426	5029.075000	652.303711	79.244438
9372.840426	5029.075000	651.083008	160.461609
9372.840426	5029.075000	649.861328	164.065155
9372.840426	5029.075000	648.640625	298.335785
9372.840426	5029.075000	647.417969	25.792683
9372.840426	5029.075000	646.196289	21.924540
9372.840426	5029.075000	644.973633	-57.035923
9372.840426	5029.075000	643.750977	192.953186
9372.840426	5029.075000	642.528320	116.250343
9372.840426	5029.075000	641.305664	-11.279145
9372.840426	5029.075000	640.082031	98.078476
9372.840426	5029.075000	638.858398	16.365381
9372.840426	5029.075000	637.634766	222.173462
9372.840426	5029.075000	636.410156	-19.154757
9372.840426	5029.075000	635.185547	188.823471
9372.840426	5029.075000	633.960938	46.460835
9372.840426	5029.075000	632.736328	225.205704
9372.840426	5029.075000	631.510742	172.046860
9372.840426	5029.075000	630.285156	-28.388062
9372.840426	5029.075000	629.059570	-146.777634
9372.840426	5029.075000	627.833984	-69.788651
9372.840426	5029.075000	626.607422	74.615311
9372.840426	5029.075000	625.380859	33.201782
9372.840426	5029.075000	624.154297	112.271751
9372.840426	5029.075000	622.927734	20.092995
9372.840426	5029.075000	621.700195	33.901962
9372.840426	5029.075000	620.472656	-2.970086
9372.840426	5029.075000	619.245117	-8.588339
9372.840426	5029.075000	618.016602	-21.514359
9372.840426	5029.075000	616.788086	66.615547
9372.840426	5029.075000	615.559570	-131.838989
9372.840426	5029.075000	614.331055	261.788330
9372.840426	5029.075000	613.101563	92.089050
9372.840426	5029.075000	611.872070	88.386116
9372.840426	5029.075000	610.642578	-66.924667
9372.840426	5029.075000	609.413086	-68.341057
9372.840426	5029.075000	608.182617	-79.457222
9372.840426	5029.075000	606.952148	233.861542
9372.840426	5029.075000	605.721680	56.711285
9372.840426	5029.075000	604.491211	136.652863
9372.840426	5029.075000	603.259766	166.031357
9372.840426	5029.075000	602.028320	156.895813
9372.840426	5029.075000	600.796875	421.424316
9372.840426	5029.075000	599.564453	428.885590
9372.840426	5029.075000	598.332031	347.464661
9372.840426	5029.075000	597.099609	232.408936
9372.840426	5029.075000	595.867188	14.166048
9372.840426	5029.075000	594.633789	-180.078430
9372.840426	5029.075000	593.400391	280.374390
9372.840426	5029.075000	592.166992	213.084442
9372.840426	5029.075000	590.933594	366.285522
9372.840426	5029.075000	589.699219	-12.703179
9372.840426	5029.075000	588.464844	123.555710
9372.840426	5029.075000	587.230469	22.525480
9372.840426	5029.075000	585.995117	259.161896
9372.840426	5029.075000	584.760742	88.562439
9372.840426	5029.075000	583.525391	-153.863785
9372.840426	5029.075000	582.289063	-116.221970
9372.840426	5029.075000	581.053711	-145.660416
9372.840426	5029.075000	579.817383	243.524612
9372.840426	5029.075000	578.581055	120.588295
9372.840426	5029.075000	577.343750	-23.896723
9372.840426	5029.075000	576.107422	37.245861
9372.840426	5029.075000	574.870117	162.829758
9372.840426	5029.075000	573.631836	125.765411
9372.840426	5029.075000	572.394531	107.776306
9372.840426	5029.075000	571.156250	68.218834
9372.840426	5029.075000	569.917969	102.653221
9372.840426	5029.075000	568.679688	132.233215
9372.840426	5029.075000	567.440430	75.779121
9372.840426	5029.075000	566.202148	38.389866
9372.840426	5029.075000	564.961914	91.614197
9372.840426	5029.075000	563.722656	-96.210030
9372.840426	5029.075000	562.482422	-64.573769
9372.840426	5029.075000	561.243164	-309.647247
9372.840426	5029.075000	560.001953	-189.893997
9372.840426	5029.075000	558.761719	-144.142639
9372.840426	5029.075000	557.520508	-91.332726
9372.840426	5029.075000	556.279297	-129.153580
9372.840426	5029.075000	555.038086	-197.990540
9372.840426	5029.075000	553.795898	-40.597088
9372.840426	5029.075000	552.554688	-254.802094
9372.840426	5029.075000	551.311523	54.774719
9372.840426	5029.075000	550.069336	-128.546005
9372.840426	5029.075000	548.826172	73.662743
9372.840426	5029.075000	547.583984	-359.524292
9372.840426	5029.075000	546.339844	-12.377786
9372.840426	5029.075000	545.096680	-122.049263
9372.840426	5029.075000	543.852539	-222.231262
9372.840426	5029.075000	542.608398	-315.298279
9372.840426	5029.075000	541.364258	-189.724640
9372.840426	5029.075000	540.119141	-61.898193
9372.840426	5029.075000	538.875000	-19.696838
9372.840426	5029.075000	537.628906	-143.856033
9372.840426	5029.075000	536.383789	-16.293196
9372.840426	5029.075000	535.137695	13.806308
9372.840426	5029.075000	533.892578	115.057007
9372.840426	5029.075000	532.645508	251.782471
9372.840426	5029.075000	531.399414	352.813721
9372.840426	5029.075000	530.152344	674.342896
9372.840426	5029.075000	528.905273	730.055359
9372.840426	5029.075000	527.658203	875.789978
9372.840426	5029.075000	526.410156	703.732544
9372.840426	5029.075000	525.163086	868.257690
9372.840426	5029.075000	523.914063	911.783752
9372.840426	5029.075000	522.666016	678.064270
9372.840426	5029.075000	521.416992	558.068054
9372.840426	5029.075000	520.167969	492.531158
9372.840426	5029.075000	518.918945	393.819794
9372.840426	5029.075000	517.669922	323.498169
9372.840426	5029.075000	516.419922	25.950771
9372.840426	5029.075000	515.169922	85.742851
9372.840426	5029.075000	513.919922	53.195438
9372.840426	5029.075000	512.668945	-187.528946
9372.840426	5029.075000	511.417969	-19.149181
9372.840426	5029.075000	510.166992	-370.980103
9372.840426	5029.075000	508.916016	-207.479156
9372.840426	5029.075000	507.664063	-183.536880
9372.840426	5029.075000	506.412109	-206.915131
9372.840426	5029.075000	505.160156	-107.521690
9372.840426	5029.075000	503.907227	-109.788368
9372.840426	5029.075000	502.655273	-263.204956
9372.840426	5029.075000	501.402344	-31.879728
9372.840426	5029.075000	500.148438	-152.360458
9372.840426	5029.075000	498.895508	-232.730560
9372.840426	5029.075000	497.641602	50.127792
9372.840426	5029.075000	496.387695	254.969299
9372.840426	5029.075000	495.132813	-181.704956
9372.840426	5029.075000	493.878906	-85.478241
9372.840426	5029.075000	492.624023	-55.367123
9372.840426	5029.075000	491.368164	-32.422684
9372.840426	5029.075000	490.113281	148.295349
9372.840426	5029.075000	488.857422	90.957413
9372.840426	5029.075000	487.601563	-176.012955
9372.840426	5029.075000	486.344727	362.229279
9372.840426	5029.075000	485.088867	179.898911
9372.840426	5029.075000	483.832031	35.207714
9372.840426	5029.075000	482.575195	323.416992
9372.840426	5029.075000	481.317383	587.882996
9372.840426	5029.075000	480.059570	520.543762
9372.840426	5029.075000	478.801758	394.365265
9372.840426	5029.075000	477.543945	573.754639
9372.840426	5029.075000	476.285156	440.374268
9372.840426	5029.075000	475.027344	285.822998
9372.840426	5029.075000	473.767578	340.301361
9372.840426	5029.075000	472.508789	354.743988
9372.840426	5029.075000	471.249023	413.681885
9372.840426	5029.075000	469.989258	298.757996
9372.840426	5029.075000	468.729492	218.987259
9372.840426	5029.075000	467.469727	113.328003
9372.840426	5029.075000	466.208984	136.632553
9372.840426	5029.075000	464.948242	190.307388
9372.840426	5029.075000	463.686523	-9.456651
9372.840426	5029.075000	462.425781	172.947662
9372.840426	5029.075000	461.164063	80.863640
9372.840426	5029.075000	459.901367	68.362892
9372.840426	5029.075000	458.639648	-26.260654
9372.840426	5029.075000	457.376953	-50.710476
9372.840426	5029.075000	456.114258	-21.419163
9372.840426	5029.075000	454.851563	89.676849
9372.840426	5029.075000	453.587891	95.211006
9372.840426	5029.075000	452.324219	243.372681
9372.840426	5029.075000	451.060547	35.611782
9372.840426	5029.075000	449.796875	234.880981
9372.840426	5029.075000	448.532227	459.615448
9372.840426	5029.075000	447.267578	-57.265087
9372.840426	5029.075000	446.002930	274.647705
9372.840426	5029.075000	444.737305	183.111359
9372.840426	5029.075000	443.471680	343.839508
9372.840426	5029.075000	442.206055	226.252701
9372.840426	5029.075000	440.940430	180.940247
9372.840426	5029.075000	439.673828	79.376305
9372.840426	5029.075000	438.407227	414.314392
9372.840426	5029.075000	437.140625	256.295532
9372.840426	5029.075000	435.873047	333.851410
9372.840426	5029.075000	434.605469	488.158417
9372.840426	5029.075000	433.337891	0.568458
9372.840426	5029.075000	432.070313	86.765381
9372.840426	5029.075000	430.801758	251.951401
9372.840426	5029.075000	429.533203	339.872070
9372.840426	5029.075000	428.264648	343.576843
9372.840426	5029.075000	426.996094	482.184357
9372.840426	5029.075000	425.726563	387.432281
9372.840426	5029.075000	424.457031	527.722473
9372.840426	5029.075000	423.186523	336.916718
9372.840426	5029.075000	421.916992	672.162354
9372.840426	5029.075000	420.646484	161.858490
9372.840426	5029.075000	419.375977	494.023041
9372.840426	5029.075000	418.104492	360.292450
9372.840426	5029.075000	416.833008	554.322327
9372.840426	5029.075000	415.561523	319.935364
9372.840426	5029.075000	414.290039	392.260620
9372.840426	5029.075000	413.017578	475.793884
9372.840426	5029.075000	411.746094	384.596588
9372.840426	5029.075000	410.472656	179.135284
9372.840426	5029.075000	409.200195	142.999664
9372.840426	5029.075000	407.926758	157.554779
9372.840426	5029.075000	406.653320	187.940750
9372.840426	5029.075000	405.379883	294.505554
9372.840426	5029.075000	404.105469	456.273132
9372.840426	5029.075000	402.831055	406.304596
9372.840426	5029.075000	401.556641	427.822083
9372.840426	5029.075000	400.282227	235.411636
9372.840426	5029.075000	399.006836	258.274353
9372.840426	5029.075000	397.731445	192.496918
9372.840426	5029.075000	396.456055	367.345123
9372.840426	5029.075000	395.179688	110.415405
9372.840426	5029.075000	393.903320	258.597321
9372.840426	5029.075000	392.626953	148.968246
9372.840426	5029.075000	391.350586	-14.473864
9372.840426	5029.075000	390.073242	321.772552
9372.840426	5029.075000	388.795898	22.830788
9372.840426	5029.075000	387.518555	114.611794
9372.840426	5029.075000	386.240234	-62.794483
9372.840426	5029.075000	384.961914	-85.755722
9372.840426	5029.075000	383.683594	-95.507538
9372.840426	5029.075000	382.405273	-68.948021
9372.840426	5029.075000	381.125977	102.534592
9372.840426	5029.075000	379.846680	127.557480
9372.840426	5029.075000	378.567383	320.545624
9372.840426	5029.075000	377.287109	242.268036
9372.840426	5029.075000	376.006836	246.404816
9372.840426	5029.075000	374.726563	293.614105
9372.840426	5029.075000	373.446289	199.094604
9372.840426	5029.075000	372.165039	438.513550
9372.840426	5029.075000	370.883789	335.309570
9372.840426	5029.075000	369.602539	621.281555
9372.840426	5029.075000	368.320313	368.550537
9372.840426	5029.075000	367.039063	442.599213
9372.840426	5029.075000	365.755859	446.377625
9372.840426	5029.075000	364.473633	525.294189
9372.840426	5029.075000	363.190430	492.462402
9372.840426	5029.075000	361.907227	285.734528
9372.840426	5029.075000	360.624023	43.464825
9372.840426	5029.075000	359.340820	413.036407
9372.840426	5029.075000	358.056641	327.519135
9372.840426	5029.075000	356.772461	330.703827
9372.840426	5029.075000	355.487305	97.825470
9372.840426	5029.075000	354.202148	199.915726
9372.840426	5029.075000	352.916992	146.536667
9372.840426	5029.075000	351.631836	358.820160
9372.840426	5029.075000	350.346680	217.764786
9372.840426	5029.075000	349.060547	452.576569
9372.840426	5029.075000	347.774414	122.591644
9372.840426	5029.075000	346.487305	280.967926
9372.840426	5029.075000	345.200195	417.173157
9372.840426	5029.075000	343.913086	60.126774
9372.840426	5029.075000	342.625977	87.708488
9372.840426	5029.075000	341.338867	118.352150
9372.840426	5029.075000	340.050781	-52.406208
9372.840426	5029.075000	338.762695	112.807724
9372.840426	5029.075000	337.473633	-33.604614
9372.840426	5029.075000	336.184570	-14.092164
9372.840426	5029.075000	334.895508	-345.029053
9372.840426	5029.075000	333.606445	-351.834991
9372.840426	5029.075000	332.317383	-339.774109
9372.840426	5029.075000	331.027344	-81.972389
9372.840426	5029.075000	329.736328	-376.369415
9372.840426	5029.075000	328.446289	-294.316254
9372.840426	5029.075000	327.155273	-239.513550
9372.840426	5029.075000	325.864258	-296.680969
9372.840426	5029.075000	324.573242	-28.331076
9372.840426	5029.075000	323.281250	130.133163
9372.840426	5029.075000	321.989258	-70.726479
9372.840426	5029.075000	320.697266	-184.397614
9372.840426	5029.075000	319.405273	-268.188934
9372.840426	5029.075000	318.112305	94.131477
9372.840426	5029.075000	316.819336	-355.728943
9372.840426	5029.075000	315.526367	-53.093067
9372.840426	5029.075000	314.232422	208.052307
9372.840426	5029.075000	312.938477	36.885868
9372.840426	5029.075000	311.644531	206.086075
9372.840426	5029.075000	310.349609	491.370819
9372.840426	5029.075000	309.054688	403.847290
9372.840426	5029.075000	307.759766	295.419800
9372.840426	5029.075000	306.464844	236.829651
9372.840426	5029.075000	305.168945	565.747864
9372.840426	5029.075000	303.873047	699.959595
9372.840426	5029.075000	302.577148	689.738403
9372.840426	5029.075000	301.281250	1073.515259
9372.840426	5029.075000	299.984375	1235.034546
