#X		#Y		#Wave		#Intensity
10102.280851	4245.050000	1999.946289	1.446592
10102.280851	4245.050000	1998.981445	29.758478
10102.280851	4245.050000	1998.017578	12.035847
10102.280851	4245.050000	1997.052734	-109.828972
10102.280851	4245.050000	1996.088867	-147.474838
10102.280851	4245.050000	1995.124023	50.163067
10102.280851	4245.050000	1994.159180	-4.961915
10102.280851	4245.050000	1993.193359	56.259300
10102.280851	4245.050000	1992.228516	55.503162
10102.280851	4245.050000	1991.262695	69.543808
10102.280851	4245.050000	1990.296875	-17.946093
10102.280851	4245.050000	1989.331055	-46.070137
10102.280851	4245.050000	1988.365234	163.267746
10102.280851	4245.050000	1987.398438	147.388519
10102.280851	4245.050000	1986.432617	2.867968
10102.280851	4245.050000	1985.465820	41.328526
10102.280851	4245.050000	1984.499023	15.455167
10102.280851	4245.050000	1983.532227	-7.979941
10102.280851	4245.050000	1982.565430	20.448654
10102.280851	4245.050000	1981.597656	14.236735
10102.280851	4245.050000	1980.629883	193.262680
10102.280851	4245.050000	1979.662109	132.610062
10102.280851	4245.050000	1978.694336	7.741300
10102.280851	4245.050000	1977.726563	144.591934
10102.280851	4245.050000	1976.758789	108.567215
10102.280851	4245.050000	1975.790039	-8.920005
10102.280851	4245.050000	1974.821289	140.103424
10102.280851	4245.050000	1973.852539	-21.810884
10102.280851	4245.050000	1972.883789	-67.759270
10102.280851	4245.050000	1971.915039	-17.535378
10102.280851	4245.050000	1970.945313	94.289001
10102.280851	4245.050000	1969.975586	-47.874043
10102.280851	4245.050000	1969.005859	54.009884
10102.280851	4245.050000	1968.036133	-19.133253
10102.280851	4245.050000	1967.066406	-6.032796
10102.280851	4245.050000	1966.096680	68.630234
10102.280851	4245.050000	1965.125977	162.951721
10102.280851	4245.050000	1964.155273	18.356911
10102.280851	4245.050000	1963.184570	73.228172
10102.280851	4245.050000	1962.213867	253.606049
10102.280851	4245.050000	1961.242188	-4.181319
10102.280851	4245.050000	1960.271484	114.600822
10102.280851	4245.050000	1959.299805	16.826014
10102.280851	4245.050000	1958.328125	135.537094
10102.280851	4245.050000	1957.356445	64.827217
10102.280851	4245.050000	1956.384766	-27.995651
10102.280851	4245.050000	1955.412109	11.960893
10102.280851	4245.050000	1954.439453	120.718147
10102.280851	4245.050000	1953.467773	-28.607847
10102.280851	4245.050000	1952.495117	1.478711
10102.280851	4245.050000	1951.521484	-29.866196
10102.280851	4245.050000	1950.548828	-100.501167
10102.280851	4245.050000	1949.575195	22.882978
10102.280851	4245.050000	1948.601563	-150.861984
10102.280851	4245.050000	1947.627930	124.674248
10102.280851	4245.050000	1946.654297	127.679771
10102.280851	4245.050000	1945.680664	-23.909262
10102.280851	4245.050000	1944.706055	-50.320370
10102.280851	4245.050000	1943.732422	126.870918
10102.280851	4245.050000	1942.757813	63.654301
10102.280851	4245.050000	1941.783203	61.762257
10102.280851	4245.050000	1940.807617	99.096107
10102.280851	4245.050000	1939.833008	138.869797
10102.280851	4245.050000	1938.857422	34.042667
10102.280851	4245.050000	1937.881836	19.914019
10102.280851	4245.050000	1936.906250	-136.290634
10102.280851	4245.050000	1935.930664	25.971561
10102.280851	4245.050000	1934.955078	-90.987968
10102.280851	4245.050000	1933.978516	32.038631
10102.280851	4245.050000	1933.001953	-4.089393
10102.280851	4245.050000	1932.025391	91.962753
10102.280851	4245.050000	1931.048828	-61.608337
10102.280851	4245.050000	1930.072266	80.913437
10102.280851	4245.050000	1929.094727	42.377483
10102.280851	4245.050000	1928.118164	-8.365376
10102.280851	4245.050000	1927.140625	2.044985
10102.280851	4245.050000	1926.163086	100.467667
10102.280851	4245.050000	1925.184570	193.971268
10102.280851	4245.050000	1924.207031	170.144775
10102.280851	4245.050000	1923.228516	46.156906
10102.280851	4245.050000	1922.250000	-99.763695
10102.280851	4245.050000	1921.271484	-11.149119
10102.280851	4245.050000	1920.292969	-10.471396
10102.280851	4245.050000	1919.314453	-144.069763
10102.280851	4245.050000	1918.334961	149.575012
10102.280851	4245.050000	1917.355469	-5.953559
10102.280851	4245.050000	1916.375977	16.714231
10102.280851	4245.050000	1915.396484	39.382156
10102.280851	4245.050000	1914.416992	62.049290
10102.280851	4245.050000	1913.436523	92.031723
10102.280851	4245.050000	1912.457031	19.601675
10102.280851	4245.050000	1911.476563	-86.923660
10102.280851	4245.050000	1910.496094	-22.782215
10102.280851	4245.050000	1909.515625	-22.017456
10102.280851	4245.050000	1908.534180	-9.062820
10102.280851	4245.050000	1907.552734	-249.454636
10102.280851	4245.050000	1906.572266	29.034887
10102.280851	4245.050000	1905.590820	15.209782
10102.280851	4245.050000	1904.608398	-71.642883
10102.280851	4245.050000	1903.626953	24.112637
10102.280851	4245.050000	1902.644531	-1.849004
10102.280851	4245.050000	1901.663086	225.272430
10102.280851	4245.050000	1900.680664	221.193619
10102.280851	4245.050000	1899.698242	-13.955423
10102.280851	4245.050000	1898.714844	20.937742
10102.280851	4245.050000	1897.732422	126.339272
10102.280851	4245.050000	1896.749023	275.466827
10102.280851	4245.050000	1895.765625	-15.392393
10102.280851	4245.050000	1894.782227	-14.519324
10102.280851	4245.050000	1893.798828	-6.350655
10102.280851	4245.050000	1892.814453	159.721161
10102.280851	4245.050000	1891.831055	78.001984
10102.280851	4245.050000	1890.846680	-37.677689
10102.280851	4245.050000	1889.862305	106.474113
10102.280851	4245.050000	1888.877930	-89.260582
10102.280851	4245.050000	1887.892578	37.869316
10102.280851	4245.050000	1886.908203	41.204720
10102.280851	4245.050000	1885.922852	34.839336
10102.280851	4245.050000	1884.937500	62.440075
10102.280851	4245.050000	1883.952148	70.633163
10102.280851	4245.050000	1882.965820	120.047607
10102.280851	4245.050000	1881.980469	-39.037273
10102.280851	4245.050000	1880.994141	32.200756
10102.280851	4245.050000	1880.007813	-175.267746
10102.280851	4245.050000	1879.021484	123.726395
10102.280851	4245.050000	1878.035156	-71.563194
10102.280851	4245.050000	1877.047852	57.766891
10102.280851	4245.050000	1876.061523	51.446583
10102.280851	4245.050000	1875.074219	98.393333
10102.280851	4245.050000	1874.086914	-118.521461
10102.280851	4245.050000	1873.098633	80.912247
10102.280851	4245.050000	1872.111328	127.832047
10102.280851	4245.050000	1871.123047	119.091927
10102.280851	4245.050000	1870.135742	-63.797493
10102.280851	4245.050000	1869.147461	26.654491
10102.280851	4245.050000	1868.158203	-18.329302
10102.280851	4245.050000	1867.169922	115.593285
10102.280851	4245.050000	1866.180664	73.025734
10102.280851	4245.050000	1865.192383	49.804817
10102.280851	4245.050000	1864.203125	231.957840
10102.280851	4245.050000	1863.213867	-83.576965
10102.280851	4245.050000	1862.223633	-114.006088
10102.280851	4245.050000	1861.234375	-45.422943
10102.280851	4245.050000	1860.244141	-10.668406
10102.280851	4245.050000	1859.253906	188.208939
10102.280851	4245.050000	1858.263672	61.205795
10102.280851	4245.050000	1857.273438	170.710495
10102.280851	4245.050000	1856.282227	-18.973236
10102.280851	4245.050000	1855.291992	-22.867006
10102.280851	4245.050000	1854.300781	151.689224
10102.280851	4245.050000	1853.309570	34.433502
10102.280851	4245.050000	1852.317383	204.081131
10102.280851	4245.050000	1851.326172	120.590546
10102.280851	4245.050000	1850.333984	-23.118515
10102.280851	4245.050000	1849.342773	107.877228
10102.280851	4245.050000	1848.350586	65.380806
10102.280851	4245.050000	1847.357422	97.552483
10102.280851	4245.050000	1846.365234	-166.469116
10102.280851	4245.050000	1845.372070	-30.761345
10102.280851	4245.050000	1844.379883	-34.719734
10102.280851	4245.050000	1843.386719	-0.180964
10102.280851	4245.050000	1842.393555	-16.192095
10102.280851	4245.050000	1841.399414	-22.585260
10102.280851	4245.050000	1840.406250	-36.201214
10102.280851	4245.050000	1839.412109	-47.418224
10102.280851	4245.050000	1838.417969	42.338764
10102.280851	4245.050000	1837.423828	120.031288
10102.280851	4245.050000	1836.429688	36.655567
10102.280851	4245.050000	1835.434570	-82.744621
10102.280851	4245.050000	1834.440430	54.953472
10102.280851	4245.050000	1833.445313	58.073124
10102.280851	4245.050000	1832.450195	87.595695
10102.280851	4245.050000	1831.454102	33.053684
10102.280851	4245.050000	1830.458984	141.764771
10102.280851	4245.050000	1829.462891	-138.415634
10102.280851	4245.050000	1828.466797	47.050026
10102.280851	4245.050000	1827.470703	148.454361
10102.280851	4245.050000	1826.474609	-6.872898
10102.280851	4245.050000	1825.478516	-111.791008
10102.280851	4245.050000	1824.481445	164.589874
10102.280851	4245.050000	1823.484375	59.645775
10102.280851	4245.050000	1822.487305	213.606812
10102.280851	4245.050000	1821.490234	151.798309
10102.280851	4245.050000	1820.493164	-34.604774
10102.280851	4245.050000	1819.495117	92.881065
10102.280851	4245.050000	1818.498047	81.376137
10102.280851	4245.050000	1817.500000	89.015274
10102.280851	4245.050000	1816.500977	-47.028580
10102.280851	4245.050000	1815.502930	51.560795
10102.280851	4245.050000	1814.504883	44.782516
10102.280851	4245.050000	1813.505859	95.417847
10102.280851	4245.050000	1812.506836	67.059822
10102.280851	4245.050000	1811.507813	170.256454
10102.280851	4245.050000	1810.508789	94.020607
10102.280851	4245.050000	1809.508789	8.226735
10102.280851	4245.050000	1808.508789	39.589058
10102.280851	4245.050000	1807.508789	23.111656
10102.280851	4245.050000	1806.508789	-84.194557
10102.280851	4245.050000	1805.508789	114.356148
10102.280851	4245.050000	1804.508789	7.027141
10102.280851	4245.050000	1803.507813	102.734756
10102.280851	4245.050000	1802.506836	4.952642
10102.280851	4245.050000	1801.505859	203.241531
10102.280851	4245.050000	1800.504883	119.752007
10102.280851	4245.050000	1799.502930	117.414986
10102.280851	4245.050000	1798.501953	112.668541
10102.280851	4245.050000	1797.500000	67.339607
10102.280851	4245.050000	1796.498047	-13.777216
10102.280851	4245.050000	1795.496094	69.665939
10102.280851	4245.050000	1794.493164	124.437775
10102.280851	4245.050000	1793.491211	86.189026
10102.280851	4245.050000	1792.488281	271.976379
10102.280851	4245.050000	1791.485352	47.781593
10102.280851	4245.050000	1790.482422	-61.990810
10102.280851	4245.050000	1789.478516	-28.821257
10102.280851	4245.050000	1788.475586	-57.615383
10102.280851	4245.050000	1787.471680	8.822428
10102.280851	4245.050000	1786.467773	6.163528
10102.280851	4245.050000	1785.463867	101.071259
10102.280851	4245.050000	1784.459961	-30.175322
10102.280851	4245.050000	1783.455078	93.197136
10102.280851	4245.050000	1782.450195	-104.669685
10102.280851	4245.050000	1781.445313	175.595093
10102.280851	4245.050000	1780.440430	101.388702
10102.280851	4245.050000	1779.435547	96.132347
10102.280851	4245.050000	1778.429688	-13.750378
10102.280851	4245.050000	1777.424805	57.011814
10102.280851	4245.050000	1776.418945	137.219940
10102.280851	4245.050000	1775.413086	119.957336
10102.280851	4245.050000	1774.406250	-163.373993
10102.280851	4245.050000	1773.400391	97.231873
10102.280851	4245.050000	1772.393555	-7.964297
10102.280851	4245.050000	1771.386719	10.297213
10102.280851	4245.050000	1770.379883	147.198853
10102.280851	4245.050000	1769.373047	72.808342
10102.280851	4245.050000	1768.365234	105.182327
10102.280851	4245.050000	1767.358398	128.024384
10102.280851	4245.050000	1766.350586	119.990448
10102.280851	4245.050000	1765.342773	187.809204
10102.280851	4245.050000	1764.334961	236.602081
10102.280851	4245.050000	1763.326172	15.113137
10102.280851	4245.050000	1762.318359	-45.164692
10102.280851	4245.050000	1761.309570	72.259224
10102.280851	4245.050000	1760.300781	-49.671421
10102.280851	4245.050000	1759.291016	-138.430466
10102.280851	4245.050000	1758.282227	33.311253
10102.280851	4245.050000	1757.272461	10.798511
10102.280851	4245.050000	1756.262695	-9.372497
10102.280851	4245.050000	1755.252930	10.665813
10102.280851	4245.050000	1754.243164	-120.784889
10102.280851	4245.050000	1753.233398	-58.215412
10102.280851	4245.050000	1752.222656	-33.553394
10102.280851	4245.050000	1751.211914	62.014816
10102.280851	4245.050000	1750.201172	18.002338
10102.280851	4245.050000	1749.190430	191.470642
10102.280851	4245.050000	1748.179688	102.471405
10102.280851	4245.050000	1747.167969	77.275597
10102.280851	4245.050000	1746.156250	-30.642788
10102.280851	4245.050000	1745.144531	17.357813
10102.280851	4245.050000	1744.132813	32.238785
10102.280851	4245.050000	1743.121094	-210.314835
10102.280851	4245.050000	1742.108398	-143.527863
10102.280851	4245.050000	1741.095703	62.467957
10102.280851	4245.050000	1740.083008	-7.776619
10102.280851	4245.050000	1739.070313	-181.852905
10102.280851	4245.050000	1738.057617	31.004210
10102.280851	4245.050000	1737.043945	-32.227547
10102.280851	4245.050000	1736.030273	24.800707
10102.280851	4245.050000	1735.016602	-243.605347
10102.280851	4245.050000	1734.002930	-75.833900
10102.280851	4245.050000	1732.989258	235.609711
10102.280851	4245.050000	1731.974609	56.752869
10102.280851	4245.050000	1730.959961	113.529106
10102.280851	4245.050000	1729.945313	28.915035
10102.280851	4245.050000	1728.930664	-74.542931
10102.280851	4245.050000	1727.916016	48.049797
10102.280851	4245.050000	1726.900391	-38.967052
10102.280851	4245.050000	1725.885742	-71.846558
10102.280851	4245.050000	1724.870117	-5.912745
10102.280851	4245.050000	1723.853516	-81.214462
10102.280851	4245.050000	1722.837891	26.968067
10102.280851	4245.050000	1721.822266	33.939873
10102.280851	4245.050000	1720.805664	184.312500
10102.280851	4245.050000	1719.789063	99.487206
10102.280851	4245.050000	1718.772461	19.360069
10102.280851	4245.050000	1717.754883	-11.421311
10102.280851	4245.050000	1716.738281	157.501938
10102.280851	4245.050000	1715.720703	-14.319254
10102.280851	4245.050000	1714.703125	-134.436081
10102.280851	4245.050000	1713.685547	-80.762978
10102.280851	4245.050000	1712.667969	38.596169
10102.280851	4245.050000	1711.649414	9.982155
10102.280851	4245.050000	1710.630859	-147.741043
10102.280851	4245.050000	1709.612305	-0.385771
10102.280851	4245.050000	1708.593750	83.533928
10102.280851	4245.050000	1707.575195	-156.312851
10102.280851	4245.050000	1706.555664	-6.801247
10102.280851	4245.050000	1705.536133	-40.272194
10102.280851	4245.050000	1704.516602	-64.386177
10102.280851	4245.050000	1703.497070	68.513718
10102.280851	4245.050000	1702.477539	4.482820
10102.280851	4245.050000	1701.457031	-38.473774
10102.280851	4245.050000	1700.437500	127.040001
10102.280851	4245.050000	1699.416992	25.458458
10102.280851	4245.050000	1698.395508	-62.070850
10102.280851	4245.050000	1697.375000	84.520706
10102.280851	4245.050000	1696.354492	81.218147
10102.280851	4245.050000	1695.333008	12.353095
10102.280851	4245.050000	1694.311523	-110.332970
10102.280851	4245.050000	1693.290039	-34.158676
10102.280851	4245.050000	1692.267578	-2.488301
10102.280851	4245.050000	1691.246094	-1.257729
10102.280851	4245.050000	1690.223633	-42.147392
10102.280851	4245.050000	1689.201172	94.602440
10102.280851	4245.050000	1688.178711	44.299603
10102.280851	4245.050000	1687.155273	106.140762
10102.280851	4245.050000	1686.132813	41.776253
10102.280851	4245.050000	1685.109375	-59.969723
10102.280851	4245.050000	1684.085938	-21.588253
10102.280851	4245.050000	1683.062500	-27.613756
10102.280851	4245.050000	1682.039063	-28.997641
10102.280851	4245.050000	1681.014648	-14.077080
10102.280851	4245.050000	1679.990234	35.811741
10102.280851	4245.050000	1678.965820	99.650047
10102.280851	4245.050000	1677.941406	72.463501
10102.280851	4245.050000	1676.916992	38.262627
10102.280851	4245.050000	1675.891602	-30.933413
10102.280851	4245.050000	1674.866211	58.395309
10102.280851	4245.050000	1673.840820	-6.172311
10102.280851	4245.050000	1672.815430	-17.143311
10102.280851	4245.050000	1671.790039	-65.416321
10102.280851	4245.050000	1670.763672	93.620987
10102.280851	4245.050000	1669.737305	108.171295
10102.280851	4245.050000	1668.710938	-86.882294
10102.280851	4245.050000	1667.684570	92.941490
10102.280851	4245.050000	1666.658203	95.767479
10102.280851	4245.050000	1665.630859	-29.435659
10102.280851	4245.050000	1664.603516	75.735085
10102.280851	4245.050000	1663.576172	-51.791748
10102.280851	4245.050000	1662.548828	146.328888
10102.280851	4245.050000	1661.520508	193.191116
10102.280851	4245.050000	1660.493164	130.742447
10102.280851	4245.050000	1659.464844	-27.016279
10102.280851	4245.050000	1658.436523	156.902573
10102.280851	4245.050000	1657.408203	252.429535
10102.280851	4245.050000	1656.378906	69.109756
10102.280851	4245.050000	1655.350586	176.185944
10102.280851	4245.050000	1654.321289	185.657761
10102.280851	4245.050000	1653.291992	264.759064
10102.280851	4245.050000	1652.261719	55.951935
10102.280851	4245.050000	1651.232422	220.880600
10102.280851	4245.050000	1650.202148	91.017754
10102.280851	4245.050000	1649.171875	313.830719
10102.280851	4245.050000	1648.141602	325.455566
10102.280851	4245.050000	1647.111328	258.205200
10102.280851	4245.050000	1646.080078	490.067535
10102.280851	4245.050000	1645.049805	506.230927
10102.280851	4245.050000	1644.018555	501.503326
10102.280851	4245.050000	1642.987305	714.590454
10102.280851	4245.050000	1641.955078	788.557861
10102.280851	4245.050000	1640.923828	693.384949
10102.280851	4245.050000	1639.891602	681.601868
10102.280851	4245.050000	1638.859375	486.879120
10102.280851	4245.050000	1637.827148	546.875366
10102.280851	4245.050000	1636.794922	616.091980
10102.280851	4245.050000	1635.761719	553.352234
10102.280851	4245.050000	1634.729492	534.587891
10102.280851	4245.050000	1633.696289	552.822998
10102.280851	4245.050000	1632.662109	499.334351
10102.280851	4245.050000	1631.628906	436.607513
10102.280851	4245.050000	1630.594727	255.976501
10102.280851	4245.050000	1629.561523	498.413788
10102.280851	4245.050000	1628.527344	435.680176
10102.280851	4245.050000	1627.493164	366.025970
10102.280851	4245.050000	1626.458008	296.381317
10102.280851	4245.050000	1625.423828	360.721680
10102.280851	4245.050000	1624.388672	344.196442
10102.280851	4245.050000	1623.353516	643.973938
10102.280851	4245.050000	1622.318359	488.877899
10102.280851	4245.050000	1621.282227	435.373993
10102.280851	4245.050000	1620.247070	794.924622
10102.280851	4245.050000	1619.210938	519.890564
10102.280851	4245.050000	1618.174805	673.977722
10102.280851	4245.050000	1617.137695	631.970276
10102.280851	4245.050000	1616.101563	576.143066
10102.280851	4245.050000	1615.064453	679.385193
10102.280851	4245.050000	1614.027344	711.132141
10102.280851	4245.050000	1612.990234	795.860901
10102.280851	4245.050000	1611.953125	774.570923
10102.280851	4245.050000	1610.916016	704.913086
10102.280851	4245.050000	1609.877930	842.539551
10102.280851	4245.050000	1608.839844	655.450439
10102.280851	4245.050000	1607.801758	767.700745
10102.280851	4245.050000	1606.763672	698.074158
10102.280851	4245.050000	1605.724609	589.346985
10102.280851	4245.050000	1604.685547	533.574829
10102.280851	4245.050000	1603.646484	792.962219
10102.280851	4245.050000	1602.607422	587.678650
10102.280851	4245.050000	1601.568359	529.634644
10102.280851	4245.050000	1600.528320	581.956116
10102.280851	4245.050000	1599.489258	615.874084
10102.280851	4245.050000	1598.449219	509.591949
10102.280851	4245.050000	1597.408203	653.785034
10102.280851	4245.050000	1596.368164	611.858154
10102.280851	4245.050000	1595.327148	636.547058
10102.280851	4245.050000	1594.287109	601.531860
10102.280851	4245.050000	1593.246094	759.373596
10102.280851	4245.050000	1592.204102	568.257263
10102.280851	4245.050000	1591.163086	707.690125
10102.280851	4245.050000	1590.121094	668.098450
10102.280851	4245.050000	1589.079102	708.817200
10102.280851	4245.050000	1588.037109	566.039124
10102.280851	4245.050000	1586.995117	510.459015
10102.280851	4245.050000	1585.953125	874.464111
10102.280851	4245.050000	1584.910156	651.519165
10102.280851	4245.050000	1583.867188	524.922974
10102.280851	4245.050000	1582.824219	613.765869
10102.280851	4245.050000	1581.781250	441.421295
10102.280851	4245.050000	1580.737305	633.323853
10102.280851	4245.050000	1579.693359	577.842590
10102.280851	4245.050000	1578.649414	536.127441
10102.280851	4245.050000	1577.605469	574.555664
10102.280851	4245.050000	1576.561523	544.319214
10102.280851	4245.050000	1575.516602	768.087097
10102.280851	4245.050000	1574.472656	424.424927
10102.280851	4245.050000	1573.427734	723.629272
10102.280851	4245.050000	1572.381836	588.224121
10102.280851	4245.050000	1571.336914	450.602173
10102.280851	4245.050000	1570.291016	495.915527
10102.280851	4245.050000	1569.246094	536.657471
10102.280851	4245.050000	1568.200195	401.444000
10102.280851	4245.050000	1567.153320	606.694641
10102.280851	4245.050000	1566.107422	558.344788
10102.280851	4245.050000	1565.060547	446.079102
10102.280851	4245.050000	1564.013672	386.386444
10102.280851	4245.050000	1562.966797	500.224335
10102.280851	4245.050000	1561.919922	465.681091
10102.280851	4245.050000	1560.872070	499.619263
10102.280851	4245.050000	1559.825195	522.158813
10102.280851	4245.050000	1558.777344	266.417938
10102.280851	4245.050000	1557.729492	387.086761
10102.280851	4245.050000	1556.680664	407.396027
10102.280851	4245.050000	1555.632813	325.136444
10102.280851	4245.050000	1554.583984	400.188141
10102.280851	4245.050000	1553.535156	445.605347
10102.280851	4245.050000	1552.486328	388.499817
10102.280851	4245.050000	1551.436523	525.049683
10102.280851	4245.050000	1550.387695	529.481934
10102.280851	4245.050000	1549.337891	481.557770
10102.280851	4245.050000	1548.288086	474.650635
10102.280851	4245.050000	1547.238281	556.535400
10102.280851	4245.050000	1546.187500	385.809204
10102.280851	4245.050000	1545.136719	590.578857
10102.280851	4245.050000	1544.086914	613.316284
10102.280851	4245.050000	1543.035156	604.218689
10102.280851	4245.050000	1541.984375	640.629700
10102.280851	4245.050000	1540.933594	774.805786
10102.280851	4245.050000	1539.881836	774.846191
10102.280851	4245.050000	1538.830078	915.805786
10102.280851	4245.050000	1537.778320	922.684998
10102.280851	4245.050000	1536.725586	997.729614
10102.280851	4245.050000	1535.673828	902.439453
10102.280851	4245.050000	1534.621094	841.270630
10102.280851	4245.050000	1533.568359	886.853088
10102.280851	4245.050000	1532.515625	909.747742
10102.280851	4245.050000	1531.461914	1014.353882
10102.280851	4245.050000	1530.409180	1100.799927
10102.280851	4245.050000	1529.355469	883.261963
10102.280851	4245.050000	1528.301758	738.415771
10102.280851	4245.050000	1527.247070	754.648865
10102.280851	4245.050000	1526.193359	868.395203
10102.280851	4245.050000	1525.138672	698.789063
10102.280851	4245.050000	1524.083984	678.851746
10102.280851	4245.050000	1523.029297	702.002502
10102.280851	4245.050000	1521.974609	573.398987
10102.280851	4245.050000	1520.918945	494.700531
10102.280851	4245.050000	1519.863281	429.652832
10102.280851	4245.050000	1518.807617	421.262115
10102.280851	4245.050000	1517.751953	322.366577
10102.280851	4245.050000	1516.696289	443.062317
10102.280851	4245.050000	1515.639648	398.567383
10102.280851	4245.050000	1514.583008	204.819748
10102.280851	4245.050000	1513.526367	309.732788
10102.280851	4245.050000	1512.469727	193.032455
10102.280851	4245.050000	1511.412109	286.668365
10102.280851	4245.050000	1510.355469	249.203217
10102.280851	4245.050000	1509.297852	159.806488
10102.280851	4245.050000	1508.240234	41.107296
10102.280851	4245.050000	1507.181641	191.315216
10102.280851	4245.050000	1506.124023	205.987686
10102.280851	4245.050000	1505.065430	137.136307
10102.280851	4245.050000	1504.006836	127.050209
10102.280851	4245.050000	1502.948242	146.349808
10102.280851	4245.050000	1501.888672	131.824890
10102.280851	4245.050000	1500.830078	144.423157
10102.280851	4245.050000	1499.770508	82.607750
10102.280851	4245.050000	1498.710938	183.248627
10102.280851	4245.050000	1497.650391	132.799774
10102.280851	4245.050000	1496.590820	12.522079
10102.280851	4245.050000	1495.530273	59.134800
10102.280851	4245.050000	1494.469727	-139.881912
10102.280851	4245.050000	1493.409180	-52.618587
10102.280851	4245.050000	1492.348633	-80.240990
10102.280851	4245.050000	1491.287109	2.549833
10102.280851	4245.050000	1490.225586	218.211411
10102.280851	4245.050000	1489.164063	174.913910
10102.280851	4245.050000	1488.102539	201.455444
10102.280851	4245.050000	1487.041016	183.018875
10102.280851	4245.050000	1485.978516	250.131866
10102.280851	4245.050000	1484.916016	218.295654
10102.280851	4245.050000	1483.853516	222.467514
10102.280851	4245.050000	1482.791016	258.181854
10102.280851	4245.050000	1481.727539	170.268265
10102.280851	4245.050000	1480.664063	190.335190
10102.280851	4245.050000	1479.600586	199.219788
10102.280851	4245.050000	1478.537109	232.847107
10102.280851	4245.050000	1477.473633	358.578644
10102.280851	4245.050000	1476.409180	259.726624
10102.280851	4245.050000	1475.344727	237.356323
10102.280851	4245.050000	1474.280273	172.397614
10102.280851	4245.050000	1473.215820	199.521622
10102.280851	4245.050000	1472.151367	89.886734
10102.280851	4245.050000	1471.085938	184.411774
10102.280851	4245.050000	1470.020508	312.570984
10102.280851	4245.050000	1468.955078	368.892853
10102.280851	4245.050000	1467.888672	409.368591
10102.280851	4245.050000	1466.823242	259.893341
10102.280851	4245.050000	1465.756836	247.145676
10102.280851	4245.050000	1464.690430	253.977478
10102.280851	4245.050000	1463.624023	382.332275
10102.280851	4245.050000	1462.556641	327.123383
10102.280851	4245.050000	1461.490234	459.628265
10102.280851	4245.050000	1460.422852	455.249542
10102.280851	4245.050000	1459.355469	597.332031
10102.280851	4245.050000	1458.287109	689.566589
10102.280851	4245.050000	1457.219727	667.864990
10102.280851	4245.050000	1456.151367	802.425171
10102.280851	4245.050000	1455.083008	854.809570
10102.280851	4245.050000	1454.014648	582.823914
10102.280851	4245.050000	1452.945313	751.608459
10102.280851	4245.050000	1451.876953	703.394958
10102.280851	4245.050000	1450.807617	731.359192
10102.280851	4245.050000	1449.738281	579.217651
10102.280851	4245.050000	1448.668945	703.262512
10102.280851	4245.050000	1447.598633	765.087219
10102.280851	4245.050000	1446.528320	688.714722
10102.280851	4245.050000	1445.458008	529.885498
10102.280851	4245.050000	1444.387695	495.878754
10102.280851	4245.050000	1443.317383	643.357788
10102.280851	4245.050000	1442.246094	489.265961
10102.280851	4245.050000	1441.174805	379.478516
10102.280851	4245.050000	1440.103516	467.433960
10102.280851	4245.050000	1439.032227	398.691956
10102.280851	4245.050000	1437.960938	363.606079
10102.280851	4245.050000	1436.888672	422.251831
10102.280851	4245.050000	1435.816406	427.516785
10102.280851	4245.050000	1434.744141	516.499695
10102.280851	4245.050000	1433.670898	463.604248
10102.280851	4245.050000	1432.598633	519.605225
10102.280851	4245.050000	1431.525391	348.660706
10102.280851	4245.050000	1430.452148	304.903107
10102.280851	4245.050000	1429.378906	273.522949
10102.280851	4245.050000	1428.304688	362.833313
10102.280851	4245.050000	1427.231445	237.045029
10102.280851	4245.050000	1426.157227	314.203278
10102.280851	4245.050000	1425.083008	162.694229
10102.280851	4245.050000	1424.007813	256.247162
10102.280851	4245.050000	1422.933594	291.788330
10102.280851	4245.050000	1421.858398	231.786148
10102.280851	4245.050000	1420.783203	148.958557
10102.280851	4245.050000	1419.708008	293.067291
10102.280851	4245.050000	1418.631836	120.917053
10102.280851	4245.050000	1417.555664	-0.138573
10102.280851	4245.050000	1416.479492	-27.470711
10102.280851	4245.050000	1415.403320	69.379608
10102.280851	4245.050000	1414.327148	71.921143
10102.280851	4245.050000	1413.250000	-25.071447
10102.280851	4245.050000	1412.173828	63.465755
10102.280851	4245.050000	1411.096680	2.416131
10102.280851	4245.050000	1410.018555	-159.246597
10102.280851	4245.050000	1408.941406	12.008974
10102.280851	4245.050000	1407.863281	34.348709
10102.280851	4245.050000	1406.785156	39.364910
10102.280851	4245.050000	1405.707031	94.145409
10102.280851	4245.050000	1404.628906	2.224322
10102.280851	4245.050000	1403.549805	190.970459
10102.280851	4245.050000	1402.470703	78.468086
10102.280851	4245.050000	1401.391602	21.642918
10102.280851	4245.050000	1400.312500	157.928467
10102.280851	4245.050000	1399.233398	294.504333
10102.280851	4245.050000	1398.153320	-25.219437
10102.280851	4245.050000	1397.073242	219.329453
10102.280851	4245.050000	1395.993164	323.939972
10102.280851	4245.050000	1394.913086	208.477234
10102.280851	4245.050000	1393.832031	10.597565
10102.280851	4245.050000	1392.750977	118.538094
10102.280851	4245.050000	1391.669922	185.172729
10102.280851	4245.050000	1390.588867	280.259186
10102.280851	4245.050000	1389.506836	162.484177
10102.280851	4245.050000	1388.425781	173.595963
10102.280851	4245.050000	1387.343750	170.758270
10102.280851	4245.050000	1386.261719	31.530178
10102.280851	4245.050000	1385.178711	236.302704
10102.280851	4245.050000	1384.096680	314.287567
10102.280851	4245.050000	1383.013672	208.988693
10102.280851	4245.050000	1381.930664	213.180771
10102.280851	4245.050000	1380.846680	124.236458
10102.280851	4245.050000	1379.763672	212.050659
10102.280851	4245.050000	1378.679688	119.639374
10102.280851	4245.050000	1377.595703	345.116943
10102.280851	4245.050000	1376.511719	281.391418
10102.280851	4245.050000	1375.427734	458.844421
10102.280851	4245.050000	1374.342773	428.814728
10102.280851	4245.050000	1373.257813	298.396912
10102.280851	4245.050000	1372.172852	215.662109
10102.280851	4245.050000	1371.087891	409.862061
10102.280851	4245.050000	1370.001953	386.767303
10102.280851	4245.050000	1368.916992	202.723938
10102.280851	4245.050000	1367.831055	4.574050
10102.280851	4245.050000	1366.744141	57.089046
10102.280851	4245.050000	1365.658203	113.977074
10102.280851	4245.050000	1364.571289	172.502304
10102.280851	4245.050000	1363.484375	60.181797
10102.280851	4245.050000	1362.397461	150.682297
10102.280851	4245.050000	1361.310547	0.027053
10102.280851	4245.050000	1360.222656	55.126579
10102.280851	4245.050000	1359.135742	12.065438
10102.280851	4245.050000	1358.047852	-27.040119
10102.280851	4245.050000	1356.958984	-50.909924
10102.280851	4245.050000	1355.871094	-114.933327
10102.280851	4245.050000	1354.782227	-27.527021
10102.280851	4245.050000	1353.693359	41.446682
10102.280851	4245.050000	1352.604492	-65.401131
10102.280851	4245.050000	1351.515625	-108.827545
10102.280851	4245.050000	1350.425781	-43.706825
10102.280851	4245.050000	1349.335938	27.047762
10102.280851	4245.050000	1348.246094	-7.073809
10102.280851	4245.050000	1347.156250	-74.585464
10102.280851	4245.050000	1346.066406	-74.627129
10102.280851	4245.050000	1344.975586	110.946655
10102.280851	4245.050000	1343.884766	15.421627
10102.280851	4245.050000	1342.793945	36.756489
10102.280851	4245.050000	1341.702148	4.891726
10102.280851	4245.050000	1340.611328	4.719020
10102.280851	4245.050000	1339.519531	-67.001450
10102.280851	4245.050000	1338.427734	-133.764435
10102.280851	4245.050000	1337.334961	-53.706474
10102.280851	4245.050000	1336.243164	-37.469391
10102.280851	4245.050000	1335.150391	-12.559321
10102.280851	4245.050000	1334.057617	16.963387
10102.280851	4245.050000	1332.964844	7.856246
10102.280851	4245.050000	1331.871094	92.158684
10102.280851	4245.050000	1330.778320	41.417931
10102.280851	4245.050000	1329.684570	4.616490
10102.280851	4245.050000	1328.590820	-24.409698
10102.280851	4245.050000	1327.496094	90.332054
10102.280851	4245.050000	1326.402344	-4.572275
10102.280851	4245.050000	1325.307617	-9.091059
10102.280851	4245.050000	1324.212891	182.415192
10102.280851	4245.050000	1323.117188	17.418783
10102.280851	4245.050000	1322.022461	255.969269
10102.280851	4245.050000	1320.926758	151.009689
10102.280851	4245.050000	1319.831055	143.469421
10102.280851	4245.050000	1318.735352	119.876427
10102.280851	4245.050000	1317.638672	117.146561
10102.280851	4245.050000	1316.542969	176.029205
10102.280851	4245.050000	1315.446289	162.406204
10102.280851	4245.050000	1314.349609	123.336624
10102.280851	4245.050000	1313.251953	178.722748
10102.280851	4245.050000	1312.155273	-43.615002
10102.280851	4245.050000	1311.057617	197.150757
10102.280851	4245.050000	1309.959961	80.702019
10102.280851	4245.050000	1308.862305	89.348000
10102.280851	4245.050000	1307.763672	21.193272
10102.280851	4245.050000	1306.665039	121.496872
10102.280851	4245.050000	1305.566406	148.404922
10102.280851	4245.050000	1304.467773	20.178783
10102.280851	4245.050000	1303.369141	-69.403587
10102.280851	4245.050000	1302.269531	-55.628094
10102.280851	4245.050000	1301.169922	25.074677
10102.280851	4245.050000	1300.070313	23.912365
10102.280851	4245.050000	1298.970703	71.152184
10102.280851	4245.050000	1297.870117	50.280788
10102.280851	4245.050000	1296.769531	14.283490
10102.280851	4245.050000	1295.668945	20.170658
10102.280851	4245.050000	1294.568359	-26.860819
10102.280851	4245.050000	1293.466797	-92.605431
10102.280851	4245.050000	1292.366211	23.261028
10102.280851	4245.050000	1291.264648	-5.684010
10102.280851	4245.050000	1290.162109	38.679272
10102.280851	4245.050000	1289.060547	-19.544815
10102.280851	4245.050000	1287.958008	-38.115597
10102.280851	4245.050000	1286.855469	48.450027
10102.280851	4245.050000	1285.752930	73.398743
10102.280851	4245.050000	1284.650391	136.494812
10102.280851	4245.050000	1283.546875	160.999619
10102.280851	4245.050000	1282.444336	161.850189
10102.280851	4245.050000	1281.339844	40.119602
10102.280851	4245.050000	1280.236328	52.266220
10102.280851	4245.050000	1279.132813	-4.470041
10102.280851	4245.050000	1278.028320	128.388138
10102.280851	4245.050000	1276.923828	31.029688
10102.280851	4245.050000	1275.819336	3.403428
10102.280851	4245.050000	1274.713867	-7.279863
10102.280851	4245.050000	1273.608398	12.882544
10102.280851	4245.050000	1272.503906	-0.028974
10102.280851	4245.050000	1271.397461	-91.764961
10102.280851	4245.050000	1270.291992	-131.316391
10102.280851	4245.050000	1269.185547	-259.503876
10102.280851	4245.050000	1268.080078	-62.262020
10102.280851	4245.050000	1266.972656	-75.822617
10102.280851	4245.050000	1265.866211	-52.707138
10102.280851	4245.050000	1264.759766	-126.486923
10102.280851	4245.050000	1263.652344	-28.674164
10102.280851	4245.050000	1262.544922	10.643929
10102.280851	4245.050000	1261.436523	-44.941776
10102.280851	4245.050000	1260.329102	-78.191856
10102.280851	4245.050000	1259.220703	113.669113
10102.280851	4245.050000	1258.112305	-108.629745
10102.280851	4245.050000	1257.003906	-12.327121
10102.280851	4245.050000	1255.895508	-6.214924
10102.280851	4245.050000	1254.786133	48.703087
10102.280851	4245.050000	1253.676758	118.314651
10102.280851	4245.050000	1252.567383	106.030502
10102.280851	4245.050000	1251.458008	50.060677
10102.280851	4245.050000	1250.347656	71.896103
10102.280851	4245.050000	1249.237305	236.593903
10102.280851	4245.050000	1248.126953	51.672215
10102.280851	4245.050000	1247.016602	44.519314
10102.280851	4245.050000	1245.905273	98.752151
10102.280851	4245.050000	1244.793945	111.448296
10102.280851	4245.050000	1243.682617	-20.507893
10102.280851	4245.050000	1242.571289	24.406626
10102.280851	4245.050000	1241.459961	67.395058
10102.280851	4245.050000	1240.347656	-3.388489
10102.280851	4245.050000	1239.235352	53.543671
10102.280851	4245.050000	1238.123047	81.006561
10102.280851	4245.050000	1237.009766	85.736351
10102.280851	4245.050000	1235.897461	-6.563737
10102.280851	4245.050000	1234.784180	117.849556
10102.280851	4245.050000	1233.670898	132.070801
10102.280851	4245.050000	1232.556641	171.395279
10102.280851	4245.050000	1231.443359	215.107681
10102.280851	4245.050000	1230.329102	112.885933
10102.280851	4245.050000	1229.214844	231.840668
10102.280851	4245.050000	1228.099609	138.627548
10102.280851	4245.050000	1226.985352	320.008270
10102.280851	4245.050000	1225.870117	163.406418
10102.280851	4245.050000	1224.754883	94.347626
10102.280851	4245.050000	1223.639648	141.472641
10102.280851	4245.050000	1222.523438	174.585571
10102.280851	4245.050000	1221.408203	103.557961
10102.280851	4245.050000	1220.291992	34.165455
10102.280851	4245.050000	1219.174805	167.724075
10102.280851	4245.050000	1218.058594	187.695175
10102.280851	4245.050000	1216.941406	118.338806
10102.280851	4245.050000	1215.824219	135.884232
10102.280851	4245.050000	1214.707031	177.382309
10102.280851	4245.050000	1213.589844	74.867355
10102.280851	4245.050000	1212.471680	236.107391
10102.280851	4245.050000	1211.353516	306.333618
10102.280851	4245.050000	1210.235352	174.638947
10102.280851	4245.050000	1209.117188	111.213387
10102.280851	4245.050000	1207.998047	210.301071
10102.280851	4245.050000	1206.878906	134.666916
10102.280851	4245.050000	1205.759766	290.853973
10102.280851	4245.050000	1204.640625	385.050385
10102.280851	4245.050000	1203.520508	240.873276
10102.280851	4245.050000	1202.401367	300.049622
10102.280851	4245.050000	1201.281250	308.317566
10102.280851	4245.050000	1200.160156	277.035126
10102.280851	4245.050000	1199.040039	358.419495
10102.280851	4245.050000	1197.918945	283.193176
10102.280851	4245.050000	1196.797852	244.698715
10102.280851	4245.050000	1195.676758	333.122284
10102.280851	4245.050000	1194.555664	254.224289
10102.280851	4245.050000	1193.433594	300.881134
10102.280851	4245.050000	1192.311523	357.181519
10102.280851	4245.050000	1191.189453	378.590881
10102.280851	4245.050000	1190.066406	338.994934
10102.280851	4245.050000	1188.944336	273.487946
10102.280851	4245.050000	1187.821289	198.370468
10102.280851	4245.050000	1186.698242	250.651596
10102.280851	4245.050000	1185.574219	203.247314
10102.280851	4245.050000	1184.451172	137.300735
10102.280851	4245.050000	1183.327148	220.513275
10102.280851	4245.050000	1182.203125	11.314472
10102.280851	4245.050000	1181.078125	134.633957
10102.280851	4245.050000	1179.954102	131.243805
10102.280851	4245.050000	1178.829102	136.898621
10102.280851	4245.050000	1177.704102	139.751617
10102.280851	4245.050000	1176.579102	28.893278
10102.280851	4245.050000	1175.453125	1.700968
10102.280851	4245.050000	1174.327148	117.424118
10102.280851	4245.050000	1173.201172	17.247484
10102.280851	4245.050000	1172.075195	146.967621
10102.280851	4245.050000	1170.949219	83.704338
10102.280851	4245.050000	1169.822266	56.849098
10102.280851	4245.050000	1168.695313	16.971237
10102.280851	4245.050000	1167.568359	54.598770
10102.280851	4245.050000	1166.440430	223.487885
10102.280851	4245.050000	1165.313477	51.368462
10102.280851	4245.050000	1164.185547	6.770261
10102.280851	4245.050000	1163.057617	2.943831
10102.280851	4245.050000	1161.928711	-37.675964
10102.280851	4245.050000	1160.800781	-59.301529
10102.280851	4245.050000	1159.671875	-128.374374
10102.280851	4245.050000	1158.541992	1.799038
10102.280851	4245.050000	1157.413086	-250.346649
10102.280851	4245.050000	1156.283203	46.080975
10102.280851	4245.050000	1155.154297	4.674335
10102.280851	4245.050000	1154.023438	-86.810921
10102.280851	4245.050000	1152.893555	-32.711060
10102.280851	4245.050000	1151.763672	-20.867624
10102.280851	4245.050000	1150.632813	15.055510
10102.280851	4245.050000	1149.501953	-50.099133
10102.280851	4245.050000	1148.370117	-11.433432
10102.280851	4245.050000	1147.239258	-122.852798
10102.280851	4245.050000	1146.107422	-71.516800
10102.280851	4245.050000	1144.975586	127.438148
10102.280851	4245.050000	1143.843750	117.334068
10102.280851	4245.050000	1142.710938	-24.905590
10102.280851	4245.050000	1141.578125	-19.970404
10102.280851	4245.050000	1140.445313	44.540760
10102.280851	4245.050000	1139.312500	-61.269299
10102.280851	4245.050000	1138.178711	-81.957169
10102.280851	4245.050000	1137.045898	-191.953339
10102.280851	4245.050000	1135.912109	13.156103
10102.280851	4245.050000	1134.777344	74.540794
10102.280851	4245.050000	1133.643555	-33.943020
10102.280851	4245.050000	1132.508789	-87.802917
10102.280851	4245.050000	1131.374023	38.320049
10102.280851	4245.050000	1130.239258	144.563843
10102.280851	4245.050000	1129.104492	26.209044
10102.280851	4245.050000	1127.968750	138.265335
10102.280851	4245.050000	1126.833008	206.848068
10102.280851	4245.050000	1125.697266	-5.237739
10102.280851	4245.050000	1124.560547	80.726524
10102.280851	4245.050000	1123.424805	118.467575
10102.280851	4245.050000	1122.288086	10.105463
10102.280851	4245.050000	1121.151367	120.542778
10102.280851	4245.050000	1120.013672	52.636765
10102.280851	4245.050000	1118.876953	111.813026
10102.280851	4245.050000	1117.739258	-59.652760
10102.280851	4245.050000	1116.601563	-39.761238
10102.280851	4245.050000	1115.462891	115.997589
10102.280851	4245.050000	1114.324219	9.795017
10102.280851	4245.050000	1113.186523	-33.685394
10102.280851	4245.050000	1112.046875	-175.538910
10102.280851	4245.050000	1110.908203	-52.855133
10102.280851	4245.050000	1109.769531	-72.989799
10102.280851	4245.050000	1108.629883	66.582619
10102.280851	4245.050000	1107.490234	54.449062
10102.280851	4245.050000	1106.349609	87.410416
10102.280851	4245.050000	1105.209961	37.140873
10102.280851	4245.050000	1104.069336	91.040649
10102.280851	4245.050000	1102.928711	78.955589
10102.280851	4245.050000	1101.787109	-10.871612
10102.280851	4245.050000	1100.646484	75.093285
10102.280851	4245.050000	1099.504883	79.256210
10102.280851	4245.050000	1098.363281	71.998238
10102.280851	4245.050000	1097.221680	40.622017
10102.280851	4245.050000	1096.079102	-37.746063
10102.280851	4245.050000	1094.936523	33.471462
10102.280851	4245.050000	1093.793945	142.607010
10102.280851	4245.050000	1092.651367	126.368019
10102.280851	4245.050000	1091.507813	162.028748
10102.280851	4245.050000	1090.364258	-79.452362
10102.280851	4245.050000	1089.220703	30.311308
10102.280851	4245.050000	1088.077148	-11.553844
10102.280851	4245.050000	1086.933594	32.006790
10102.280851	4245.050000	1085.789063	40.130188
10102.280851	4245.050000	1084.644531	98.111809
10102.280851	4245.050000	1083.499023	-78.169708
10102.280851	4245.050000	1082.354492	29.766920
10102.280851	4245.050000	1081.208984	87.930969
10102.280851	4245.050000	1080.063477	96.013512
10102.280851	4245.050000	1078.917969	47.954433
10102.280851	4245.050000	1077.771484	47.021927
10102.280851	4245.050000	1076.625977	-9.399153
10102.280851	4245.050000	1075.479492	-129.955505
10102.280851	4245.050000	1074.332031	63.520233
10102.280851	4245.050000	1073.185547	69.213371
10102.280851	4245.050000	1072.038086	-18.738260
10102.280851	4245.050000	1070.890625	-105.577454
10102.280851	4245.050000	1069.743164	-89.487831
10102.280851	4245.050000	1068.594727	105.707809
10102.280851	4245.050000	1067.447266	102.050987
10102.280851	4245.050000	1066.298828	41.485466
10102.280851	4245.050000	1065.149414	34.760189
10102.280851	4245.050000	1064.000977	174.730774
10102.280851	4245.050000	1062.851563	80.164604
10102.280851	4245.050000	1061.702148	264.803955
10102.280851	4245.050000	1060.552734	91.689331
10102.280851	4245.050000	1059.402344	169.196533
10102.280851	4245.050000	1058.252930	45.282513
10102.280851	4245.050000	1057.102539	29.400936
10102.280851	4245.050000	1055.951172	-70.108406
10102.280851	4245.050000	1054.800781	-18.856781
10102.280851	4245.050000	1053.649414	208.370102
10102.280851	4245.050000	1052.498047	-24.737509
10102.280851	4245.050000	1051.346680	-17.345606
10102.280851	4245.050000	1050.194336	-45.904739
10102.280851	4245.050000	1049.042969	-57.692436
10102.280851	4245.050000	1047.890625	42.923347
10102.280851	4245.050000	1046.738281	-126.895821
10102.280851	4245.050000	1045.584961	-70.844719
10102.280851	4245.050000	1044.431641	14.135246
10102.280851	4245.050000	1043.278320	159.132996
10102.280851	4245.050000	1042.125000	-97.601433
10102.280851	4245.050000	1040.971680	45.581455
10102.280851	4245.050000	1039.817383	-24.294973
10102.280851	4245.050000	1038.663086	71.116096
10102.280851	4245.050000	1037.508789	-18.297577
10102.280851	4245.050000	1036.353516	-26.914522
10102.280851	4245.050000	1035.198242	59.834312
10102.280851	4245.050000	1034.042969	130.646271
10102.280851	4245.050000	1032.887695	0.049731
10102.280851	4245.050000	1031.732422	69.451530
10102.280851	4245.050000	1030.576172	15.197156
10102.280851	4245.050000	1029.419922	174.949539
10102.280851	4245.050000	1028.263672	132.230240
10102.280851	4245.050000	1027.106445	80.643005
10102.280851	4245.050000	1025.949219	-32.125732
10102.280851	4245.050000	1024.792969	-2.114044
10102.280851	4245.050000	1023.634766	67.108109
10102.280851	4245.050000	1022.477539	28.646046
10102.280851	4245.050000	1021.319336	2.744105
10102.280851	4245.050000	1020.161133	-24.526869
10102.280851	4245.050000	1019.002930	45.301983
10102.280851	4245.050000	1017.843750	-66.790756
10102.280851	4245.050000	1016.684570	-5.633108
10102.280851	4245.050000	1015.525391	13.021145
10102.280851	4245.050000	1014.366211	108.319084
10102.280851	4245.050000	1013.207031	72.765724
10102.280851	4245.050000	1012.046875	-144.883118
10102.280851	4245.050000	1010.886719	20.392317
10102.280851	4245.050000	1009.726563	-61.442017
10102.280851	4245.050000	1008.565430	-50.917938
10102.280851	4245.050000	1007.404297	-5.506838
10102.280851	4245.050000	1006.243164	94.292397
10102.280851	4245.050000	1005.082031	81.486740
10102.280851	4245.050000	1003.920898	-17.495459
10102.280851	4245.050000	1002.758789	113.183029
10102.280851	4245.050000	1001.596680	140.039719
10102.280851	4245.050000	1000.433594	177.302399
10102.280851	4245.050000	999.271484	33.819088
10102.280851	4245.050000	998.108398	78.093590
10102.280851	4245.050000	996.945313	31.734810
10102.280851	4245.050000	995.782227	-17.524197
10102.280851	4245.050000	994.618164	72.526718
10102.280851	4245.050000	993.454102	7.057057
10102.280851	4245.050000	992.290039	-98.312408
10102.280851	4245.050000	991.125977	67.352058
10102.280851	4245.050000	989.960938	-47.025101
10102.280851	4245.050000	988.796875	60.862480
10102.280851	4245.050000	987.630859	53.515759
10102.280851	4245.050000	986.465820	-2.020487
10102.280851	4245.050000	985.300781	83.736267
10102.280851	4245.050000	984.134766	229.080475
10102.280851	4245.050000	982.968750	-11.586715
10102.280851	4245.050000	981.801758	11.620924
10102.280851	4245.050000	980.635742	132.343033
10102.280851	4245.050000	979.468750	138.307953
10102.280851	4245.050000	978.301758	-0.533304
10102.280851	4245.050000	977.133789	94.387550
10102.280851	4245.050000	975.966797	104.449577
10102.280851	4245.050000	974.798828	77.047951
10102.280851	4245.050000	973.630859	6.790020
10102.280851	4245.050000	972.461914	-62.608524
10102.280851	4245.050000	971.293945	-144.156189
10102.280851	4245.050000	970.125000	-127.037025
10102.280851	4245.050000	968.956055	-11.973694
10102.280851	4245.050000	967.786133	0.824630
10102.280851	4245.050000	966.617188	25.868128
10102.280851	4245.050000	965.447266	55.583954
10102.280851	4245.050000	964.276367	1.147040
10102.280851	4245.050000	963.106445	44.107712
10102.280851	4245.050000	961.935547	78.401810
10102.280851	4245.050000	960.764648	-57.954430
10102.280851	4245.050000	959.593750	-32.389053
10102.280851	4245.050000	958.422852	161.375946
10102.280851	4245.050000	957.250977	7.101975
10102.280851	4245.050000	956.079102	138.864868
10102.280851	4245.050000	954.907227	229.869431
10102.280851	4245.050000	953.734375	-20.631330
10102.280851	4245.050000	952.562500	129.181274
10102.280851	4245.050000	951.389648	137.863907
10102.280851	4245.050000	950.215820	316.799042
10102.280851	4245.050000	949.042969	258.147675
10102.280851	4245.050000	947.869141	92.184723
10102.280851	4245.050000	946.695313	152.802521
10102.280851	4245.050000	945.521484	67.467575
10102.280851	4245.050000	944.346680	58.605663
10102.280851	4245.050000	943.172852	-62.232880
10102.280851	4245.050000	941.998047	17.355570
10102.280851	4245.050000	940.822266	89.371147
10102.280851	4245.050000	939.647461	37.548840
10102.280851	4245.050000	938.471680	2.673038
10102.280851	4245.050000	937.295898	93.906746
10102.280851	4245.050000	936.119141	58.724476
10102.280851	4245.050000	934.943359	30.649397
10102.280851	4245.050000	933.766602	105.067368
10102.280851	4245.050000	932.589844	62.860676
10102.280851	4245.050000	931.413086	27.740919
10102.280851	4245.050000	930.235352	175.939392
10102.280851	4245.050000	929.057617	269.274933
10102.280851	4245.050000	927.879883	412.567047
10102.280851	4245.050000	926.702148	439.219238
10102.280851	4245.050000	925.523438	332.640015
10102.280851	4245.050000	924.344727	335.462158
10102.280851	4245.050000	923.166016	112.382210
10102.280851	4245.050000	921.987305	20.134176
10102.280851	4245.050000	920.807617	32.509815
10102.280851	4245.050000	919.627930	34.363205
10102.280851	4245.050000	919.497070	149.650116
10102.280851	4245.050000	918.331055	78.785469
10102.280851	4245.050000	917.165039	-1.564669
10102.280851	4245.050000	915.999023	-13.012448
10102.280851	4245.050000	914.833008	-138.454193
10102.280851	4245.050000	913.666016	-43.049404
10102.280851	4245.050000	912.499023	-75.878044
10102.280851	4245.050000	911.332031	38.439445
10102.280851	4245.050000	910.165039	62.533577
10102.280851	4245.050000	908.997070	-88.943176
10102.280851	4245.050000	907.830078	-233.254791
10102.280851	4245.050000	906.661133	84.898582
10102.280851	4245.050000	905.493164	-123.421768
10102.280851	4245.050000	904.325195	-6.924734
10102.280851	4245.050000	903.156250	-115.624878
10102.280851	4245.050000	901.987305	133.492157
10102.280851	4245.050000	900.818359	31.895721
10102.280851	4245.050000	899.648438	22.701601
10102.280851	4245.050000	898.478516	120.060883
10102.280851	4245.050000	897.308594	136.876526
10102.280851	4245.050000	896.138672	-14.381623
10102.280851	4245.050000	894.968750	94.730911
10102.280851	4245.050000	893.797852	-58.839584
10102.280851	4245.050000	892.626953	-16.015240
10102.280851	4245.050000	891.456055	161.592743
10102.280851	4245.050000	890.284180	76.650818
10102.280851	4245.050000	889.113281	5.918690
10102.280851	4245.050000	887.941406	103.026047
10102.280851	4245.050000	886.768555	-10.233566
10102.280851	4245.050000	885.596680	150.612473
10102.280851	4245.050000	884.423828	-7.507877
10102.280851	4245.050000	883.250977	80.044357
10102.280851	4245.050000	882.078125	89.633034
10102.280851	4245.050000	880.905273	77.963333
10102.280851	4245.050000	879.731445	-6.875495
10102.280851	4245.050000	878.557617	-53.931015
10102.280851	4245.050000	877.383789	-6.603524
10102.280851	4245.050000	876.209961	-79.601913
10102.280851	4245.050000	875.035156	-74.751534
10102.280851	4245.050000	873.860352	-95.846992
10102.280851	4245.050000	872.685547	-43.863300
10102.280851	4245.050000	871.510742	-6.048924
10102.280851	4245.050000	870.334961	81.228287
10102.280851	4245.050000	869.159180	-107.178322
10102.280851	4245.050000	867.983398	-24.640755
10102.280851	4245.050000	866.807617	-130.539307
10102.280851	4245.050000	865.630859	140.313309
10102.280851	4245.050000	864.454102	-12.667546
10102.280851	4245.050000	863.277344	-238.550659
10102.280851	4245.050000	862.100586	-257.282745
10102.280851	4245.050000	860.922852	25.110573
10102.280851	4245.050000	859.745117	-31.312288
10102.280851	4245.050000	858.567383	39.265141
10102.280851	4245.050000	857.389648	72.190559
10102.280851	4245.050000	856.210938	-162.871277
10102.280851	4245.050000	855.032227	22.827547
10102.280851	4245.050000	853.853516	86.263138
10102.280851	4245.050000	852.674805	1.669413
10102.280851	4245.050000	851.495117	-5.388514
10102.280851	4245.050000	850.315430	-188.563599
10102.280851	4245.050000	849.135742	32.135391
10102.280851	4245.050000	847.956055	123.639626
10102.280851	4245.050000	846.775391	254.996613
10102.280851	4245.050000	845.595703	15.583055
10102.280851	4245.050000	844.415039	109.363083
10102.280851	4245.050000	843.233398	-7.977285
10102.280851	4245.050000	842.052734	-17.415308
10102.280851	4245.050000	840.871094	-54.986431
10102.280851	4245.050000	839.689453	-71.453941
10102.280851	4245.050000	838.506836	62.055771
10102.280851	4245.050000	837.325195	87.730515
10102.280851	4245.050000	836.142578	-41.208866
10102.280851	4245.050000	834.959961	-102.186295
10102.280851	4245.050000	833.777344	-120.998665
10102.280851	4245.050000	832.593750	-13.397411
10102.280851	4245.050000	831.410156	-50.955872
10102.280851	4245.050000	830.226563	-198.484619
10102.280851	4245.050000	829.042969	-27.786427
10102.280851	4245.050000	827.858398	147.514191
10102.280851	4245.050000	826.673828	163.715012
10102.280851	4245.050000	825.489258	126.126999
10102.280851	4245.050000	824.304688	48.809216
10102.280851	4245.050000	823.120117	-124.304329
10102.280851	4245.050000	821.934570	137.257523
10102.280851	4245.050000	820.749023	-35.815369
10102.280851	4245.050000	819.562500	10.727905
10102.280851	4245.050000	818.376953	-47.838303
10102.280851	4245.050000	817.190430	-87.708900
10102.280851	4245.050000	816.003906	-143.909836
10102.280851	4245.050000	814.817383	-55.404076
10102.280851	4245.050000	813.629883	-62.603836
10102.280851	4245.050000	812.442383	109.814056
10102.280851	4245.050000	811.254883	27.935455
10102.280851	4245.050000	810.067383	-21.271465
10102.280851	4245.050000	808.878906	27.449978
10102.280851	4245.050000	807.690430	-5.435912
10102.280851	4245.050000	806.501953	-96.574257
10102.280851	4245.050000	805.313477	-54.880676
10102.280851	4245.050000	804.124023	-62.128811
10102.280851	4245.050000	802.934570	23.774076
10102.280851	4245.050000	801.745117	188.799072
10102.280851	4245.050000	800.555664	-32.690193
10102.280851	4245.050000	799.365234	8.907146
10102.280851	4245.050000	798.175781	-51.909317
10102.280851	4245.050000	796.985352	171.123734
10102.280851	4245.050000	795.793945	94.000282
10102.280851	4245.050000	794.603516	100.618416
10102.280851	4245.050000	793.412109	167.676437
10102.280851	4245.050000	792.220703	92.898476
10102.280851	4245.050000	791.028320	208.717804
10102.280851	4245.050000	789.836914	-10.120272
10102.280851	4245.050000	788.644531	54.544395
10102.280851	4245.050000	787.452148	88.977440
10102.280851	4245.050000	786.258789	148.930466
10102.280851	4245.050000	785.066406	248.316299
10102.280851	4245.050000	783.873047	43.574314
10102.280851	4245.050000	782.679688	50.091747
10102.280851	4245.050000	781.485352	186.528839
10102.280851	4245.050000	780.291992	81.643700
10102.280851	4245.050000	779.097656	83.478149
10102.280851	4245.050000	777.903320	82.980980
10102.280851	4245.050000	776.708008	66.245483
10102.280851	4245.050000	775.512695	0.830325
10102.280851	4245.050000	774.318359	185.702896
10102.280851	4245.050000	773.122070	134.167801
10102.280851	4245.050000	771.926758	96.539673
10102.280851	4245.050000	770.730469	253.450043
10102.280851	4245.050000	769.534180	111.593834
10102.280851	4245.050000	768.337891	242.945953
10102.280851	4245.050000	767.141602	483.009583
10102.280851	4245.050000	765.944336	355.038605
10102.280851	4245.050000	764.747070	426.067780
10102.280851	4245.050000	763.549805	434.601776
10102.280851	4245.050000	762.351563	396.868042
10102.280851	4245.050000	761.154297	222.724060
10102.280851	4245.050000	759.956055	349.142426
10102.280851	4245.050000	758.757813	163.496902
10102.280851	4245.050000	757.558594	250.565094
10102.280851	4245.050000	756.359375	254.417526
10102.280851	4245.050000	755.160156	186.653580
10102.280851	4245.050000	753.960938	146.612396
10102.280851	4245.050000	752.761719	291.265900
10102.280851	4245.050000	751.561523	184.249573
10102.280851	4245.050000	750.361328	190.340042
10102.280851	4245.050000	749.160156	104.121498
10102.280851	4245.050000	747.959961	239.370148
10102.280851	4245.050000	746.758789	252.313202
10102.280851	4245.050000	745.557617	313.655029
10102.280851	4245.050000	744.356445	56.820183
10102.280851	4245.050000	743.154297	113.531967
10102.280851	4245.050000	741.952148	262.375183
10102.280851	4245.050000	740.750000	70.165955
10102.280851	4245.050000	739.547852	244.256119
10102.280851	4245.050000	738.344727	77.425026
10102.280851	4245.050000	737.142578	127.071686
10102.280851	4245.050000	735.939453	245.736481
10102.280851	4245.050000	734.735352	49.031937
10102.280851	4245.050000	733.532227	50.273628
10102.280851	4245.050000	732.328125	86.001869
10102.280851	4245.050000	731.124023	64.194160
10102.280851	4245.050000	729.918945	159.651230
10102.280851	4245.050000	728.714844	6.748374
10102.280851	4245.050000	727.509766	141.210327
10102.280851	4245.050000	726.303711	2.121269
10102.280851	4245.050000	725.098633	102.019669
10102.280851	4245.050000	723.892578	70.917763
10102.280851	4245.050000	722.686523	189.088577
10102.280851	4245.050000	721.480469	238.301865
10102.280851	4245.050000	720.274414	39.536373
10102.280851	4245.050000	719.067383	-74.246681
10102.280851	4245.050000	717.860352	-36.553505
10102.280851	4245.050000	716.653320	-134.260818
10102.280851	4245.050000	715.445313	-18.630625
10102.280851	4245.050000	714.238281	18.954514
10102.280851	4245.050000	713.030273	47.327778
10102.280851	4245.050000	711.821289	18.355553
10102.280851	4245.050000	710.613281	71.876572
10102.280851	4245.050000	709.404297	107.018341
10102.280851	4245.050000	708.195313	29.866131
10102.280851	4245.050000	706.986328	26.012939
10102.280851	4245.050000	705.776367	93.122398
10102.280851	4245.050000	704.566406	4.494681
10102.280851	4245.050000	703.356445	-26.899269
10102.280851	4245.050000	702.146484	8.058944
10102.280851	4245.050000	700.935547	102.463043
10102.280851	4245.050000	699.724609	185.361343
10102.280851	4245.050000	698.513672	57.788750
10102.280851	4245.050000	697.302734	53.715721
10102.280851	4245.050000	696.090820	67.904350
10102.280851	4245.050000	694.878906	141.483612
10102.280851	4245.050000	693.666992	68.754539
10102.280851	4245.050000	692.455078	28.011318
10102.280851	4245.050000	691.242188	-40.154446
10102.280851	4245.050000	690.029297	140.599213
10102.280851	4245.050000	688.816406	-103.428635
10102.280851	4245.050000	687.602539	97.745651
10102.280851	4245.050000	686.389648	200.669235
10102.280851	4245.050000	685.175781	100.440453
10102.280851	4245.050000	683.960938	45.847561
10102.280851	4245.050000	682.747070	27.739658
10102.280851	4245.050000	681.532227	121.342850
10102.280851	4245.050000	680.317383	48.446098
10102.280851	4245.050000	679.102539	125.985703
10102.280851	4245.050000	677.886719	59.889458
10102.280851	4245.050000	676.670898	5.180769
10102.280851	4245.050000	675.455078	-22.203060
10102.280851	4245.050000	674.239258	262.401337
10102.280851	4245.050000	673.022461	255.400192
10102.280851	4245.050000	671.805664	93.567497
10102.280851	4245.050000	670.588867	179.853271
10102.280851	4245.050000	669.372070	70.374039
10102.280851	4245.050000	668.154297	26.881611
10102.280851	4245.050000	666.936523	-32.548603
10102.280851	4245.050000	665.718750	-32.862087
10102.280851	4245.050000	664.500977	60.006912
10102.280851	4245.050000	663.282227	91.426826
10102.280851	4245.050000	662.063477	152.342316
10102.280851	4245.050000	660.844727	151.847977
10102.280851	4245.050000	659.625000	137.687637
10102.280851	4245.050000	658.405273	39.462334
10102.280851	4245.050000	657.185547	20.718302
10102.280851	4245.050000	655.965820	49.620937
10102.280851	4245.050000	654.745117	298.641541
10102.280851	4245.050000	653.525391	-8.453428
10102.280851	4245.050000	652.303711	-43.201546
10102.280851	4245.050000	651.083008	130.716278
10102.280851	4245.050000	649.861328	93.612282
10102.280851	4245.050000	648.640625	79.162354
10102.280851	4245.050000	647.417969	148.553207
10102.280851	4245.050000	646.196289	140.821579
10102.280851	4245.050000	644.973633	-32.359188
10102.280851	4245.050000	643.750977	-74.107864
10102.280851	4245.050000	642.528320	-32.072491
10102.280851	4245.050000	641.305664	-91.994331
10102.280851	4245.050000	640.082031	-47.785675
10102.280851	4245.050000	638.858398	224.983170
10102.280851	4245.050000	637.634766	-18.377783
10102.280851	4245.050000	636.410156	-53.518192
10102.280851	4245.050000	635.185547	24.422890
10102.280851	4245.050000	633.960938	-10.787960
10102.280851	4245.050000	632.736328	24.073357
10102.280851	4245.050000	631.510742	-47.371422
10102.280851	4245.050000	630.285156	177.259796
10102.280851	4245.050000	629.059570	31.166718
10102.280851	4245.050000	627.833984	-126.199478
10102.280851	4245.050000	626.607422	3.321914
10102.280851	4245.050000	625.380859	112.425148
10102.280851	4245.050000	624.154297	187.577530
10102.280851	4245.050000	622.927734	-14.989440
10102.280851	4245.050000	621.700195	-48.248459
10102.280851	4245.050000	620.472656	22.260502
10102.280851	4245.050000	619.245117	4.722066
10102.280851	4245.050000	618.016602	-44.424885
10102.280851	4245.050000	616.788086	-75.549316
10102.280851	4245.050000	615.559570	-97.681435
10102.280851	4245.050000	614.331055	17.649561
10102.280851	4245.050000	613.101563	-87.949562
10102.280851	4245.050000	611.872070	-96.663063
10102.280851	4245.050000	610.642578	-24.319933
10102.280851	4245.050000	609.413086	-46.630981
10102.280851	4245.050000	608.182617	0.826384
10102.280851	4245.050000	606.952148	-84.588486
10102.280851	4245.050000	605.721680	-97.984810
10102.280851	4245.050000	604.491211	-201.418121
10102.280851	4245.050000	603.259766	-64.134338
10102.280851	4245.050000	602.028320	30.319778
10102.280851	4245.050000	600.796875	61.732979
10102.280851	4245.050000	599.564453	39.137096
10102.280851	4245.050000	598.332031	108.671036
10102.280851	4245.050000	597.099609	65.775917
10102.280851	4245.050000	595.867188	7.135544
10102.280851	4245.050000	594.633789	49.565369
10102.280851	4245.050000	593.400391	-29.333654
10102.280851	4245.050000	592.166992	13.014396
10102.280851	4245.050000	590.933594	10.411033
10102.280851	4245.050000	589.699219	50.414799
10102.280851	4245.050000	588.464844	-46.512367
10102.280851	4245.050000	587.230469	-98.564049
10102.280851	4245.050000	585.995117	64.692757
10102.280851	4245.050000	584.760742	26.025673
10102.280851	4245.050000	583.525391	99.438110
10102.280851	4245.050000	582.289063	-58.093624
10102.280851	4245.050000	581.053711	-38.546371
10102.280851	4245.050000	579.817383	-126.590675
10102.280851	4245.050000	578.581055	0.417814
10102.280851	4245.050000	577.343750	13.116559
10102.280851	4245.050000	576.107422	50.411770
10102.280851	4245.050000	574.870117	208.542908
10102.280851	4245.050000	573.631836	171.851059
10102.280851	4245.050000	572.394531	43.400818
10102.280851	4245.050000	571.156250	170.014511
10102.280851	4245.050000	569.917969	95.236618
10102.280851	4245.050000	568.679688	0.334599
10102.280851	4245.050000	567.440430	167.027344
10102.280851	4245.050000	566.202148	208.444656
10102.280851	4245.050000	564.961914	-27.309891
10102.280851	4245.050000	563.722656	154.835251
10102.280851	4245.050000	562.482422	-25.017073
10102.280851	4245.050000	561.243164	197.194748
10102.280851	4245.050000	560.001953	30.748903
10102.280851	4245.050000	558.761719	-86.535240
10102.280851	4245.050000	557.520508	-5.154103
10102.280851	4245.050000	556.279297	-13.093670
10102.280851	4245.050000	555.038086	110.574242
10102.280851	4245.050000	553.795898	-58.040009
10102.280851	4245.050000	552.554688	-52.658691
10102.280851	4245.050000	551.311523	84.234818
10102.280851	4245.050000	550.069336	131.884598
10102.280851	4245.050000	548.826172	-12.174692
10102.280851	4245.050000	547.583984	-20.274555
10102.280851	4245.050000	546.339844	-121.963005
10102.280851	4245.050000	545.096680	-18.724239
10102.280851	4245.050000	543.852539	-151.587219
10102.280851	4245.050000	542.608398	51.748432
10102.280851	4245.050000	541.364258	-25.469709
10102.280851	4245.050000	540.119141	-91.552803
10102.280851	4245.050000	538.875000	-102.002510
10102.280851	4245.050000	537.628906	14.312552
10102.280851	4245.050000	536.383789	-49.569511
10102.280851	4245.050000	535.137695	-129.009872
10102.280851	4245.050000	533.892578	140.566589
10102.280851	4245.050000	532.645508	-43.372963
10102.280851	4245.050000	531.399414	3.836198
10102.280851	4245.050000	530.152344	53.227345
10102.280851	4245.050000	528.905273	122.570747
10102.280851	4245.050000	527.658203	-7.977816
10102.280851	4245.050000	526.410156	76.855354
10102.280851	4245.050000	525.163086	30.687498
10102.280851	4245.050000	523.914063	128.760010
10102.280851	4245.050000	522.666016	113.630852
10102.280851	4245.050000	521.416992	14.202806
10102.280851	4245.050000	520.167969	154.313080
10102.280851	4245.050000	518.918945	21.637463
10102.280851	4245.050000	517.669922	192.697449
10102.280851	4245.050000	516.419922	97.720757
10102.280851	4245.050000	515.169922	115.778961
10102.280851	4245.050000	513.919922	40.777351
10102.280851	4245.050000	512.668945	-27.560318
10102.280851	4245.050000	511.417969	132.198883
10102.280851	4245.050000	510.166992	101.489502
10102.280851	4245.050000	508.916016	15.450654
10102.280851	4245.050000	507.664063	188.348053
10102.280851	4245.050000	506.412109	40.361691
10102.280851	4245.050000	505.160156	33.996868
10102.280851	4245.050000	503.907227	25.413786
10102.280851	4245.050000	502.655273	-58.341492
10102.280851	4245.050000	501.402344	-18.280546
10102.280851	4245.050000	500.148438	-2.555837
10102.280851	4245.050000	498.895508	-121.623283
10102.280851	4245.050000	497.641602	37.699337
10102.280851	4245.050000	496.387695	79.892220
10102.280851	4245.050000	495.132813	-134.086197
10102.280851	4245.050000	493.878906	27.333525
10102.280851	4245.050000	492.624023	-93.845200
10102.280851	4245.050000	491.368164	-111.262230
10102.280851	4245.050000	490.113281	-33.801811
10102.280851	4245.050000	488.857422	1.709846
10102.280851	4245.050000	487.601563	-4.696884
10102.280851	4245.050000	486.344727	48.424099
10102.280851	4245.050000	485.088867	119.158676
10102.280851	4245.050000	483.832031	6.935931
10102.280851	4245.050000	482.575195	-25.917475
10102.280851	4245.050000	481.317383	46.978554
10102.280851	4245.050000	480.059570	66.982857
10102.280851	4245.050000	478.801758	-16.515369
10102.280851	4245.050000	477.543945	80.544441
10102.280851	4245.050000	476.285156	76.309845
10102.280851	4245.050000	475.027344	58.876270
10102.280851	4245.050000	473.767578	34.841152
10102.280851	4245.050000	472.508789	153.792404
10102.280851	4245.050000	471.249023	193.518707
10102.280851	4245.050000	469.989258	-78.982712
10102.280851	4245.050000	468.729492	2.538451
10102.280851	4245.050000	467.469727	70.835342
10102.280851	4245.050000	466.208984	75.377029
10102.280851	4245.050000	464.948242	16.207985
10102.280851	4245.050000	463.686523	220.611160
10102.280851	4245.050000	462.425781	174.603943
10102.280851	4245.050000	461.164063	82.506935
10102.280851	4245.050000	459.901367	133.106720
10102.280851	4245.050000	458.639648	-5.033516
10102.280851	4245.050000	457.376953	144.278229
10102.280851	4245.050000	456.114258	96.109558
10102.280851	4245.050000	454.851563	58.919720
10102.280851	4245.050000	453.587891	243.174866
10102.280851	4245.050000	452.324219	83.195839
10102.280851	4245.050000	451.060547	267.347992
10102.280851	4245.050000	449.796875	429.499542
10102.280851	4245.050000	448.532227	400.983582
10102.280851	4245.050000	447.267578	225.729630
10102.280851	4245.050000	446.002930	258.553955
10102.280851	4245.050000	444.737305	304.479889
10102.280851	4245.050000	443.471680	356.936249
10102.280851	4245.050000	442.206055	295.564850
10102.280851	4245.050000	440.940430	238.576675
10102.280851	4245.050000	439.673828	284.390747
10102.280851	4245.050000	438.407227	268.932709
10102.280851	4245.050000	437.140625	360.587738
10102.280851	4245.050000	435.873047	476.218811
10102.280851	4245.050000	434.605469	473.761749
10102.280851	4245.050000	433.337891	421.024261
10102.280851	4245.050000	432.070313	481.869659
10102.280851	4245.050000	430.801758	603.802673
10102.280851	4245.050000	429.533203	546.602051
10102.280851	4245.050000	428.264648	502.486847
10102.280851	4245.050000	426.996094	425.613464
10102.280851	4245.050000	425.726563	527.657471
10102.280851	4245.050000	424.457031	472.537598
10102.280851	4245.050000	423.186523	421.752838
10102.280851	4245.050000	421.916992	386.209351
10102.280851	4245.050000	420.646484	317.922333
10102.280851	4245.050000	419.375977	291.023926
10102.280851	4245.050000	418.104492	242.282181
10102.280851	4245.050000	416.833008	160.818436
10102.280851	4245.050000	415.561523	168.635849
10102.280851	4245.050000	414.290039	280.916656
10102.280851	4245.050000	413.017578	29.456547
10102.280851	4245.050000	411.746094	156.810410
10102.280851	4245.050000	410.472656	48.969906
10102.280851	4245.050000	409.200195	136.931503
10102.280851	4245.050000	407.926758	107.289215
10102.280851	4245.050000	406.653320	108.018303
10102.280851	4245.050000	405.379883	123.873825
10102.280851	4245.050000	404.105469	-51.697533
10102.280851	4245.050000	402.831055	-107.750534
10102.280851	4245.050000	401.556641	20.824949
10102.280851	4245.050000	400.282227	75.361542
10102.280851	4245.050000	399.006836	62.414387
10102.280851	4245.050000	397.731445	101.468956
10102.280851	4245.050000	396.456055	-189.646484
10102.280851	4245.050000	395.179688	-113.921021
10102.280851	4245.050000	393.903320	96.187256
10102.280851	4245.050000	392.626953	17.475842
10102.280851	4245.050000	391.350586	16.742073
10102.280851	4245.050000	390.073242	-1.506710
10102.280851	4245.050000	388.795898	101.516739
10102.280851	4245.050000	387.518555	160.965668
10102.280851	4245.050000	386.240234	66.316689
10102.280851	4245.050000	384.961914	170.884201
10102.280851	4245.050000	383.683594	30.400484
10102.280851	4245.050000	382.405273	56.561954
10102.280851	4245.050000	381.125977	153.961060
10102.280851	4245.050000	379.846680	-13.036781
10102.280851	4245.050000	378.567383	-24.333397
10102.280851	4245.050000	377.287109	37.717686
10102.280851	4245.050000	376.006836	4.300098
10102.280851	4245.050000	374.726563	52.850700
10102.280851	4245.050000	373.446289	-164.891602
10102.280851	4245.050000	372.165039	250.726776
10102.280851	4245.050000	370.883789	60.589020
10102.280851	4245.050000	369.602539	-289.688293
10102.280851	4245.050000	368.320313	79.444092
10102.280851	4245.050000	367.039063	91.658234
10102.280851	4245.050000	365.755859	-47.659981
10102.280851	4245.050000	364.473633	-14.479877
10102.280851	4245.050000	363.190430	-152.218582
10102.280851	4245.050000	361.907227	46.478985
10102.280851	4245.050000	360.624023	-102.711327
10102.280851	4245.050000	359.340820	26.117037
10102.280851	4245.050000	358.056641	-18.071945
10102.280851	4245.050000	356.772461	-125.178635
10102.280851	4245.050000	355.487305	-14.888670
10102.280851	4245.050000	354.202148	120.799896
10102.280851	4245.050000	352.916992	83.578278
10102.280851	4245.050000	351.631836	166.590027
10102.280851	4245.050000	350.346680	46.603386
10102.280851	4245.050000	349.060547	-71.666206
10102.280851	4245.050000	347.774414	-0.882756
10102.280851	4245.050000	346.487305	-18.916727
10102.280851	4245.050000	345.200195	-33.159630
10102.280851	4245.050000	343.913086	134.980316
10102.280851	4245.050000	342.625977	141.136063
10102.280851	4245.050000	341.338867	133.814743
10102.280851	4245.050000	340.050781	95.788551
10102.280851	4245.050000	338.762695	117.377159
10102.280851	4245.050000	337.473633	95.328644
10102.280851	4245.050000	336.184570	162.913452
10102.280851	4245.050000	334.895508	270.636353
10102.280851	4245.050000	333.606445	280.969971
10102.280851	4245.050000	332.317383	299.197601
10102.280851	4245.050000	331.027344	76.194687
10102.280851	4245.050000	329.736328	-1.483510
10102.280851	4245.050000	328.446289	-56.253132
10102.280851	4245.050000	327.155273	-23.815189
10102.280851	4245.050000	325.864258	-67.274422
10102.280851	4245.050000	324.573242	64.348183
10102.280851	4245.050000	323.281250	70.675827
10102.280851	4245.050000	321.989258	43.979183
10102.280851	4245.050000	320.697266	-52.182072
10102.280851	4245.050000	319.405273	39.374321
10102.280851	4245.050000	318.112305	-131.455627
10102.280851	4245.050000	316.819336	-114.667152
10102.280851	4245.050000	315.526367	31.769190
10102.280851	4245.050000	314.232422	-66.982811
10102.280851	4245.050000	312.938477	-89.662895
10102.280851	4245.050000	311.644531	233.319351
10102.280851	4245.050000	310.349609	26.528067
10102.280851	4245.050000	309.054688	2.687104
10102.280851	4245.050000	307.759766	88.929222
10102.280851	4245.050000	306.464844	180.375900
10102.280851	4245.050000	305.168945	306.890350
10102.280851	4245.050000	303.873047	164.941666
10102.280851	4245.050000	302.577148	209.841019
10102.280851	4245.050000	301.281250	281.200806
10102.280851	4245.050000	299.984375	131.159348
