#X		#Y		#Wave		#Intensity
649.998936	6047.948333	1999.946289	-165.092575
649.998936	6047.948333	1998.981445	54.993149
649.998936	6047.948333	1998.017578	57.999092
649.998936	6047.948333	1997.052734	137.811951
649.998936	6047.948333	1996.088867	-2.925938
649.998936	6047.948333	1995.124023	-64.352882
649.998936	6047.948333	1994.159180	12.930643
649.998936	6047.948333	1993.193359	-21.255175
649.998936	6047.948333	1992.228516	-10.871045
649.998936	6047.948333	1991.262695	51.485046
649.998936	6047.948333	1990.296875	-39.631680
649.998936	6047.948333	1989.331055	44.966167
649.998936	6047.948333	1988.365234	174.060181
649.998936	6047.948333	1987.398438	48.329739
649.998936	6047.948333	1986.432617	-13.056108
649.998936	6047.948333	1985.465820	22.010504
649.998936	6047.948333	1984.499023	-51.711231
649.998936	6047.948333	1983.532227	27.838474
649.998936	6047.948333	1982.565430	-60.683937
649.998936	6047.948333	1981.597656	107.786980
649.998936	6047.948333	1980.629883	81.042542
649.998936	6047.948333	1979.662109	-79.061668
649.998936	6047.948333	1978.694336	-78.592430
649.998936	6047.948333	1977.726563	99.643181
649.998936	6047.948333	1976.758789	-62.832798
649.998936	6047.948333	1975.790039	-104.311493
649.998936	6047.948333	1974.821289	-61.872826
649.998936	6047.948333	1973.852539	-12.042700
649.998936	6047.948333	1972.883789	45.174454
649.998936	6047.948333	1971.915039	-15.999249
649.998936	6047.948333	1970.945313	65.867653
649.998936	6047.948333	1969.975586	91.010513
649.998936	6047.948333	1969.005859	22.488800
649.998936	6047.948333	1968.036133	-85.429085
649.998936	6047.948333	1967.066406	80.194206
649.998936	6047.948333	1966.096680	36.372162
649.998936	6047.948333	1965.125977	78.778854
649.998936	6047.948333	1964.155273	76.854080
649.998936	6047.948333	1963.184570	-1.384334
649.998936	6047.948333	1962.213867	-163.278442
649.998936	6047.948333	1961.242188	-24.843157
649.998936	6047.948333	1960.271484	111.091164
649.998936	6047.948333	1959.299805	-45.783394
649.998936	6047.948333	1958.328125	-57.461777
649.998936	6047.948333	1957.356445	12.031748
649.998936	6047.948333	1956.384766	101.181686
649.998936	6047.948333	1955.412109	-30.947313
649.998936	6047.948333	1954.439453	77.862572
649.998936	6047.948333	1953.467773	105.546394
649.998936	6047.948333	1952.495117	-82.987892
649.998936	6047.948333	1951.521484	72.479546
649.998936	6047.948333	1950.548828	144.392365
649.998936	6047.948333	1949.575195	29.659534
649.998936	6047.948333	1948.601563	-6.452450
649.998936	6047.948333	1947.627930	-135.820053
649.998936	6047.948333	1946.654297	14.661209
649.998936	6047.948333	1945.680664	123.382416
649.998936	6047.948333	1944.706055	-8.356466
649.998936	6047.948333	1943.732422	-51.729214
649.998936	6047.948333	1942.757813	-131.862442
649.998936	6047.948333	1941.783203	-138.394119
649.998936	6047.948333	1940.807617	-54.204933
649.998936	6047.948333	1939.833008	78.986252
649.998936	6047.948333	1938.857422	35.692532
649.998936	6047.948333	1937.881836	-27.175823
649.998936	6047.948333	1936.906250	44.724812
649.998936	6047.948333	1935.930664	57.826408
649.998936	6047.948333	1934.955078	-24.569420
649.998936	6047.948333	1933.978516	47.321659
649.998936	6047.948333	1933.001953	13.936176
649.998936	6047.948333	1932.025391	63.786648
649.998936	6047.948333	1931.048828	120.968575
649.998936	6047.948333	1930.072266	234.409500
649.998936	6047.948333	1929.094727	-9.309872
649.998936	6047.948333	1928.118164	99.240181
649.998936	6047.948333	1927.140625	63.493286
649.998936	6047.948333	1926.163086	59.550392
649.998936	6047.948333	1925.184570	-61.707481
649.998936	6047.948333	1924.207031	24.811377
649.998936	6047.948333	1923.228516	99.088486
649.998936	6047.948333	1922.250000	53.644642
649.998936	6047.948333	1921.271484	-23.526768
649.998936	6047.948333	1920.292969	18.994862
649.998936	6047.948333	1919.314453	-11.738514
649.998936	6047.948333	1918.334961	150.389969
649.998936	6047.948333	1917.355469	-51.185875
649.998936	6047.948333	1916.375977	86.499954
649.998936	6047.948333	1915.396484	104.595078
649.998936	6047.948333	1914.416992	-57.814880
649.998936	6047.948333	1913.436523	118.831764
649.998936	6047.948333	1912.457031	-77.647949
649.998936	6047.948333	1911.476563	-3.445259
649.998936	6047.948333	1910.496094	-99.886208
649.998936	6047.948333	1909.515625	91.274963
649.998936	6047.948333	1908.534180	50.898743
649.998936	6047.948333	1907.552734	71.442284
649.998936	6047.948333	1906.572266	45.704021
649.998936	6047.948333	1905.590820	29.718307
649.998936	6047.948333	1904.608398	-13.041103
649.998936	6047.948333	1903.626953	78.099174
649.998936	6047.948333	1902.644531	8.577308
649.998936	6047.948333	1901.663086	4.781999
649.998936	6047.948333	1900.680664	-130.387161
649.998936	6047.948333	1899.698242	-27.128361
649.998936	6047.948333	1898.714844	-116.034233
649.998936	6047.948333	1897.732422	6.633024
649.998936	6047.948333	1896.749023	10.131879
649.998936	6047.948333	1895.765625	-71.442894
649.998936	6047.948333	1894.782227	189.660248
649.998936	6047.948333	1893.798828	-139.750992
649.998936	6047.948333	1892.814453	-12.345942
649.998936	6047.948333	1891.831055	-6.430734
649.998936	6047.948333	1890.846680	-168.076050
649.998936	6047.948333	1889.862305	-79.594810
649.998936	6047.948333	1888.877930	37.978367
649.998936	6047.948333	1887.892578	-164.856918
649.998936	6047.948333	1886.908203	30.325155
649.998936	6047.948333	1885.922852	128.386978
649.998936	6047.948333	1884.937500	-45.262207
649.998936	6047.948333	1883.952148	86.715546
649.998936	6047.948333	1882.965820	39.209450
649.998936	6047.948333	1881.980469	122.622437
649.998936	6047.948333	1880.994141	77.535080
649.998936	6047.948333	1880.007813	44.573452
649.998936	6047.948333	1879.021484	171.524719
649.998936	6047.948333	1878.035156	-130.349823
649.998936	6047.948333	1877.047852	-15.542370
649.998936	6047.948333	1876.061523	-70.293930
649.998936	6047.948333	1875.074219	213.912491
649.998936	6047.948333	1874.086914	-22.428823
649.998936	6047.948333	1873.098633	-26.358942
649.998936	6047.948333	1872.111328	-42.397594
649.998936	6047.948333	1871.123047	125.420364
649.998936	6047.948333	1870.135742	22.257395
649.998936	6047.948333	1869.147461	-107.481956
649.998936	6047.948333	1868.158203	-200.918243
649.998936	6047.948333	1867.169922	-38.085258
649.998936	6047.948333	1866.180664	27.992796
649.998936	6047.948333	1865.192383	-5.046411
649.998936	6047.948333	1864.203125	114.123436
649.998936	6047.948333	1863.213867	-80.797195
649.998936	6047.948333	1862.223633	11.743280
649.998936	6047.948333	1861.234375	48.694668
649.998936	6047.948333	1860.244141	-32.684216
649.998936	6047.948333	1859.253906	6.640178
649.998936	6047.948333	1858.263672	149.706512
649.998936	6047.948333	1857.273438	17.630112
649.998936	6047.948333	1856.282227	-61.342232
649.998936	6047.948333	1855.291992	4.416271
649.998936	6047.948333	1854.300781	-144.496887
649.998936	6047.948333	1853.309570	-6.454797
649.998936	6047.948333	1852.317383	35.089584
649.998936	6047.948333	1851.326172	69.367203
649.998936	6047.948333	1850.333984	110.839661
649.998936	6047.948333	1849.342773	-18.783007
649.998936	6047.948333	1848.350586	-13.485555
649.998936	6047.948333	1847.357422	35.137829
649.998936	6047.948333	1846.365234	11.483355
649.998936	6047.948333	1845.372070	57.630596
649.998936	6047.948333	1844.379883	96.516380
649.998936	6047.948333	1843.386719	-11.436530
649.998936	6047.948333	1842.393555	-54.408573
649.998936	6047.948333	1841.399414	107.090919
649.998936	6047.948333	1840.406250	-137.973190
649.998936	6047.948333	1839.412109	-19.854607
649.998936	6047.948333	1838.417969	-29.233633
649.998936	6047.948333	1837.423828	-115.557884
649.998936	6047.948333	1836.429688	-129.774460
649.998936	6047.948333	1835.434570	77.056870
649.998936	6047.948333	1834.440430	206.904709
649.998936	6047.948333	1833.445313	223.779755
649.998936	6047.948333	1832.450195	79.714714
649.998936	6047.948333	1831.454102	-35.511364
649.998936	6047.948333	1830.458984	98.948753
649.998936	6047.948333	1829.462891	-73.900299
649.998936	6047.948333	1828.466797	139.650101
649.998936	6047.948333	1827.470703	19.585039
649.998936	6047.948333	1826.474609	103.439354
649.998936	6047.948333	1825.478516	45.725468
649.998936	6047.948333	1824.481445	43.155331
649.998936	6047.948333	1823.484375	148.443130
649.998936	6047.948333	1822.487305	-67.545212
649.998936	6047.948333	1821.490234	179.061142
649.998936	6047.948333	1820.493164	58.931843
649.998936	6047.948333	1819.495117	245.464767
649.998936	6047.948333	1818.498047	12.727610
649.998936	6047.948333	1817.500000	136.869385
649.998936	6047.948333	1816.500977	66.988892
649.998936	6047.948333	1815.502930	241.279510
649.998936	6047.948333	1814.504883	149.799713
649.998936	6047.948333	1813.505859	173.183075
649.998936	6047.948333	1812.506836	19.476160
649.998936	6047.948333	1811.507813	198.293030
649.998936	6047.948333	1810.508789	68.487930
649.998936	6047.948333	1809.508789	168.249023
649.998936	6047.948333	1808.508789	165.136215
649.998936	6047.948333	1807.508789	-7.719352
649.998936	6047.948333	1806.508789	60.827156
649.998936	6047.948333	1805.508789	69.578278
649.998936	6047.948333	1804.508789	161.902969
649.998936	6047.948333	1803.507813	-106.503479
649.998936	6047.948333	1802.506836	59.774540
649.998936	6047.948333	1801.505859	101.800346
649.998936	6047.948333	1800.504883	-56.743618
649.998936	6047.948333	1799.502930	25.787043
649.998936	6047.948333	1798.501953	151.203140
649.998936	6047.948333	1797.500000	95.215958
649.998936	6047.948333	1796.498047	-139.685913
649.998936	6047.948333	1795.496094	145.363129
649.998936	6047.948333	1794.493164	46.375484
649.998936	6047.948333	1793.491211	90.426994
649.998936	6047.948333	1792.488281	86.752525
649.998936	6047.948333	1791.485352	195.044510
649.998936	6047.948333	1790.482422	-1.714727
649.998936	6047.948333	1789.478516	196.996323
649.998936	6047.948333	1788.475586	71.686028
649.998936	6047.948333	1787.471680	-48.855419
649.998936	6047.948333	1786.467773	28.216488
649.998936	6047.948333	1785.463867	188.532516
649.998936	6047.948333	1784.459961	32.223934
649.998936	6047.948333	1783.455078	-45.545326
649.998936	6047.948333	1782.450195	38.447311
649.998936	6047.948333	1781.445313	-13.207880
649.998936	6047.948333	1780.440430	49.266392
649.998936	6047.948333	1779.435547	190.139603
649.998936	6047.948333	1778.429688	119.347984
649.998936	6047.948333	1777.424805	-41.769173
649.998936	6047.948333	1776.418945	132.188446
649.998936	6047.948333	1775.413086	37.572128
649.998936	6047.948333	1774.406250	52.216911
649.998936	6047.948333	1773.400391	76.318840
649.998936	6047.948333	1772.393555	62.378059
649.998936	6047.948333	1771.386719	-3.825747
649.998936	6047.948333	1770.379883	5.910543
649.998936	6047.948333	1769.373047	108.155296
649.998936	6047.948333	1768.365234	-17.458303
649.998936	6047.948333	1767.358398	65.695465
649.998936	6047.948333	1766.350586	61.018681
649.998936	6047.948333	1765.342773	32.591084
649.998936	6047.948333	1764.334961	87.115341
649.998936	6047.948333	1763.326172	-81.243286
649.998936	6047.948333	1762.318359	120.140823
649.998936	6047.948333	1761.309570	110.518044
649.998936	6047.948333	1760.300781	174.300842
649.998936	6047.948333	1759.291016	-65.166924
649.998936	6047.948333	1758.282227	62.486275
649.998936	6047.948333	1757.272461	-13.575397
649.998936	6047.948333	1756.262695	-49.404137
649.998936	6047.948333	1755.252930	18.880995
649.998936	6047.948333	1754.243164	-78.544136
649.998936	6047.948333	1753.233398	-55.310295
649.998936	6047.948333	1752.222656	126.358269
649.998936	6047.948333	1751.211914	-37.373634
649.998936	6047.948333	1750.201172	37.739212
649.998936	6047.948333	1749.190430	112.783836
649.998936	6047.948333	1748.179688	60.123650
649.998936	6047.948333	1747.167969	2.714900
649.998936	6047.948333	1746.156250	-33.446339
649.998936	6047.948333	1745.144531	48.483326
649.998936	6047.948333	1744.132813	-6.644400
649.998936	6047.948333	1743.121094	79.894745
649.998936	6047.948333	1742.108398	-159.453384
649.998936	6047.948333	1741.095703	-35.229618
649.998936	6047.948333	1740.083008	-3.134002
649.998936	6047.948333	1739.070313	-155.137558
649.998936	6047.948333	1738.057617	20.802359
649.998936	6047.948333	1737.043945	24.447382
649.998936	6047.948333	1736.030273	65.786163
649.998936	6047.948333	1735.016602	22.190474
649.998936	6047.948333	1734.002930	70.511566
649.998936	6047.948333	1732.989258	12.716445
649.998936	6047.948333	1731.974609	-127.573547
649.998936	6047.948333	1730.959961	-20.466249
649.998936	6047.948333	1729.945313	-50.058125
649.998936	6047.948333	1728.930664	9.819007
649.998936	6047.948333	1727.916016	194.434402
649.998936	6047.948333	1726.900391	87.017189
649.998936	6047.948333	1725.885742	-27.451281
649.998936	6047.948333	1724.870117	-78.376770
649.998936	6047.948333	1723.853516	51.847294
649.998936	6047.948333	1722.837891	43.199070
649.998936	6047.948333	1721.822266	-139.524979
649.998936	6047.948333	1720.805664	-94.122276
649.998936	6047.948333	1719.789063	-18.207556
649.998936	6047.948333	1718.772461	69.397171
649.998936	6047.948333	1717.754883	84.075081
649.998936	6047.948333	1716.738281	7.079619
649.998936	6047.948333	1715.720703	21.696882
649.998936	6047.948333	1714.703125	45.670200
649.998936	6047.948333	1713.685547	-134.705215
649.998936	6047.948333	1712.667969	6.618751
649.998936	6047.948333	1711.649414	159.589111
649.998936	6047.948333	1710.630859	-107.645889
649.998936	6047.948333	1709.612305	-201.164566
649.998936	6047.948333	1708.593750	15.007011
649.998936	6047.948333	1707.575195	26.992195
649.998936	6047.948333	1706.555664	-174.476990
649.998936	6047.948333	1705.536133	-33.565098
649.998936	6047.948333	1704.516602	-21.674667
649.998936	6047.948333	1703.497070	81.592094
649.998936	6047.948333	1702.477539	-30.804541
649.998936	6047.948333	1701.457031	-11.986647
649.998936	6047.948333	1700.437500	-33.023067
649.998936	6047.948333	1699.416992	168.410538
649.998936	6047.948333	1698.395508	-89.222694
649.998936	6047.948333	1697.375000	-171.192596
649.998936	6047.948333	1696.354492	177.531525
649.998936	6047.948333	1695.333008	-0.469869
649.998936	6047.948333	1694.311523	27.472931
649.998936	6047.948333	1693.290039	85.790459
649.998936	6047.948333	1692.267578	-52.415428
649.998936	6047.948333	1691.246094	-10.527071
649.998936	6047.948333	1690.223633	-90.263016
649.998936	6047.948333	1689.201172	-20.389910
649.998936	6047.948333	1688.178711	-93.132484
649.998936	6047.948333	1687.155273	-49.044746
649.998936	6047.948333	1686.132813	-37.699226
649.998936	6047.948333	1685.109375	-52.081753
649.998936	6047.948333	1684.085938	-145.882690
649.998936	6047.948333	1683.062500	61.526279
649.998936	6047.948333	1682.039063	-74.326134
649.998936	6047.948333	1681.014648	-128.466202
649.998936	6047.948333	1679.990234	78.746368
649.998936	6047.948333	1678.965820	17.554657
649.998936	6047.948333	1677.941406	-6.313398
649.998936	6047.948333	1676.916992	144.719269
649.998936	6047.948333	1675.891602	48.505692
649.998936	6047.948333	1674.866211	89.853287
649.998936	6047.948333	1673.840820	21.616453
649.998936	6047.948333	1672.815430	-41.952435
649.998936	6047.948333	1671.790039	92.526917
649.998936	6047.948333	1670.763672	17.277605
649.998936	6047.948333	1669.737305	16.567577
649.998936	6047.948333	1668.710938	50.768833
649.998936	6047.948333	1667.684570	178.063919
649.998936	6047.948333	1666.658203	121.406395
649.998936	6047.948333	1665.630859	106.638451
649.998936	6047.948333	1664.603516	103.493912
649.998936	6047.948333	1663.576172	84.050369
649.998936	6047.948333	1662.548828	18.081696
649.998936	6047.948333	1661.520508	59.087261
649.998936	6047.948333	1660.493164	146.567657
649.998936	6047.948333	1659.464844	120.092499
649.998936	6047.948333	1658.436523	184.252136
649.998936	6047.948333	1657.408203	227.462051
649.998936	6047.948333	1656.378906	207.910065
649.998936	6047.948333	1655.350586	216.231644
649.998936	6047.948333	1654.321289	245.433792
649.998936	6047.948333	1653.291992	330.336456
649.998936	6047.948333	1652.261719	15.910572
649.998936	6047.948333	1651.232422	144.900116
649.998936	6047.948333	1650.202148	51.058140
649.998936	6047.948333	1649.171875	31.482899
649.998936	6047.948333	1648.141602	269.380920
649.998936	6047.948333	1647.111328	182.497772
649.998936	6047.948333	1646.080078	404.020233
649.998936	6047.948333	1645.049805	497.952087
649.998936	6047.948333	1644.018555	482.896912
649.998936	6047.948333	1642.987305	263.914948
649.998936	6047.948333	1641.955078	260.475189
649.998936	6047.948333	1640.923828	298.733795
649.998936	6047.948333	1639.891602	408.762085
649.998936	6047.948333	1638.859375	333.498230
649.998936	6047.948333	1637.827148	508.289398
649.998936	6047.948333	1636.794922	435.341125
649.998936	6047.948333	1635.761719	552.175171
649.998936	6047.948333	1634.729492	530.141968
649.998936	6047.948333	1633.696289	410.949677
649.998936	6047.948333	1632.662109	712.735352
649.998936	6047.948333	1631.628906	600.486389
649.998936	6047.948333	1630.594727	610.807129
649.998936	6047.948333	1629.561523	678.917419
649.998936	6047.948333	1628.527344	569.042725
649.998936	6047.948333	1627.493164	595.536377
649.998936	6047.948333	1626.458008	598.912231
649.998936	6047.948333	1625.423828	590.745483
649.998936	6047.948333	1624.388672	356.269562
649.998936	6047.948333	1623.353516	611.356201
649.998936	6047.948333	1622.318359	522.398499
649.998936	6047.948333	1621.282227	588.101807
649.998936	6047.948333	1620.247070	464.577332
649.998936	6047.948333	1619.210938	518.739258
649.998936	6047.948333	1618.174805	727.425110
649.998936	6047.948333	1617.137695	735.394958
649.998936	6047.948333	1616.101563	711.093018
649.998936	6047.948333	1615.064453	493.162018
649.998936	6047.948333	1614.027344	644.085999
649.998936	6047.948333	1612.990234	562.220825
649.998936	6047.948333	1611.953125	719.997742
649.998936	6047.948333	1610.916016	771.763794
649.998936	6047.948333	1609.877930	742.906189
649.998936	6047.948333	1608.839844	707.161743
649.998936	6047.948333	1607.801758	719.783875
649.998936	6047.948333	1606.763672	718.600220
649.998936	6047.948333	1605.724609	793.360168
649.998936	6047.948333	1604.685547	755.365173
649.998936	6047.948333	1603.646484	802.507141
649.998936	6047.948333	1602.607422	718.550354
649.998936	6047.948333	1601.568359	813.991211
649.998936	6047.948333	1600.528320	755.372375
649.998936	6047.948333	1599.489258	802.525146
649.998936	6047.948333	1598.449219	900.224609
649.998936	6047.948333	1597.408203	800.300293
649.998936	6047.948333	1596.368164	647.600220
649.998936	6047.948333	1595.327148	692.485352
649.998936	6047.948333	1594.287109	686.855408
649.998936	6047.948333	1593.246094	777.662109
649.998936	6047.948333	1592.204102	928.121948
649.998936	6047.948333	1591.163086	761.849243
649.998936	6047.948333	1590.121094	641.541077
649.998936	6047.948333	1589.079102	711.700684
649.998936	6047.948333	1588.037109	729.098999
649.998936	6047.948333	1586.995117	615.801941
649.998936	6047.948333	1585.953125	575.932007
649.998936	6047.948333	1584.910156	600.274170
649.998936	6047.948333	1583.867188	794.217163
649.998936	6047.948333	1582.824219	722.311401
649.998936	6047.948333	1581.781250	567.983887
649.998936	6047.948333	1580.737305	539.705322
649.998936	6047.948333	1579.693359	559.548035
649.998936	6047.948333	1578.649414	464.929413
649.998936	6047.948333	1577.605469	484.824524
649.998936	6047.948333	1576.561523	577.970154
649.998936	6047.948333	1575.516602	472.026337
649.998936	6047.948333	1574.472656	704.737732
649.998936	6047.948333	1573.427734	409.013916
649.998936	6047.948333	1572.381836	445.016571
649.998936	6047.948333	1571.336914	542.767395
649.998936	6047.948333	1570.291016	606.212402
649.998936	6047.948333	1569.246094	502.822418
649.998936	6047.948333	1568.200195	614.287598
649.998936	6047.948333	1567.153320	424.165131
649.998936	6047.948333	1566.107422	508.246918
649.998936	6047.948333	1565.060547	587.751709
649.998936	6047.948333	1564.013672	731.183960
649.998936	6047.948333	1562.966797	575.541321
649.998936	6047.948333	1561.919922	486.177521
649.998936	6047.948333	1560.872070	469.893768
649.998936	6047.948333	1559.825195	563.162292
649.998936	6047.948333	1558.777344	524.120117
649.998936	6047.948333	1557.729492	464.598724
649.998936	6047.948333	1556.680664	393.727448
649.998936	6047.948333	1555.632813	427.783997
649.998936	6047.948333	1554.583984	539.347900
649.998936	6047.948333	1553.535156	432.139343
649.998936	6047.948333	1552.486328	363.736755
649.998936	6047.948333	1551.436523	438.894592
649.998936	6047.948333	1550.387695	427.520142
649.998936	6047.948333	1549.337891	322.823151
649.998936	6047.948333	1548.288086	252.349716
649.998936	6047.948333	1547.238281	272.982025
649.998936	6047.948333	1546.187500	491.616302
649.998936	6047.948333	1545.136719	271.090515
649.998936	6047.948333	1544.086914	269.065704
649.998936	6047.948333	1543.035156	228.406830
649.998936	6047.948333	1541.984375	315.140228
649.998936	6047.948333	1540.933594	310.939575
649.998936	6047.948333	1539.881836	297.682770
649.998936	6047.948333	1538.830078	211.749466
649.998936	6047.948333	1537.778320	16.830456
649.998936	6047.948333	1536.725586	212.736359
649.998936	6047.948333	1535.673828	-9.282908
649.998936	6047.948333	1534.621094	334.224640
649.998936	6047.948333	1533.568359	60.128723
649.998936	6047.948333	1532.515625	237.871078
649.998936	6047.948333	1531.461914	195.451950
649.998936	6047.948333	1530.409180	316.455811
649.998936	6047.948333	1529.355469	187.919006
649.998936	6047.948333	1528.301758	188.750122
649.998936	6047.948333	1527.247070	160.140945
649.998936	6047.948333	1526.193359	170.128754
649.998936	6047.948333	1525.138672	279.885956
649.998936	6047.948333	1524.083984	242.337524
649.998936	6047.948333	1523.029297	57.571663
649.998936	6047.948333	1521.974609	128.904083
649.998936	6047.948333	1520.918945	57.561001
649.998936	6047.948333	1519.863281	54.223091
649.998936	6047.948333	1518.807617	270.537109
649.998936	6047.948333	1517.751953	228.767029
649.998936	6047.948333	1516.696289	6.011718
649.998936	6047.948333	1515.639648	281.166534
649.998936	6047.948333	1514.583008	-2.503080
649.998936	6047.948333	1513.526367	130.145676
649.998936	6047.948333	1512.469727	106.759560
649.998936	6047.948333	1511.412109	60.816120
649.998936	6047.948333	1510.355469	60.150097
649.998936	6047.948333	1509.297852	188.344315
649.998936	6047.948333	1508.240234	86.065277
649.998936	6047.948333	1507.181641	153.301422
649.998936	6047.948333	1506.124023	33.097107
649.998936	6047.948333	1505.065430	48.473957
649.998936	6047.948333	1504.006836	-48.991566
649.998936	6047.948333	1502.948242	108.700752
649.998936	6047.948333	1501.888672	-85.686974
649.998936	6047.948333	1500.830078	83.329529
649.998936	6047.948333	1499.770508	-20.640728
649.998936	6047.948333	1498.710938	-162.863342
649.998936	6047.948333	1497.650391	55.821430
649.998936	6047.948333	1496.590820	37.741222
649.998936	6047.948333	1495.530273	-59.178185
649.998936	6047.948333	1494.469727	-86.144005
649.998936	6047.948333	1493.409180	26.650591
649.998936	6047.948333	1492.348633	-180.442657
649.998936	6047.948333	1491.287109	-159.919998
649.998936	6047.948333	1490.225586	2.515074
649.998936	6047.948333	1489.164063	-168.274979
649.998936	6047.948333	1488.102539	-91.337845
649.998936	6047.948333	1487.041016	-122.404808
649.998936	6047.948333	1485.978516	-117.407433
649.998936	6047.948333	1484.916016	-209.048508
649.998936	6047.948333	1483.853516	-66.774193
649.998936	6047.948333	1482.791016	-138.085312
649.998936	6047.948333	1481.727539	-13.717927
649.998936	6047.948333	1480.664063	-33.207088
649.998936	6047.948333	1479.600586	-88.559494
649.998936	6047.948333	1478.537109	-40.536751
649.998936	6047.948333	1477.473633	209.697220
649.998936	6047.948333	1476.409180	64.657539
649.998936	6047.948333	1475.344727	-73.544609
649.998936	6047.948333	1474.280273	3.875062
649.998936	6047.948333	1473.215820	61.114895
649.998936	6047.948333	1472.151367	39.883980
649.998936	6047.948333	1471.085938	-93.479065
649.998936	6047.948333	1470.020508	75.880791
649.998936	6047.948333	1468.955078	-151.348862
649.998936	6047.948333	1467.888672	-55.739422
649.998936	6047.948333	1466.823242	57.621742
649.998936	6047.948333	1465.756836	229.418945
649.998936	6047.948333	1464.690430	58.721771
649.998936	6047.948333	1463.624023	17.848665
649.998936	6047.948333	1462.556641	32.758736
649.998936	6047.948333	1461.490234	238.269348
649.998936	6047.948333	1460.422852	92.583855
649.998936	6047.948333	1459.355469	132.210068
649.998936	6047.948333	1458.287109	158.538925
649.998936	6047.948333	1457.219727	189.841461
649.998936	6047.948333	1456.151367	-0.357273
649.998936	6047.948333	1455.083008	188.887802
649.998936	6047.948333	1454.014648	206.897003
649.998936	6047.948333	1452.945313	112.836945
649.998936	6047.948333	1451.876953	188.454651
649.998936	6047.948333	1450.807617	119.546196
649.998936	6047.948333	1449.738281	171.157928
649.998936	6047.948333	1448.668945	49.056450
649.998936	6047.948333	1447.598633	62.108791
649.998936	6047.948333	1446.528320	138.146286
649.998936	6047.948333	1445.458008	242.878876
649.998936	6047.948333	1444.387695	6.039974
649.998936	6047.948333	1443.317383	122.027992
649.998936	6047.948333	1442.246094	62.948475
649.998936	6047.948333	1441.174805	100.746735
649.998936	6047.948333	1440.103516	98.337776
649.998936	6047.948333	1439.032227	150.321198
649.998936	6047.948333	1437.960938	-76.975906
649.998936	6047.948333	1436.888672	84.144058
649.998936	6047.948333	1435.816406	-84.785027
649.998936	6047.948333	1434.744141	34.955559
649.998936	6047.948333	1433.670898	87.399460
649.998936	6047.948333	1432.598633	89.941185
649.998936	6047.948333	1431.525391	19.187201
649.998936	6047.948333	1430.452148	39.980694
649.998936	6047.948333	1429.378906	62.660465
649.998936	6047.948333	1428.304688	-110.148773
649.998936	6047.948333	1427.231445	-183.517899
649.998936	6047.948333	1426.157227	-10.411223
649.998936	6047.948333	1425.083008	-59.313004
649.998936	6047.948333	1424.007813	-34.510437
649.998936	6047.948333	1422.933594	87.681023
649.998936	6047.948333	1421.858398	20.858976
649.998936	6047.948333	1420.783203	69.100479
649.998936	6047.948333	1419.708008	94.277512
649.998936	6047.948333	1418.631836	36.532780
649.998936	6047.948333	1417.555664	111.585762
649.998936	6047.948333	1416.479492	-65.942558
649.998936	6047.948333	1415.403320	-189.998596
649.998936	6047.948333	1414.327148	124.828667
649.998936	6047.948333	1413.250000	-41.107849
649.998936	6047.948333	1412.173828	36.250336
649.998936	6047.948333	1411.096680	210.827972
649.998936	6047.948333	1410.018555	140.126068
649.998936	6047.948333	1408.941406	-56.667351
649.998936	6047.948333	1407.863281	4.131569
649.998936	6047.948333	1406.785156	1.368699
649.998936	6047.948333	1405.707031	43.769474
649.998936	6047.948333	1404.628906	139.188232
649.998936	6047.948333	1403.549805	94.957794
649.998936	6047.948333	1402.470703	210.546875
649.998936	6047.948333	1401.391602	69.341049
649.998936	6047.948333	1400.312500	225.315735
649.998936	6047.948333	1399.233398	55.547890
649.998936	6047.948333	1398.153320	254.517075
649.998936	6047.948333	1397.073242	222.151688
649.998936	6047.948333	1395.993164	330.163452
649.998936	6047.948333	1394.913086	6.710377
649.998936	6047.948333	1393.832031	96.965553
649.998936	6047.948333	1392.750977	68.358154
649.998936	6047.948333	1391.669922	183.819611
649.998936	6047.948333	1390.588867	130.692490
649.998936	6047.948333	1389.506836	188.472336
649.998936	6047.948333	1388.425781	295.021027
649.998936	6047.948333	1387.343750	267.314209
649.998936	6047.948333	1386.261719	224.970245
649.998936	6047.948333	1385.178711	225.615662
649.998936	6047.948333	1384.096680	308.368805
649.998936	6047.948333	1383.013672	343.905884
649.998936	6047.948333	1381.930664	218.791351
649.998936	6047.948333	1380.846680	192.574722
649.998936	6047.948333	1379.763672	74.260712
649.998936	6047.948333	1378.679688	325.504395
649.998936	6047.948333	1377.595703	285.667847
649.998936	6047.948333	1376.511719	390.583832
649.998936	6047.948333	1375.427734	162.964951
649.998936	6047.948333	1374.342773	193.996826
649.998936	6047.948333	1373.257813	220.405548
649.998936	6047.948333	1372.172852	230.454544
649.998936	6047.948333	1371.087891	250.691391
649.998936	6047.948333	1370.001953	189.486404
649.998936	6047.948333	1368.916992	211.240799
649.998936	6047.948333	1367.831055	54.105637
649.998936	6047.948333	1366.744141	46.515362
649.998936	6047.948333	1365.658203	205.975388
649.998936	6047.948333	1364.571289	88.547211
649.998936	6047.948333	1363.484375	110.080544
649.998936	6047.948333	1362.397461	91.951073
649.998936	6047.948333	1361.310547	299.868469
649.998936	6047.948333	1360.222656	332.769836
649.998936	6047.948333	1359.135742	356.767456
649.998936	6047.948333	1358.047852	214.486801
649.998936	6047.948333	1356.958984	274.482391
649.998936	6047.948333	1355.871094	227.968811
649.998936	6047.948333	1354.782227	206.083496
649.998936	6047.948333	1353.693359	175.352493
649.998936	6047.948333	1352.604492	139.159302
649.998936	6047.948333	1351.515625	194.068054
649.998936	6047.948333	1350.425781	276.013245
649.998936	6047.948333	1349.335938	263.951416
649.998936	6047.948333	1348.246094	371.885193
649.998936	6047.948333	1347.156250	133.587692
649.998936	6047.948333	1346.066406	265.739258
649.998936	6047.948333	1344.975586	323.088989
649.998936	6047.948333	1343.884766	194.947754
649.998936	6047.948333	1342.793945	104.657997
649.998936	6047.948333	1341.702148	259.733582
649.998936	6047.948333	1340.611328	445.425110
649.998936	6047.948333	1339.519531	346.610260
649.998936	6047.948333	1338.427734	276.148560
649.998936	6047.948333	1337.334961	375.539337
649.998936	6047.948333	1336.243164	350.402039
649.998936	6047.948333	1335.150391	379.112701
649.998936	6047.948333	1334.057617	291.287506
649.998936	6047.948333	1332.964844	261.746368
649.998936	6047.948333	1331.871094	325.106049
649.998936	6047.948333	1330.778320	257.966064
649.998936	6047.948333	1329.684570	228.019196
649.998936	6047.948333	1328.590820	263.482025
649.998936	6047.948333	1327.496094	207.461594
649.998936	6047.948333	1326.402344	236.755447
649.998936	6047.948333	1325.307617	326.716766
649.998936	6047.948333	1324.212891	392.129333
649.998936	6047.948333	1323.117188	124.185371
649.998936	6047.948333	1322.022461	129.576584
649.998936	6047.948333	1320.926758	36.308792
649.998936	6047.948333	1319.831055	377.886353
649.998936	6047.948333	1318.735352	165.841156
649.998936	6047.948333	1317.638672	192.810791
649.998936	6047.948333	1316.542969	210.133194
649.998936	6047.948333	1315.446289	186.793961
649.998936	6047.948333	1314.349609	135.334396
649.998936	6047.948333	1313.251953	146.699860
649.998936	6047.948333	1312.155273	163.685074
649.998936	6047.948333	1311.057617	124.808067
649.998936	6047.948333	1309.959961	247.803421
649.998936	6047.948333	1308.862305	236.531067
649.998936	6047.948333	1307.763672	307.794922
649.998936	6047.948333	1306.665039	295.886078
649.998936	6047.948333	1305.566406	313.510162
649.998936	6047.948333	1304.467773	345.193207
649.998936	6047.948333	1303.369141	348.065674
649.998936	6047.948333	1302.269531	368.629761
649.998936	6047.948333	1301.169922	302.815155
649.998936	6047.948333	1300.070313	329.480804
649.998936	6047.948333	1298.970703	277.280640
649.998936	6047.948333	1297.870117	296.442535
649.998936	6047.948333	1296.769531	264.889252
649.998936	6047.948333	1295.668945	464.353760
649.998936	6047.948333	1294.568359	650.359131
649.998936	6047.948333	1293.466797	601.805176
649.998936	6047.948333	1292.366211	619.239624
649.998936	6047.948333	1291.264648	479.740051
649.998936	6047.948333	1290.162109	593.139038
649.998936	6047.948333	1289.060547	624.140503
649.998936	6047.948333	1287.958008	621.175537
649.998936	6047.948333	1286.855469	588.651001
649.998936	6047.948333	1285.752930	477.606567
649.998936	6047.948333	1284.650391	420.969574
649.998936	6047.948333	1283.546875	461.986725
649.998936	6047.948333	1282.444336	447.288391
649.998936	6047.948333	1281.339844	345.375397
649.998936	6047.948333	1280.236328	134.480438
649.998936	6047.948333	1279.132813	229.699905
649.998936	6047.948333	1278.028320	78.420280
649.998936	6047.948333	1276.923828	137.530670
649.998936	6047.948333	1275.819336	147.869537
649.998936	6047.948333	1274.713867	83.695488
649.998936	6047.948333	1273.608398	-26.124893
649.998936	6047.948333	1272.503906	2.209481
649.998936	6047.948333	1271.397461	-26.956276
649.998936	6047.948333	1270.291992	-44.430981
649.998936	6047.948333	1269.185547	-35.025986
649.998936	6047.948333	1268.080078	99.836792
649.998936	6047.948333	1266.972656	-44.199493
649.998936	6047.948333	1265.866211	-18.089352
649.998936	6047.948333	1264.759766	-2.648291
649.998936	6047.948333	1263.652344	-104.859734
649.998936	6047.948333	1262.544922	-127.005699
649.998936	6047.948333	1261.436523	-40.859612
649.998936	6047.948333	1260.329102	-82.695137
649.998936	6047.948333	1259.220703	-86.654442
649.998936	6047.948333	1258.112305	-39.193405
649.998936	6047.948333	1257.003906	-61.191345
649.998936	6047.948333	1255.895508	-91.189674
649.998936	6047.948333	1254.786133	-45.232269
649.998936	6047.948333	1253.676758	-37.759438
649.998936	6047.948333	1252.567383	-58.812595
649.998936	6047.948333	1251.458008	-11.651909
649.998936	6047.948333	1250.347656	-27.070234
649.998936	6047.948333	1249.237305	-41.360458
649.998936	6047.948333	1248.126953	36.941864
649.998936	6047.948333	1247.016602	11.121494
649.998936	6047.948333	1245.905273	119.560410
649.998936	6047.948333	1244.793945	53.801640
649.998936	6047.948333	1243.682617	106.643608
649.998936	6047.948333	1242.571289	245.684555
649.998936	6047.948333	1241.459961	133.882111
649.998936	6047.948333	1240.347656	201.921982
649.998936	6047.948333	1239.235352	219.865723
649.998936	6047.948333	1238.123047	70.251030
649.998936	6047.948333	1237.009766	124.619118
649.998936	6047.948333	1235.897461	34.628586
649.998936	6047.948333	1234.784180	83.465775
649.998936	6047.948333	1233.670898	76.737129
649.998936	6047.948333	1232.556641	96.759270
649.998936	6047.948333	1231.443359	104.114609
649.998936	6047.948333	1230.329102	31.010498
649.998936	6047.948333	1229.214844	30.135908
649.998936	6047.948333	1228.099609	74.306992
649.998936	6047.948333	1226.985352	110.470863
649.998936	6047.948333	1225.870117	114.325653
649.998936	6047.948333	1224.754883	134.504150
649.998936	6047.948333	1223.639648	231.968887
649.998936	6047.948333	1222.523438	116.727913
649.998936	6047.948333	1221.408203	191.742508
649.998936	6047.948333	1220.291992	101.245956
649.998936	6047.948333	1219.174805	53.279415
649.998936	6047.948333	1218.058594	114.417923
649.998936	6047.948333	1216.941406	73.924568
649.998936	6047.948333	1215.824219	145.071320
649.998936	6047.948333	1214.707031	107.598518
649.998936	6047.948333	1213.589844	136.365692
649.998936	6047.948333	1212.471680	-46.649380
649.998936	6047.948333	1211.353516	21.946867
649.998936	6047.948333	1210.235352	6.867946
649.998936	6047.948333	1209.117188	-53.720482
649.998936	6047.948333	1207.998047	89.954300
649.998936	6047.948333	1206.878906	57.034878
649.998936	6047.948333	1205.759766	3.256757
649.998936	6047.948333	1204.640625	-48.849163
649.998936	6047.948333	1203.520508	-109.759689
649.998936	6047.948333	1202.401367	-19.548109
649.998936	6047.948333	1201.281250	-78.375229
649.998936	6047.948333	1200.160156	-105.479187
649.998936	6047.948333	1199.040039	-4.184209
649.998936	6047.948333	1197.918945	-92.619392
649.998936	6047.948333	1196.797852	-139.383774
649.998936	6047.948333	1195.676758	-215.573868
649.998936	6047.948333	1194.555664	-129.182190
649.998936	6047.948333	1193.433594	-169.517624
649.998936	6047.948333	1192.311523	-170.971649
649.998936	6047.948333	1191.189453	-176.849274
649.998936	6047.948333	1190.066406	-152.779724
649.998936	6047.948333	1188.944336	-124.391258
649.998936	6047.948333	1187.821289	-112.530853
649.998936	6047.948333	1186.698242	-198.637802
649.998936	6047.948333	1185.574219	-116.696320
649.998936	6047.948333	1184.451172	-134.733536
649.998936	6047.948333	1183.327148	-38.606243
649.998936	6047.948333	1182.203125	-94.682884
649.998936	6047.948333	1181.078125	-54.109337
649.998936	6047.948333	1179.954102	-175.590363
649.998936	6047.948333	1178.829102	-38.571217
649.998936	6047.948333	1177.704102	-74.797241
649.998936	6047.948333	1176.579102	-38.990406
649.998936	6047.948333	1175.453125	-109.365959
649.998936	6047.948333	1174.327148	-69.278084
649.998936	6047.948333	1173.201172	-142.167023
649.998936	6047.948333	1172.075195	-74.868958
649.998936	6047.948333	1170.949219	-66.372467
649.998936	6047.948333	1169.822266	-88.954849
649.998936	6047.948333	1168.695313	-36.285168
649.998936	6047.948333	1167.568359	23.066488
649.998936	6047.948333	1166.440430	-42.147923
649.998936	6047.948333	1165.313477	-32.955578
649.998936	6047.948333	1164.185547	-73.851822
649.998936	6047.948333	1163.057617	21.501694
649.998936	6047.948333	1161.928711	-41.289116
649.998936	6047.948333	1160.800781	45.893227
649.998936	6047.948333	1159.671875	85.425346
649.998936	6047.948333	1158.541992	68.310371
649.998936	6047.948333	1157.413086	25.548697
649.998936	6047.948333	1156.283203	-122.136955
649.998936	6047.948333	1155.154297	-38.705097
649.998936	6047.948333	1154.023438	4.778467
649.998936	6047.948333	1152.893555	-49.178059
649.998936	6047.948333	1151.763672	-53.547432
649.998936	6047.948333	1150.632813	123.804939
649.998936	6047.948333	1149.501953	88.298180
649.998936	6047.948333	1148.370117	37.216270
649.998936	6047.948333	1147.239258	-68.990372
649.998936	6047.948333	1146.107422	138.204437
649.998936	6047.948333	1144.975586	37.433270
649.998936	6047.948333	1143.843750	65.110962
649.998936	6047.948333	1142.710938	54.380318
649.998936	6047.948333	1141.578125	77.826118
649.998936	6047.948333	1140.445313	72.901794
649.998936	6047.948333	1139.312500	164.559296
649.998936	6047.948333	1138.178711	226.359818
649.998936	6047.948333	1137.045898	87.064651
649.998936	6047.948333	1135.912109	82.986809
649.998936	6047.948333	1134.777344	74.198799
649.998936	6047.948333	1133.643555	89.988907
649.998936	6047.948333	1132.508789	148.645111
649.998936	6047.948333	1131.374023	207.579559
649.998936	6047.948333	1130.239258	198.846268
649.998936	6047.948333	1129.104492	315.540314
649.998936	6047.948333	1127.968750	315.221710
649.998936	6047.948333	1126.833008	309.731476
649.998936	6047.948333	1125.697266	206.682663
649.998936	6047.948333	1124.560547	252.040604
649.998936	6047.948333	1123.424805	214.661331
649.998936	6047.948333	1122.288086	214.298813
649.998936	6047.948333	1121.151367	220.969894
649.998936	6047.948333	1120.013672	121.288223
649.998936	6047.948333	1118.876953	328.738953
649.998936	6047.948333	1117.739258	226.047531
649.998936	6047.948333	1116.601563	124.451141
649.998936	6047.948333	1115.462891	156.511124
649.998936	6047.948333	1114.324219	187.981247
649.998936	6047.948333	1113.186523	59.115913
649.998936	6047.948333	1112.046875	11.723283
649.998936	6047.948333	1110.908203	133.369461
649.998936	6047.948333	1109.769531	33.663616
649.998936	6047.948333	1108.629883	49.588848
649.998936	6047.948333	1107.490234	20.137383
649.998936	6047.948333	1106.349609	24.869436
649.998936	6047.948333	1105.209961	109.716988
649.998936	6047.948333	1104.069336	114.411392
649.998936	6047.948333	1102.928711	64.664711
649.998936	6047.948333	1101.787109	114.090782
649.998936	6047.948333	1100.646484	70.177437
649.998936	6047.948333	1099.504883	120.447868
649.998936	6047.948333	1098.363281	138.833466
649.998936	6047.948333	1097.221680	7.326830
649.998936	6047.948333	1096.079102	103.656944
649.998936	6047.948333	1094.936523	210.532623
649.998936	6047.948333	1093.793945	102.786797
649.998936	6047.948333	1092.651367	6.942370
649.998936	6047.948333	1091.507813	99.368378
649.998936	6047.948333	1090.364258	86.371384
649.998936	6047.948333	1089.220703	133.528015
649.998936	6047.948333	1088.077148	144.752747
649.998936	6047.948333	1086.933594	-10.997914
649.998936	6047.948333	1085.789063	-21.046917
649.998936	6047.948333	1084.644531	-62.749668
649.998936	6047.948333	1083.499023	-40.510216
649.998936	6047.948333	1082.354492	-17.032326
649.998936	6047.948333	1081.208984	86.837364
649.998936	6047.948333	1080.063477	60.329479
649.998936	6047.948333	1078.917969	158.602203
649.998936	6047.948333	1077.771484	25.109308
649.998936	6047.948333	1076.625977	148.206345
649.998936	6047.948333	1075.479492	140.335037
649.998936	6047.948333	1074.332031	67.502602
649.998936	6047.948333	1073.185547	92.878258
649.998936	6047.948333	1072.038086	216.245865
649.998936	6047.948333	1070.890625	325.519836
649.998936	6047.948333	1069.743164	80.058121
649.998936	6047.948333	1068.594727	53.421715
649.998936	6047.948333	1067.447266	308.157501
649.998936	6047.948333	1066.298828	219.047180
649.998936	6047.948333	1065.149414	217.209335
649.998936	6047.948333	1064.000977	168.152435
649.998936	6047.948333	1062.851563	126.387032
649.998936	6047.948333	1061.702148	270.915192
649.998936	6047.948333	1060.552734	103.736412
649.998936	6047.948333	1059.402344	102.013153
649.998936	6047.948333	1058.252930	-4.288866
649.998936	6047.948333	1057.102539	6.574586
649.998936	6047.948333	1055.951172	129.445267
649.998936	6047.948333	1054.800781	147.013184
649.998936	6047.948333	1053.649414	102.043922
649.998936	6047.948333	1052.498047	-13.730284
649.998936	6047.948333	1051.346680	56.791691
649.998936	6047.948333	1050.194336	4.124147
649.998936	6047.948333	1049.042969	120.702950
649.998936	6047.948333	1047.890625	-16.228525
649.998936	6047.948333	1046.738281	41.165623
649.998936	6047.948333	1045.584961	79.401077
649.998936	6047.948333	1044.431641	46.433403
649.998936	6047.948333	1043.278320	8.258763
649.998936	6047.948333	1042.125000	95.877213
649.998936	6047.948333	1040.971680	91.548584
649.998936	6047.948333	1039.817383	205.143936
649.998936	6047.948333	1038.663086	323.433899
649.998936	6047.948333	1037.508789	178.635818
649.998936	6047.948333	1036.353516	113.574310
649.998936	6047.948333	1035.198242	144.794022
649.998936	6047.948333	1034.042969	177.886337
649.998936	6047.948333	1032.887695	273.130646
649.998936	6047.948333	1031.732422	213.942032
649.998936	6047.948333	1030.576172	244.823746
649.998936	6047.948333	1029.419922	226.414291
649.998936	6047.948333	1028.263672	160.026245
649.998936	6047.948333	1027.106445	237.364929
649.998936	6047.948333	1025.949219	232.290115
649.998936	6047.948333	1024.792969	140.719788
649.998936	6047.948333	1023.634766	123.527832
649.998936	6047.948333	1022.477539	191.479218
649.998936	6047.948333	1021.319336	40.804157
649.998936	6047.948333	1020.161133	164.741928
649.998936	6047.948333	1019.002930	19.465014
649.998936	6047.948333	1017.843750	35.580891
649.998936	6047.948333	1016.684570	-103.380547
649.998936	6047.948333	1015.525391	138.963150
649.998936	6047.948333	1014.366211	-130.979721
649.998936	6047.948333	1013.207031	0.392044
649.998936	6047.948333	1012.046875	48.622841
649.998936	6047.948333	1010.886719	-32.791496
649.998936	6047.948333	1009.726563	0.384501
649.998936	6047.948333	1008.565430	-163.092911
649.998936	6047.948333	1007.404297	-0.011514
649.998936	6047.948333	1006.243164	-0.837501
649.998936	6047.948333	1005.082031	-23.566833
649.998936	6047.948333	1003.920898	1.937822
649.998936	6047.948333	1002.758789	96.875496
649.998936	6047.948333	1001.596680	17.115746
649.998936	6047.948333	1000.433594	25.242321
649.998936	6047.948333	999.271484	-6.130664
649.998936	6047.948333	998.108398	8.008887
649.998936	6047.948333	996.945313	-35.564117
649.998936	6047.948333	995.782227	12.128002
649.998936	6047.948333	994.618164	-44.886265
649.998936	6047.948333	993.454102	42.407803
649.998936	6047.948333	992.290039	-52.174717
649.998936	6047.948333	991.125977	107.292107
649.998936	6047.948333	989.960938	62.270287
649.998936	6047.948333	988.796875	87.889923
649.998936	6047.948333	987.630859	-12.547279
649.998936	6047.948333	986.465820	86.000534
649.998936	6047.948333	985.300781	-48.504650
649.998936	6047.948333	984.134766	77.038261
649.998936	6047.948333	982.968750	-78.890984
649.998936	6047.948333	981.801758	-69.866638
649.998936	6047.948333	980.635742	-20.203636
649.998936	6047.948333	979.468750	153.991837
649.998936	6047.948333	978.301758	212.846588
649.998936	6047.948333	977.133789	43.796562
649.998936	6047.948333	975.966797	6.882413
649.998936	6047.948333	974.798828	122.547646
649.998936	6047.948333	973.630859	41.791195
649.998936	6047.948333	972.461914	40.181751
649.998936	6047.948333	971.293945	-88.618782
649.998936	6047.948333	970.125000	7.040962
649.998936	6047.948333	968.956055	64.156090
649.998936	6047.948333	967.786133	-46.037304
649.998936	6047.948333	966.617188	-79.753151
649.998936	6047.948333	965.447266	-17.086300
649.998936	6047.948333	964.276367	-136.164581
649.998936	6047.948333	963.106445	-23.229174
649.998936	6047.948333	961.935547	-30.566923
649.998936	6047.948333	960.764648	-133.657227
649.998936	6047.948333	959.593750	0.712006
649.998936	6047.948333	958.422852	102.124908
649.998936	6047.948333	957.250977	-23.333920
649.998936	6047.948333	956.079102	-67.561279
649.998936	6047.948333	954.907227	73.702744
649.998936	6047.948333	953.734375	100.763420
649.998936	6047.948333	952.562500	53.013638
649.998936	6047.948333	951.389648	-174.620361
649.998936	6047.948333	950.215820	-7.127231
649.998936	6047.948333	949.042969	-21.667692
649.998936	6047.948333	947.869141	35.475914
649.998936	6047.948333	946.695313	71.273598
649.998936	6047.948333	945.521484	-31.334526
649.998936	6047.948333	944.346680	8.454226
649.998936	6047.948333	943.172852	167.096466
649.998936	6047.948333	941.998047	80.321892
649.998936	6047.948333	940.822266	188.898727
649.998936	6047.948333	939.647461	11.372486
649.998936	6047.948333	938.471680	154.715500
649.998936	6047.948333	937.295898	-28.667521
649.998936	6047.948333	936.119141	22.707151
649.998936	6047.948333	934.943359	12.410571
649.998936	6047.948333	933.766602	65.312897
649.998936	6047.948333	932.589844	-94.886703
649.998936	6047.948333	931.413086	140.602478
649.998936	6047.948333	930.235352	226.182541
649.998936	6047.948333	929.057617	154.268555
649.998936	6047.948333	927.879883	53.551098
649.998936	6047.948333	926.702148	71.913605
649.998936	6047.948333	925.523438	109.426140
649.998936	6047.948333	924.344727	-29.643671
649.998936	6047.948333	923.166016	88.464073
649.998936	6047.948333	921.987305	12.738791
649.998936	6047.948333	920.807617	71.313461
649.998936	6047.948333	919.627930	73.703812
649.998936	6047.948333	919.497070	-15.641590
649.998936	6047.948333	918.331055	-5.073301
649.998936	6047.948333	917.165039	47.655510
649.998936	6047.948333	915.999023	142.517639
649.998936	6047.948333	914.833008	-69.287079
649.998936	6047.948333	913.666016	-22.361570
649.998936	6047.948333	912.499023	129.889038
649.998936	6047.948333	911.332031	-74.159142
649.998936	6047.948333	910.165039	93.334343
649.998936	6047.948333	908.997070	6.133216
649.998936	6047.948333	907.830078	131.409622
649.998936	6047.948333	906.661133	130.327499
649.998936	6047.948333	905.493164	-73.570297
649.998936	6047.948333	904.325195	-11.511273
649.998936	6047.948333	903.156250	-73.796700
649.998936	6047.948333	901.987305	37.929600
649.998936	6047.948333	900.818359	23.428984
649.998936	6047.948333	899.648438	106.400131
649.998936	6047.948333	898.478516	93.782272
649.998936	6047.948333	897.308594	-18.188656
649.998936	6047.948333	896.138672	123.921547
649.998936	6047.948333	894.968750	-3.308884
649.998936	6047.948333	893.797852	-151.498703
649.998936	6047.948333	892.626953	129.874847
649.998936	6047.948333	891.456055	42.770863
649.998936	6047.948333	890.284180	81.633537
649.998936	6047.948333	889.113281	-131.358841
649.998936	6047.948333	887.941406	58.186417
649.998936	6047.948333	886.768555	3.550158
649.998936	6047.948333	885.596680	147.211975
649.998936	6047.948333	884.423828	-6.563422
649.998936	6047.948333	883.250977	-2.101859
649.998936	6047.948333	882.078125	-18.612232
649.998936	6047.948333	880.905273	-46.555393
649.998936	6047.948333	879.731445	-70.685471
649.998936	6047.948333	878.557617	15.632669
649.998936	6047.948333	877.383789	-54.212704
649.998936	6047.948333	876.209961	51.082680
649.998936	6047.948333	875.035156	-41.595695
649.998936	6047.948333	873.860352	63.637329
649.998936	6047.948333	872.685547	7.120203
649.998936	6047.948333	871.510742	-13.246126
649.998936	6047.948333	870.334961	-90.658249
649.998936	6047.948333	869.159180	-137.628448
649.998936	6047.948333	867.983398	-13.519449
649.998936	6047.948333	866.807617	-104.213036
649.998936	6047.948333	865.630859	74.921806
649.998936	6047.948333	864.454102	-53.760971
649.998936	6047.948333	863.277344	-43.757416
649.998936	6047.948333	862.100586	-7.182711
649.998936	6047.948333	860.922852	-196.544067
649.998936	6047.948333	859.745117	14.651150
649.998936	6047.948333	858.567383	-72.180504
649.998936	6047.948333	857.389648	-160.882736
649.998936	6047.948333	856.210938	46.357491
649.998936	6047.948333	855.032227	-180.791840
649.998936	6047.948333	853.853516	32.038910
649.998936	6047.948333	852.674805	58.994316
649.998936	6047.948333	851.495117	-46.741028
649.998936	6047.948333	850.315430	-53.904903
649.998936	6047.948333	849.135742	-64.863014
649.998936	6047.948333	847.956055	-75.825310
649.998936	6047.948333	846.775391	-92.470978
649.998936	6047.948333	845.595703	-3.090999
649.998936	6047.948333	844.415039	-76.551132
649.998936	6047.948333	843.233398	-125.384590
649.998936	6047.948333	842.052734	49.072777
649.998936	6047.948333	840.871094	-45.186455
649.998936	6047.948333	839.689453	-82.672485
649.998936	6047.948333	838.506836	-84.220360
649.998936	6047.948333	837.325195	-57.417332
649.998936	6047.948333	836.142578	58.209564
649.998936	6047.948333	834.959961	-17.096432
649.998936	6047.948333	833.777344	-105.606331
649.998936	6047.948333	832.593750	89.276901
649.998936	6047.948333	831.410156	-1.122436
649.998936	6047.948333	830.226563	-15.961097
649.998936	6047.948333	829.042969	-30.801607
649.998936	6047.948333	827.858398	-39.981052
649.998936	6047.948333	826.673828	41.418152
649.998936	6047.948333	825.489258	-86.655304
649.998936	6047.948333	824.304688	117.316612
649.998936	6047.948333	823.120117	149.571182
649.998936	6047.948333	821.934570	21.530037
649.998936	6047.948333	820.749023	53.774368
649.998936	6047.948333	819.562500	10.606185
649.998936	6047.948333	818.376953	20.208912
649.998936	6047.948333	817.190430	78.784752
649.998936	6047.948333	816.003906	-122.615875
649.998936	6047.948333	814.817383	-20.737650
649.998936	6047.948333	813.629883	17.072950
649.998936	6047.948333	812.442383	-93.857269
649.998936	6047.948333	811.254883	15.453570
649.998936	6047.948333	810.067383	-153.782211
649.998936	6047.948333	808.878906	-33.233875
649.998936	6047.948333	807.690430	38.351185
649.998936	6047.948333	806.501953	49.719471
649.998936	6047.948333	805.313477	30.991024
649.998936	6047.948333	804.124023	-30.972712
649.998936	6047.948333	802.934570	-47.815586
649.998936	6047.948333	801.745117	-38.356049
649.998936	6047.948333	800.555664	-143.504822
649.998936	6047.948333	799.365234	-19.478167
649.998936	6047.948333	798.175781	93.218628
649.998936	6047.948333	796.985352	-45.715008
649.998936	6047.948333	795.793945	85.691994
649.998936	6047.948333	794.603516	-17.547567
649.998936	6047.948333	793.412109	27.470274
649.998936	6047.948333	792.220703	61.203285
649.998936	6047.948333	791.028320	63.029385
649.998936	6047.948333	789.836914	79.843269
649.998936	6047.948333	788.644531	4.779300
649.998936	6047.948333	787.452148	-100.254059
649.998936	6047.948333	786.258789	-10.365251
649.998936	6047.948333	785.066406	-38.559914
649.998936	6047.948333	783.873047	-12.432290
649.998936	6047.948333	782.679688	-10.672998
649.998936	6047.948333	781.485352	-46.372963
649.998936	6047.948333	780.291992	48.967625
649.998936	6047.948333	779.097656	97.467323
649.998936	6047.948333	777.903320	18.692379
649.998936	6047.948333	776.708008	132.632874
649.998936	6047.948333	775.512695	-151.888092
649.998936	6047.948333	774.318359	-26.765657
649.998936	6047.948333	773.122070	-23.234436
649.998936	6047.948333	771.926758	23.274866
649.998936	6047.948333	770.730469	-64.806854
649.998936	6047.948333	769.534180	-8.991901
649.998936	6047.948333	768.337891	72.939293
649.998936	6047.948333	767.141602	55.833748
649.998936	6047.948333	765.944336	70.467064
649.998936	6047.948333	764.747070	-45.605152
649.998936	6047.948333	763.549805	45.542713
649.998936	6047.948333	762.351563	106.780472
649.998936	6047.948333	761.154297	13.118495
649.998936	6047.948333	759.956055	16.481117
649.998936	6047.948333	758.757813	31.017246
649.998936	6047.948333	757.558594	-21.592825
649.998936	6047.948333	756.359375	84.261261
649.998936	6047.948333	755.160156	53.996815
649.998936	6047.948333	753.960938	75.905655
649.998936	6047.948333	752.761719	38.171680
649.998936	6047.948333	751.561523	-88.970184
649.998936	6047.948333	750.361328	-39.159046
649.998936	6047.948333	749.160156	98.123672
649.998936	6047.948333	747.959961	-71.815010
649.998936	6047.948333	746.758789	-53.727329
649.998936	6047.948333	745.557617	-15.196180
649.998936	6047.948333	744.356445	27.021898
649.998936	6047.948333	743.154297	108.264259
649.998936	6047.948333	741.952148	36.971954
649.998936	6047.948333	740.750000	14.029082
649.998936	6047.948333	739.547852	37.547268
649.998936	6047.948333	738.344727	88.914093
649.998936	6047.948333	737.142578	93.789848
649.998936	6047.948333	735.939453	35.486488
649.998936	6047.948333	734.735352	-33.954235
649.998936	6047.948333	733.532227	108.294083
649.998936	6047.948333	732.328125	92.665848
649.998936	6047.948333	731.124023	177.251663
649.998936	6047.948333	729.918945	89.205116
649.998936	6047.948333	728.714844	153.308289
649.998936	6047.948333	727.509766	-183.293121
649.998936	6047.948333	726.303711	82.941681
649.998936	6047.948333	725.098633	191.443802
649.998936	6047.948333	723.892578	71.871048
649.998936	6047.948333	722.686523	65.381027
649.998936	6047.948333	721.480469	18.107830
649.998936	6047.948333	720.274414	-3.231462
649.998936	6047.948333	719.067383	-50.514187
649.998936	6047.948333	717.860352	2.198579
649.998936	6047.948333	716.653320	34.500877
649.998936	6047.948333	715.445313	-9.123845
649.998936	6047.948333	714.238281	43.479958
649.998936	6047.948333	713.030273	-20.526306
649.998936	6047.948333	711.821289	174.450867
649.998936	6047.948333	710.613281	-9.817637
649.998936	6047.948333	709.404297	37.102432
649.998936	6047.948333	708.195313	-12.152590
649.998936	6047.948333	706.986328	23.610949
649.998936	6047.948333	705.776367	-95.889275
649.998936	6047.948333	704.566406	46.985580
649.998936	6047.948333	703.356445	-42.963909
649.998936	6047.948333	702.146484	-3.627574
649.998936	6047.948333	700.935547	-27.109102
649.998936	6047.948333	699.724609	-146.597214
649.998936	6047.948333	698.513672	-3.986153
649.998936	6047.948333	697.302734	27.826935
649.998936	6047.948333	696.090820	55.911625
649.998936	6047.948333	694.878906	-96.795731
649.998936	6047.948333	693.666992	16.077255
649.998936	6047.948333	692.455078	-94.205933
649.998936	6047.948333	691.242188	-21.986444
649.998936	6047.948333	690.029297	131.263000
649.998936	6047.948333	688.816406	11.732150
649.998936	6047.948333	687.602539	151.960678
649.998936	6047.948333	686.389648	-70.714790
649.998936	6047.948333	685.175781	28.907795
649.998936	6047.948333	683.960938	150.552307
649.998936	6047.948333	682.747070	34.686390
649.998936	6047.948333	681.532227	47.652081
649.998936	6047.948333	680.317383	-14.846894
649.998936	6047.948333	679.102539	121.306488
649.998936	6047.948333	677.886719	-14.799449
649.998936	6047.948333	676.670898	152.495148
649.998936	6047.948333	675.455078	159.763840
649.998936	6047.948333	674.239258	113.703270
649.998936	6047.948333	673.022461	159.504700
649.998936	6047.948333	671.805664	8.691360
649.998936	6047.948333	670.588867	-52.091389
649.998936	6047.948333	669.372070	68.915100
649.998936	6047.948333	668.154297	92.536781
649.998936	6047.948333	666.936523	-36.229874
649.998936	6047.948333	665.718750	24.045673
649.998936	6047.948333	664.500977	23.719244
649.998936	6047.948333	663.282227	-51.847649
649.998936	6047.948333	662.063477	-28.378637
649.998936	6047.948333	660.844727	251.750671
649.998936	6047.948333	659.625000	55.099476
649.998936	6047.948333	658.405273	8.789933
649.998936	6047.948333	657.185547	167.699371
649.998936	6047.948333	655.965820	77.354050
649.998936	6047.948333	654.745117	118.892670
649.998936	6047.948333	653.525391	43.182018
649.998936	6047.948333	652.303711	82.815109
649.998936	6047.948333	651.083008	21.723150
649.998936	6047.948333	649.861328	-37.545952
649.998936	6047.948333	648.640625	-16.313677
649.998936	6047.948333	647.417969	32.314468
649.998936	6047.948333	646.196289	0.417946
649.998936	6047.948333	644.973633	-31.498970
649.998936	6047.948333	643.750977	17.003597
649.998936	6047.948333	642.528320	127.597946
649.998936	6047.948333	641.305664	2.378728
649.998936	6047.948333	640.082031	16.030788
649.998936	6047.948333	638.858398	18.684549
649.998936	6047.948333	637.634766	-26.178110
649.998936	6047.948333	636.410156	82.314590
649.998936	6047.948333	635.185547	83.026085
649.998936	6047.948333	633.960938	78.228783
649.998936	6047.948333	632.736328	-23.308788
649.998936	6047.948333	631.510742	156.104401
649.998936	6047.948333	630.285156	122.010109
649.998936	6047.948333	629.059570	104.308228
649.998936	6047.948333	627.833984	-20.984669
649.998936	6047.948333	626.607422	32.369736
649.998936	6047.948333	625.380859	-47.364510
649.998936	6047.948333	624.154297	62.386814
649.998936	6047.948333	622.927734	15.401050
649.998936	6047.948333	621.700195	-68.024498
649.998936	6047.948333	620.472656	54.304520
649.998936	6047.948333	619.245117	-54.647522
649.998936	6047.948333	618.016602	0.215448
649.998936	6047.948333	616.788086	18.627907
649.998936	6047.948333	615.559570	-190.410599
649.998936	6047.948333	614.331055	13.493505
649.998936	6047.948333	613.101563	197.272156
649.998936	6047.948333	611.872070	84.585724
649.998936	6047.948333	610.642578	37.351753
649.998936	6047.948333	609.413086	-18.982941
649.998936	6047.948333	608.182617	15.518857
649.998936	6047.948333	606.952148	-9.974535
649.998936	6047.948333	605.721680	-33.674965
649.998936	6047.948333	604.491211	102.391754
649.998936	6047.948333	603.259766	-39.393406
649.998936	6047.948333	602.028320	83.842110
649.998936	6047.948333	600.796875	141.664291
649.998936	6047.948333	599.564453	-18.283749
649.998936	6047.948333	598.332031	-82.061981
649.998936	6047.948333	597.099609	-17.089746
649.998936	6047.948333	595.867188	33.317623
649.998936	6047.948333	594.633789	70.978462
649.998936	6047.948333	593.400391	37.910042
649.998936	6047.948333	592.166992	-67.655090
649.998936	6047.948333	590.933594	93.090302
649.998936	6047.948333	589.699219	222.942505
649.998936	6047.948333	588.464844	117.304657
649.998936	6047.948333	587.230469	80.474243
649.998936	6047.948333	585.995117	108.785080
649.998936	6047.948333	584.760742	68.288193
649.998936	6047.948333	583.525391	114.617355
649.998936	6047.948333	582.289063	171.745316
649.998936	6047.948333	581.053711	158.289139
649.998936	6047.948333	579.817383	50.783855
649.998936	6047.948333	578.581055	87.908722
649.998936	6047.948333	577.343750	41.847004
649.998936	6047.948333	576.107422	216.220886
649.998936	6047.948333	574.870117	133.957794
649.998936	6047.948333	573.631836	190.769745
649.998936	6047.948333	572.394531	137.377197
649.998936	6047.948333	571.156250	311.452087
649.998936	6047.948333	569.917969	26.952631
649.998936	6047.948333	568.679688	96.248177
649.998936	6047.948333	567.440430	12.121453
649.998936	6047.948333	566.202148	52.467972
649.998936	6047.948333	564.961914	193.755615
649.998936	6047.948333	563.722656	19.417761
649.998936	6047.948333	562.482422	54.233940
649.998936	6047.948333	561.243164	143.076920
649.998936	6047.948333	560.001953	116.524658
649.998936	6047.948333	558.761719	183.636795
649.998936	6047.948333	557.520508	-33.892773
649.998936	6047.948333	556.279297	159.215286
649.998936	6047.948333	555.038086	211.782455
649.998936	6047.948333	553.795898	131.096603
649.998936	6047.948333	552.554688	25.225151
649.998936	6047.948333	551.311523	223.433121
649.998936	6047.948333	550.069336	56.367512
649.998936	6047.948333	548.826172	150.117935
649.998936	6047.948333	547.583984	189.861832
649.998936	6047.948333	546.339844	47.989460
649.998936	6047.948333	545.096680	98.463989
649.998936	6047.948333	543.852539	159.668335
649.998936	6047.948333	542.608398	48.352715
649.998936	6047.948333	541.364258	154.391373
649.998936	6047.948333	540.119141	-28.762037
649.998936	6047.948333	538.875000	86.171265
649.998936	6047.948333	537.628906	136.403397
649.998936	6047.948333	536.383789	50.201126
649.998936	6047.948333	535.137695	-43.170101
649.998936	6047.948333	533.892578	98.468033
649.998936	6047.948333	532.645508	31.973898
649.998936	6047.948333	531.399414	-213.821075
649.998936	6047.948333	530.152344	-144.027084
649.998936	6047.948333	528.905273	-223.048508
649.998936	6047.948333	527.658203	-115.703079
649.998936	6047.948333	526.410156	-76.509514
649.998936	6047.948333	525.163086	-40.936253
649.998936	6047.948333	523.914063	-3.618986
649.998936	6047.948333	522.666016	-55.857788
649.998936	6047.948333	521.416992	-190.441376
649.998936	6047.948333	520.167969	-106.659790
649.998936	6047.948333	518.918945	-198.281952
649.998936	6047.948333	517.669922	-41.240883
649.998936	6047.948333	516.419922	-36.313316
649.998936	6047.948333	515.169922	-40.351761
649.998936	6047.948333	513.919922	19.943666
649.998936	6047.948333	512.668945	-114.629646
649.998936	6047.948333	511.417969	0.999640
649.998936	6047.948333	510.166992	-117.480927
649.998936	6047.948333	508.916016	-69.822777
649.998936	6047.948333	507.664063	-129.358032
649.998936	6047.948333	506.412109	-99.622765
649.998936	6047.948333	505.160156	-52.073994
649.998936	6047.948333	503.907227	-100.942375
649.998936	6047.948333	502.655273	-106.988403
649.998936	6047.948333	501.402344	-155.872116
649.998936	6047.948333	500.148438	-147.691772
649.998936	6047.948333	498.895508	-23.636047
649.998936	6047.948333	497.641602	-102.888077
649.998936	6047.948333	496.387695	-48.457546
649.998936	6047.948333	495.132813	-47.536758
649.998936	6047.948333	493.878906	-96.520859
649.998936	6047.948333	492.624023	-190.041443
649.998936	6047.948333	491.368164	-57.392216
649.998936	6047.948333	490.113281	-93.959488
649.998936	6047.948333	488.857422	-148.340363
649.998936	6047.948333	487.601563	46.423710
649.998936	6047.948333	486.344727	-25.812969
649.998936	6047.948333	485.088867	-112.272102
649.998936	6047.948333	483.832031	-68.896248
649.998936	6047.948333	482.575195	93.565598
649.998936	6047.948333	481.317383	-17.841528
649.998936	6047.948333	480.059570	9.402411
649.998936	6047.948333	478.801758	-13.148835
649.998936	6047.948333	477.543945	-7.294082
649.998936	6047.948333	476.285156	110.422638
649.998936	6047.948333	475.027344	274.233337
649.998936	6047.948333	473.767578	-130.196838
649.998936	6047.948333	472.508789	72.578575
649.998936	6047.948333	471.249023	48.076271
649.998936	6047.948333	469.989258	-45.644741
649.998936	6047.948333	468.729492	215.416290
649.998936	6047.948333	467.469727	63.105804
649.998936	6047.948333	466.208984	123.595108
649.998936	6047.948333	464.948242	-0.341506
649.998936	6047.948333	463.686523	192.984238
649.998936	6047.948333	462.425781	219.627701
649.998936	6047.948333	461.164063	-7.119246
649.998936	6047.948333	459.901367	60.206169
649.998936	6047.948333	458.639648	99.132500
649.998936	6047.948333	457.376953	-5.409067
649.998936	6047.948333	456.114258	150.248230
649.998936	6047.948333	454.851563	128.827332
649.998936	6047.948333	453.587891	94.979782
649.998936	6047.948333	452.324219	153.083206
649.998936	6047.948333	451.060547	96.159241
649.998936	6047.948333	449.796875	111.703064
649.998936	6047.948333	448.532227	70.616356
649.998936	6047.948333	447.267578	207.999344
649.998936	6047.948333	446.002930	69.617531
649.998936	6047.948333	444.737305	136.161880
649.998936	6047.948333	443.471680	98.411720
649.998936	6047.948333	442.206055	101.232513
649.998936	6047.948333	440.940430	171.078033
649.998936	6047.948333	439.673828	108.444435
649.998936	6047.948333	438.407227	199.301407
649.998936	6047.948333	437.140625	58.925781
649.998936	6047.948333	435.873047	200.765991
649.998936	6047.948333	434.605469	-26.109715
649.998936	6047.948333	433.337891	175.489334
649.998936	6047.948333	432.070313	126.608719
649.998936	6047.948333	430.801758	107.626541
649.998936	6047.948333	429.533203	167.861923
649.998936	6047.948333	428.264648	64.154663
649.998936	6047.948333	426.996094	206.982620
649.998936	6047.948333	425.726563	127.783401
649.998936	6047.948333	424.457031	221.054749
649.998936	6047.948333	423.186523	106.491280
649.998936	6047.948333	421.916992	97.469009
649.998936	6047.948333	420.646484	332.893890
649.998936	6047.948333	419.375977	244.461853
649.998936	6047.948333	418.104492	97.921021
649.998936	6047.948333	416.833008	267.810028
649.998936	6047.948333	415.561523	98.250008
649.998936	6047.948333	414.290039	27.062132
649.998936	6047.948333	413.017578	296.648102
649.998936	6047.948333	411.746094	337.628571
649.998936	6047.948333	410.472656	107.978516
649.998936	6047.948333	409.200195	241.776276
649.998936	6047.948333	407.926758	187.529053
649.998936	6047.948333	406.653320	24.342735
649.998936	6047.948333	405.379883	75.164246
649.998936	6047.948333	404.105469	220.543640
649.998936	6047.948333	402.831055	56.996456
649.998936	6047.948333	401.556641	91.520973
649.998936	6047.948333	400.282227	45.215969
649.998936	6047.948333	399.006836	49.586090
649.998936	6047.948333	397.731445	-33.845375
649.998936	6047.948333	396.456055	3.474543
649.998936	6047.948333	395.179688	26.569702
649.998936	6047.948333	393.903320	-27.595709
649.998936	6047.948333	392.626953	224.484467
649.998936	6047.948333	391.350586	50.858257
649.998936	6047.948333	390.073242	31.108400
649.998936	6047.948333	388.795898	138.889023
649.998936	6047.948333	387.518555	78.453751
649.998936	6047.948333	386.240234	54.538181
649.998936	6047.948333	384.961914	138.816467
649.998936	6047.948333	383.683594	54.978287
649.998936	6047.948333	382.405273	82.795670
649.998936	6047.948333	381.125977	31.695211
649.998936	6047.948333	379.846680	151.576706
649.998936	6047.948333	378.567383	40.558834
649.998936	6047.948333	377.287109	133.630554
649.998936	6047.948333	376.006836	16.851351
649.998936	6047.948333	374.726563	107.561081
649.998936	6047.948333	373.446289	74.014420
649.998936	6047.948333	372.165039	-45.339394
649.998936	6047.948333	370.883789	-21.911449
649.998936	6047.948333	369.602539	-45.913456
649.998936	6047.948333	368.320313	-63.280327
649.998936	6047.948333	367.039063	14.911570
649.998936	6047.948333	365.755859	-38.036346
649.998936	6047.948333	364.473633	84.688751
649.998936	6047.948333	363.190430	6.614709
649.998936	6047.948333	361.907227	100.632027
649.998936	6047.948333	360.624023	23.547066
649.998936	6047.948333	359.340820	-62.616741
649.998936	6047.948333	358.056641	-20.361809
649.998936	6047.948333	356.772461	84.097137
649.998936	6047.948333	355.487305	-24.219036
649.998936	6047.948333	354.202148	140.172836
649.998936	6047.948333	352.916992	-62.941833
649.998936	6047.948333	351.631836	-36.919445
649.998936	6047.948333	350.346680	-6.181121
649.998936	6047.948333	349.060547	-8.997099
649.998936	6047.948333	347.774414	-50.554169
649.998936	6047.948333	346.487305	-80.476921
649.998936	6047.948333	345.200195	-64.030067
649.998936	6047.948333	343.913086	-107.187820
649.998936	6047.948333	342.625977	50.500633
649.998936	6047.948333	341.338867	59.996090
649.998936	6047.948333	340.050781	-71.696747
649.998936	6047.948333	338.762695	-65.142242
649.998936	6047.948333	337.473633	-133.827957
649.998936	6047.948333	336.184570	-33.168552
649.998936	6047.948333	334.895508	-28.575844
649.998936	6047.948333	333.606445	-81.866714
649.998936	6047.948333	332.317383	79.084518
649.998936	6047.948333	331.027344	-100.386635
649.998936	6047.948333	329.736328	-200.838867
649.998936	6047.948333	328.446289	-154.746475
649.998936	6047.948333	327.155273	-175.261276
649.998936	6047.948333	325.864258	-108.252556
649.998936	6047.948333	324.573242	21.970724
649.998936	6047.948333	323.281250	0.742472
649.998936	6047.948333	321.989258	-71.487106
649.998936	6047.948333	320.697266	-120.324928
649.998936	6047.948333	319.405273	-24.750315
649.998936	6047.948333	318.112305	-54.628731
649.998936	6047.948333	316.819336	-19.725779
649.998936	6047.948333	315.526367	21.137245
649.998936	6047.948333	314.232422	190.578903
649.998936	6047.948333	312.938477	186.216278
649.998936	6047.948333	311.644531	230.936813
649.998936	6047.948333	310.349609	158.886856
649.998936	6047.948333	309.054688	229.101379
649.998936	6047.948333	307.759766	198.103302
649.998936	6047.948333	306.464844	321.322357
649.998936	6047.948333	305.168945	257.004425
649.998936	6047.948333	303.873047	331.275726
649.998936	6047.948333	302.577148	483.663239
649.998936	6047.948333	301.281250	689.953369
649.998936	6047.948333	299.984375	650.120056
