#X		#Y		#Wave		#Intensity
29683.635957	-1289.083000	1999.980469	181.373367
29683.635957	-1289.083000	1999.016602	-127.149796
29683.635957	-1289.083000	1998.052734	-112.123329
29683.635957	-1289.083000	1997.087891	29.123320
29683.635957	-1289.083000	1996.123047	306.432037
29683.635957	-1289.083000	1995.158203	26.112825
29683.635957	-1289.083000	1994.193359	-16.482977
29683.635957	-1289.083000	1993.228516	79.466141
29683.635957	-1289.083000	1992.262695	-55.009159
29683.635957	-1289.083000	1991.297852	-3.919799
29683.635957	-1289.083000	1990.332031	-51.973419
29683.635957	-1289.083000	1989.366211	53.279755
29683.635957	-1289.083000	1988.399414	-39.545509
29683.635957	-1289.083000	1987.433594	-55.777802
29683.635957	-1289.083000	1986.466797	21.860233
29683.635957	-1289.083000	1985.500977	-41.582745
29683.635957	-1289.083000	1984.534180	117.387764
29683.635957	-1289.083000	1983.567383	-114.333405
29683.635957	-1289.083000	1982.599609	-27.276167
29683.635957	-1289.083000	1981.632813	96.712196
29683.635957	-1289.083000	1980.665039	146.454132
29683.635957	-1289.083000	1979.697266	70.124405
29683.635957	-1289.083000	1978.729492	20.900684
29683.635957	-1289.083000	1977.761719	13.584114
29683.635957	-1289.083000	1976.792969	181.454346
29683.635957	-1289.083000	1975.825195	124.593910
29683.635957	-1289.083000	1974.856445	35.603588
29683.635957	-1289.083000	1973.887695	35.391602
29683.635957	-1289.083000	1972.918945	109.111778
29683.635957	-1289.083000	1971.949219	160.544022
29683.635957	-1289.083000	1970.980469	22.032486
29683.635957	-1289.083000	1970.010742	-81.972496
29683.635957	-1289.083000	1969.041016	16.119923
29683.635957	-1289.083000	1968.071289	42.654644
29683.635957	-1289.083000	1967.101563	101.158615
29683.635957	-1289.083000	1966.130859	26.565832
29683.635957	-1289.083000	1965.161133	-8.639149
29683.635957	-1289.083000	1964.190430	2.912912
29683.635957	-1289.083000	1963.219727	117.825516
29683.635957	-1289.083000	1962.249023	-57.816578
29683.635957	-1289.083000	1961.277344	189.889343
29683.635957	-1289.083000	1960.306641	83.125252
29683.635957	-1289.083000	1959.334961	87.078041
29683.635957	-1289.083000	1958.363281	63.939995
29683.635957	-1289.083000	1957.391602	70.292175
29683.635957	-1289.083000	1956.419922	0.388919
29683.635957	-1289.083000	1955.447266	-20.346079
29683.635957	-1289.083000	1954.474609	116.211021
29683.635957	-1289.083000	1953.501953	73.296829
29683.635957	-1289.083000	1952.529297	54.948193
29683.635957	-1289.083000	1951.556641	188.895264
29683.635957	-1289.083000	1950.583984	131.195786
29683.635957	-1289.083000	1949.610352	61.223236
29683.635957	-1289.083000	1948.636719	57.552448
29683.635957	-1289.083000	1947.663086	-7.499200
29683.635957	-1289.083000	1946.689453	-57.813614
29683.635957	-1289.083000	1945.715820	196.157928
29683.635957	-1289.083000	1944.741211	199.778839
29683.635957	-1289.083000	1943.767578	31.685053
29683.635957	-1289.083000	1942.792969	18.152775
29683.635957	-1289.083000	1941.818359	11.975379
29683.635957	-1289.083000	1940.842773	10.699189
29683.635957	-1289.083000	1939.868164	102.561584
29683.635957	-1289.083000	1938.892578	-136.450989
29683.635957	-1289.083000	1937.916992	28.906860
29683.635957	-1289.083000	1936.941406	-94.867317
29683.635957	-1289.083000	1935.965820	23.884150
29683.635957	-1289.083000	1934.990234	-60.660099
29683.635957	-1289.083000	1934.013672	45.802338
29683.635957	-1289.083000	1933.037109	51.863331
29683.635957	-1289.083000	1932.060547	55.478748
29683.635957	-1289.083000	1931.083984	115.377861
29683.635957	-1289.083000	1930.107422	-66.947884
29683.635957	-1289.083000	1929.129883	117.713425
29683.635957	-1289.083000	1928.153320	148.237839
29683.635957	-1289.083000	1927.175781	-48.643448
29683.635957	-1289.083000	1926.198242	-32.753384
29683.635957	-1289.083000	1925.219727	78.466042
29683.635957	-1289.083000	1924.242188	33.249084
29683.635957	-1289.083000	1923.263672	-136.553482
29683.635957	-1289.083000	1922.285156	30.837759
29683.635957	-1289.083000	1921.306641	32.090744
29683.635957	-1289.083000	1920.328125	96.846008
29683.635957	-1289.083000	1919.349609	-58.150463
29683.635957	-1289.083000	1918.370117	-3.144500
29683.635957	-1289.083000	1917.391602	-114.110207
29683.635957	-1289.083000	1916.412109	116.601486
29683.635957	-1289.083000	1915.431641	17.878574
29683.635957	-1289.083000	1914.452148	-17.374769
29683.635957	-1289.083000	1913.472656	8.368466
29683.635957	-1289.083000	1912.492188	-4.898856
29683.635957	-1289.083000	1911.511719	18.420641
29683.635957	-1289.083000	1910.531250	-16.753458
29683.635957	-1289.083000	1909.550781	23.645380
29683.635957	-1289.083000	1908.569336	-106.514046
29683.635957	-1289.083000	1907.588867	36.229214
29683.635957	-1289.083000	1906.607422	27.924635
29683.635957	-1289.083000	1905.625977	24.507275
29683.635957	-1289.083000	1904.644531	-0.807515
29683.635957	-1289.083000	1903.662109	44.495029
29683.635957	-1289.083000	1902.680664	87.360474
29683.635957	-1289.083000	1901.698242	25.590296
29683.635957	-1289.083000	1900.715820	51.440666
29683.635957	-1289.083000	1899.733398	118.646866
29683.635957	-1289.083000	1898.750000	73.970711
29683.635957	-1289.083000	1897.767578	-55.778706
29683.635957	-1289.083000	1896.784180	47.916462
29683.635957	-1289.083000	1895.800781	-16.125757
29683.635957	-1289.083000	1894.817383	-2.365973
29683.635957	-1289.083000	1893.833984	-80.926918
29683.635957	-1289.083000	1892.850586	-6.403011
29683.635957	-1289.083000	1891.866211	2.528568
29683.635957	-1289.083000	1890.881836	30.896160
29683.635957	-1289.083000	1889.897461	-32.994801
29683.635957	-1289.083000	1888.913086	-19.171415
29683.635957	-1289.083000	1887.927734	-44.173164
29683.635957	-1289.083000	1886.943359	18.200211
29683.635957	-1289.083000	1885.958008	99.971062
29683.635957	-1289.083000	1884.972656	111.379013
29683.635957	-1289.083000	1883.987305	25.786541
29683.635957	-1289.083000	1883.001953	78.445290
29683.635957	-1289.083000	1882.015625	-87.088539
29683.635957	-1289.083000	1881.029297	111.019814
29683.635957	-1289.083000	1880.042969	30.377895
29683.635957	-1289.083000	1879.056641	44.268559
29683.635957	-1289.083000	1878.070313	12.135770
29683.635957	-1289.083000	1877.083984	-109.589691
29683.635957	-1289.083000	1876.096680	-18.167051
29683.635957	-1289.083000	1875.109375	-127.720169
29683.635957	-1289.083000	1874.122070	89.558655
29683.635957	-1289.083000	1873.134766	-68.363213
29683.635957	-1289.083000	1872.146484	44.789185
29683.635957	-1289.083000	1871.159180	12.748374
29683.635957	-1289.083000	1870.170898	-57.975361
29683.635957	-1289.083000	1869.182617	-48.861931
29683.635957	-1289.083000	1868.194336	-5.896644
29683.635957	-1289.083000	1867.205078	-11.291366
29683.635957	-1289.083000	1866.216797	21.990553
29683.635957	-1289.083000	1865.227539	2.099542
29683.635957	-1289.083000	1864.238281	64.366188
29683.635957	-1289.083000	1863.249023	100.039536
29683.635957	-1289.083000	1862.259766	101.888641
29683.635957	-1289.083000	1861.269531	-166.710480
29683.635957	-1289.083000	1860.279297	-48.923878
29683.635957	-1289.083000	1859.290039	15.714277
29683.635957	-1289.083000	1858.298828	61.021904
29683.635957	-1289.083000	1857.308594	-48.115318
29683.635957	-1289.083000	1856.318359	132.283096
29683.635957	-1289.083000	1855.327148	76.235710
29683.635957	-1289.083000	1854.335938	73.261536
29683.635957	-1289.083000	1853.344727	-21.336220
29683.635957	-1289.083000	1852.353516	2.220263
29683.635957	-1289.083000	1851.362305	-24.849794
29683.635957	-1289.083000	1850.370117	78.212868
29683.635957	-1289.083000	1849.377930	-23.557602
29683.635957	-1289.083000	1848.385742	-36.167568
29683.635957	-1289.083000	1847.393555	62.006485
29683.635957	-1289.083000	1846.401367	-111.958321
29683.635957	-1289.083000	1845.408203	3.033185
29683.635957	-1289.083000	1844.415039	-86.622520
29683.635957	-1289.083000	1843.421875	42.745430
29683.635957	-1289.083000	1842.428711	44.532043
29683.635957	-1289.083000	1841.435547	-18.643560
29683.635957	-1289.083000	1840.441406	-36.105206
29683.635957	-1289.083000	1839.448242	177.286865
29683.635957	-1289.083000	1838.454102	51.580830
29683.635957	-1289.083000	1837.459961	82.161995
29683.635957	-1289.083000	1836.464844	26.198195
29683.635957	-1289.083000	1835.470703	143.255554
29683.635957	-1289.083000	1834.475586	101.692207
29683.635957	-1289.083000	1833.480469	-2.321806
29683.635957	-1289.083000	1832.485352	114.636353
29683.635957	-1289.083000	1831.490234	-25.384991
29683.635957	-1289.083000	1830.495117	31.488192
29683.635957	-1289.083000	1829.499023	42.721024
29683.635957	-1289.083000	1828.502930	37.135464
29683.635957	-1289.083000	1827.506836	156.301819
29683.635957	-1289.083000	1826.510742	1.934462
29683.635957	-1289.083000	1825.513672	-68.446854
29683.635957	-1289.083000	1824.517578	76.999237
29683.635957	-1289.083000	1823.520508	-94.100861
29683.635957	-1289.083000	1822.523438	24.891333
29683.635957	-1289.083000	1821.526367	-4.770744
29683.635957	-1289.083000	1820.529297	18.275244
29683.635957	-1289.083000	1819.531250	-23.391945
29683.635957	-1289.083000	1818.533203	-17.158167
29683.635957	-1289.083000	1817.535156	166.268616
29683.635957	-1289.083000	1816.537109	52.704350
29683.635957	-1289.083000	1815.539063	-120.686348
29683.635957	-1289.083000	1814.540039	179.871002
29683.635957	-1289.083000	1813.541992	-34.203678
29683.635957	-1289.083000	1812.542969	101.092125
29683.635957	-1289.083000	1811.543945	35.377132
29683.635957	-1289.083000	1810.543945	98.811966
29683.635957	-1289.083000	1809.544922	123.939331
29683.635957	-1289.083000	1808.544922	60.575047
29683.635957	-1289.083000	1807.544922	-2.790001
29683.635957	-1289.083000	1806.544922	53.335007
29683.635957	-1289.083000	1805.544922	1.890601
29683.635957	-1289.083000	1804.544922	17.330013
29683.635957	-1289.083000	1803.543945	27.959251
29683.635957	-1289.083000	1802.542969	52.885571
29683.635957	-1289.083000	1801.541992	13.310265
29683.635957	-1289.083000	1800.541016	73.981995
29683.635957	-1289.083000	1799.539063	-3.825530
29683.635957	-1289.083000	1798.538086	44.838223
29683.635957	-1289.083000	1797.536133	117.312012
29683.635957	-1289.083000	1796.534180	15.600251
29683.635957	-1289.083000	1795.532227	28.371565
29683.635957	-1289.083000	1794.529297	76.873657
29683.635957	-1289.083000	1793.527344	149.167252
29683.635957	-1289.083000	1792.524414	226.169464
29683.635957	-1289.083000	1791.521484	55.272079
29683.635957	-1289.083000	1790.518555	32.130577
29683.635957	-1289.083000	1789.514648	-41.059700
29683.635957	-1289.083000	1788.511719	54.847748
29683.635957	-1289.083000	1787.507813	153.067612
29683.635957	-1289.083000	1786.503906	-44.003231
29683.635957	-1289.083000	1785.500000	66.034363
29683.635957	-1289.083000	1784.496094	-111.971725
29683.635957	-1289.083000	1783.491211	-32.962997
29683.635957	-1289.083000	1782.486328	107.835968
29683.635957	-1289.083000	1781.481445	60.641743
29683.635957	-1289.083000	1780.476563	-36.508804
29683.635957	-1289.083000	1779.471680	120.751793
29683.635957	-1289.083000	1778.465820	154.302673
29683.635957	-1289.083000	1777.460938	-9.462778
29683.635957	-1289.083000	1776.455078	145.221252
29683.635957	-1289.083000	1775.449219	38.467888
29683.635957	-1289.083000	1774.442383	71.867104
29683.635957	-1289.083000	1773.436523	7.846263
29683.635957	-1289.083000	1772.429688	-103.677681
29683.635957	-1289.083000	1771.422852	53.072113
29683.635957	-1289.083000	1770.416016	74.430946
29683.635957	-1289.083000	1769.409180	-46.643810
29683.635957	-1289.083000	1768.402344	14.988806
29683.635957	-1289.083000	1767.394531	-8.841168
29683.635957	-1289.083000	1766.386719	17.108166
29683.635957	-1289.083000	1765.378906	171.063248
29683.635957	-1289.083000	1764.371094	4.852097
29683.635957	-1289.083000	1763.362305	104.154724
29683.635957	-1289.083000	1762.354492	158.353424
29683.635957	-1289.083000	1761.345703	30.038292
29683.635957	-1289.083000	1760.336914	65.201004
29683.635957	-1289.083000	1759.328125	-8.644359
29683.635957	-1289.083000	1758.318359	12.225533
29683.635957	-1289.083000	1757.308594	-19.040785
29683.635957	-1289.083000	1756.299805	18.320120
29683.635957	-1289.083000	1755.290039	13.023446
29683.635957	-1289.083000	1754.279297	-15.975386
29683.635957	-1289.083000	1753.269531	52.003990
29683.635957	-1289.083000	1752.258789	37.124828
29683.635957	-1289.083000	1751.249023	12.755152
29683.635957	-1289.083000	1750.238281	-16.375023
29683.635957	-1289.083000	1749.226563	-28.986025
29683.635957	-1289.083000	1748.215820	-81.811150
29683.635957	-1289.083000	1747.204102	26.042994
29683.635957	-1289.083000	1746.193359	6.229011
29683.635957	-1289.083000	1745.181641	142.295929
29683.635957	-1289.083000	1744.168945	129.471695
29683.635957	-1289.083000	1743.157227	-55.768093
29683.635957	-1289.083000	1742.144531	160.387604
29683.635957	-1289.083000	1741.132813	97.882790
29683.635957	-1289.083000	1740.120117	70.762276
29683.635957	-1289.083000	1739.106445	31.812630
29683.635957	-1289.083000	1738.093750	-30.749430
29683.635957	-1289.083000	1737.080078	-29.643465
29683.635957	-1289.083000	1736.067383	-120.545677
29683.635957	-1289.083000	1735.053711	-27.544395
29683.635957	-1289.083000	1734.040039	-64.272331
29683.635957	-1289.083000	1733.025391	-11.463417
29683.635957	-1289.083000	1732.011719	111.983810
29683.635957	-1289.083000	1730.997070	117.542274
29683.635957	-1289.083000	1729.982422	-91.296524
29683.635957	-1289.083000	1728.967773	-78.711670
29683.635957	-1289.083000	1727.952148	-35.561241
29683.635957	-1289.083000	1726.937500	-41.900627
29683.635957	-1289.083000	1725.921875	81.179298
29683.635957	-1289.083000	1724.906250	-42.923504
29683.635957	-1289.083000	1723.890625	117.681259
29683.635957	-1289.083000	1722.875000	10.011834
29683.635957	-1289.083000	1721.858398	-135.287598
29683.635957	-1289.083000	1720.841797	-33.658783
29683.635957	-1289.083000	1719.825195	63.192921
29683.635957	-1289.083000	1718.808594	-39.831902
29683.635957	-1289.083000	1717.791992	115.665390
29683.635957	-1289.083000	1716.774414	-27.350357
29683.635957	-1289.083000	1715.756836	-34.089233
29683.635957	-1289.083000	1714.739258	67.184341
29683.635957	-1289.083000	1713.721680	65.055550
29683.635957	-1289.083000	1712.704102	-45.112080
29683.635957	-1289.083000	1711.685547	-56.681484
29683.635957	-1289.083000	1710.667969	206.322906
29683.635957	-1289.083000	1709.649414	-28.283989
29683.635957	-1289.083000	1708.630859	77.352455
29683.635957	-1289.083000	1707.611328	98.466866
29683.635957	-1289.083000	1706.592773	-2.409249
29683.635957	-1289.083000	1705.573242	53.816628
29683.635957	-1289.083000	1704.553711	-33.016350
29683.635957	-1289.083000	1703.534180	-28.438168
29683.635957	-1289.083000	1702.513672	-14.523890
29683.635957	-1289.083000	1701.494141	-21.730938
29683.635957	-1289.083000	1700.473633	-89.876740
29683.635957	-1289.083000	1699.453125	31.680281
29683.635957	-1289.083000	1698.432617	-73.978996
29683.635957	-1289.083000	1697.412109	5.323491
29683.635957	-1289.083000	1696.390625	16.680008
29683.635957	-1289.083000	1695.369141	74.806984
29683.635957	-1289.083000	1694.347656	-96.421722
29683.635957	-1289.083000	1693.326172	-33.677151
29683.635957	-1289.083000	1692.304688	248.872589
29683.635957	-1289.083000	1691.282227	-55.677429
29683.635957	-1289.083000	1690.260742	205.667236
29683.635957	-1289.083000	1689.238281	130.267303
29683.635957	-1289.083000	1688.214844	148.349136
29683.635957	-1289.083000	1687.192383	63.586025
29683.635957	-1289.083000	1686.168945	-60.891903
29683.635957	-1289.083000	1685.146484	200.057999
29683.635957	-1289.083000	1684.123047	203.990067
29683.635957	-1289.083000	1683.099609	63.131355
29683.635957	-1289.083000	1682.075195	-5.336303
29683.635957	-1289.083000	1681.051758	38.231403
29683.635957	-1289.083000	1680.027344	32.749008
29683.635957	-1289.083000	1679.002930	57.573059
29683.635957	-1289.083000	1677.978516	243.314804
29683.635957	-1289.083000	1676.953125	88.457733
29683.635957	-1289.083000	1675.928711	78.207436
29683.635957	-1289.083000	1674.903320	156.522202
29683.635957	-1289.083000	1673.877930	118.242096
29683.635957	-1289.083000	1672.852539	96.265991
29683.635957	-1289.083000	1671.826172	132.520645
29683.635957	-1289.083000	1670.800781	24.314907
29683.635957	-1289.083000	1669.774414	144.370544
29683.635957	-1289.083000	1668.748047	159.572662
29683.635957	-1289.083000	1667.721680	228.295258
29683.635957	-1289.083000	1666.694336	127.045090
29683.635957	-1289.083000	1665.667969	256.215179
29683.635957	-1289.083000	1664.640625	136.344528
29683.635957	-1289.083000	1663.613281	190.977524
29683.635957	-1289.083000	1662.585938	126.949577
29683.635957	-1289.083000	1661.557617	74.551117
29683.635957	-1289.083000	1660.530273	177.934586
29683.635957	-1289.083000	1659.501953	248.712097
29683.635957	-1289.083000	1658.473633	10.340734
29683.635957	-1289.083000	1657.444336	150.795425
29683.635957	-1289.083000	1656.416016	302.800049
29683.635957	-1289.083000	1655.386719	192.255676
29683.635957	-1289.083000	1654.358398	23.685549
29683.635957	-1289.083000	1653.328125	205.756592
29683.635957	-1289.083000	1652.298828	276.320404
29683.635957	-1289.083000	1651.269531	242.400253
29683.635957	-1289.083000	1650.239258	234.001266
29683.635957	-1289.083000	1649.208984	74.789162
29683.635957	-1289.083000	1648.178711	335.475372
29683.635957	-1289.083000	1647.148438	336.303040
29683.635957	-1289.083000	1646.117188	244.366165
29683.635957	-1289.083000	1645.086914	423.695038
29683.635957	-1289.083000	1644.055664	350.298401
29683.635957	-1289.083000	1643.024414	344.123810
29683.635957	-1289.083000	1641.992188	141.000046
29683.635957	-1289.083000	1640.960938	287.736298
29683.635957	-1289.083000	1639.928711	290.810516
29683.635957	-1289.083000	1638.896484	530.062866
29683.635957	-1289.083000	1637.864258	188.121201
29683.635957	-1289.083000	1636.832031	452.747314
29683.635957	-1289.083000	1635.798828	446.497070
29683.635957	-1289.083000	1634.766602	238.949707
29683.635957	-1289.083000	1633.733398	276.685150
29683.635957	-1289.083000	1632.699219	409.223450
29683.635957	-1289.083000	1631.666016	458.463684
29683.635957	-1289.083000	1630.632813	433.698029
29683.635957	-1289.083000	1629.598633	288.734314
29683.635957	-1289.083000	1628.564453	407.286713
29683.635957	-1289.083000	1627.530273	437.987091
29683.635957	-1289.083000	1626.495117	343.919128
29683.635957	-1289.083000	1625.460938	508.580566
29683.635957	-1289.083000	1624.425781	342.945862
29683.635957	-1289.083000	1623.390625	489.066650
29683.635957	-1289.083000	1622.355469	535.871155
29683.635957	-1289.083000	1621.319336	488.027527
29683.635957	-1289.083000	1620.284180	608.655090
29683.635957	-1289.083000	1619.248047	491.607758
29683.635957	-1289.083000	1618.211914	529.149963
29683.635957	-1289.083000	1617.174805	432.919159
29683.635957	-1289.083000	1616.138672	555.774353
29683.635957	-1289.083000	1615.101563	600.202332
29683.635957	-1289.083000	1614.065430	504.029755
29683.635957	-1289.083000	1613.027344	617.585449
29683.635957	-1289.083000	1611.990234	645.862488
29683.635957	-1289.083000	1610.953125	455.307373
29683.635957	-1289.083000	1609.915039	651.730835
29683.635957	-1289.083000	1608.876953	654.670837
29683.635957	-1289.083000	1607.838867	567.835388
29683.635957	-1289.083000	1606.800781	750.334351
29683.635957	-1289.083000	1605.761719	679.633789
29683.635957	-1289.083000	1604.723633	698.703491
29683.635957	-1289.083000	1603.684570	717.770508
29683.635957	-1289.083000	1602.644531	752.934021
29683.635957	-1289.083000	1601.605469	634.038635
29683.635957	-1289.083000	1600.566406	745.096436
29683.635957	-1289.083000	1599.526367	911.281494
29683.635957	-1289.083000	1598.486328	693.638062
29683.635957	-1289.083000	1597.446289	839.113770
29683.635957	-1289.083000	1596.405273	541.189087
29683.635957	-1289.083000	1595.365234	656.807068
29683.635957	-1289.083000	1594.324219	620.835632
29683.635957	-1289.083000	1593.283203	757.078674
29683.635957	-1289.083000	1592.242188	787.696289
29683.635957	-1289.083000	1591.200195	790.774414
29683.635957	-1289.083000	1590.159180	745.687134
29683.635957	-1289.083000	1589.117188	409.288361
29683.635957	-1289.083000	1588.075195	696.890198
29683.635957	-1289.083000	1587.032227	456.973541
29683.635957	-1289.083000	1585.990234	519.806458
29683.635957	-1289.083000	1584.947266	557.414368
29683.635957	-1289.083000	1583.904297	624.819214
29683.635957	-1289.083000	1582.861328	506.618652
29683.635957	-1289.083000	1581.818359	445.756439
29683.635957	-1289.083000	1580.775391	636.886414
29683.635957	-1289.083000	1579.731445	518.809448
29683.635957	-1289.083000	1578.687500	542.751038
29683.635957	-1289.083000	1577.643555	578.150574
29683.635957	-1289.083000	1576.598633	471.658142
29683.635957	-1289.083000	1575.554688	584.901184
29683.635957	-1289.083000	1574.509766	528.824951
29683.635957	-1289.083000	1573.464844	433.910706
29683.635957	-1289.083000	1572.419922	549.447388
29683.635957	-1289.083000	1571.374023	520.915771
29683.635957	-1289.083000	1570.329102	428.417694
29683.635957	-1289.083000	1569.283203	475.392761
29683.635957	-1289.083000	1568.237305	529.230774
29683.635957	-1289.083000	1567.191406	521.389038
29683.635957	-1289.083000	1566.144531	552.403809
29683.635957	-1289.083000	1565.098633	419.010254
29683.635957	-1289.083000	1564.051758	509.452576
29683.635957	-1289.083000	1563.004883	435.524567
29683.635957	-1289.083000	1561.957031	583.039795
29683.635957	-1289.083000	1560.910156	385.960327
29683.635957	-1289.083000	1559.862305	380.626740
29683.635957	-1289.083000	1558.814453	539.558838
29683.635957	-1289.083000	1557.766602	386.020142
29683.635957	-1289.083000	1556.718750	460.584839
29683.635957	-1289.083000	1555.669922	348.213562
29683.635957	-1289.083000	1554.621094	377.230713
29683.635957	-1289.083000	1553.573242	488.307129
29683.635957	-1289.083000	1552.523438	437.604065
29683.635957	-1289.083000	1551.474609	384.678833
29683.635957	-1289.083000	1550.424805	217.932068
29683.635957	-1289.083000	1549.375000	160.580078
29683.635957	-1289.083000	1548.325195	371.916168
29683.635957	-1289.083000	1547.275391	364.698029
29683.635957	-1289.083000	1546.225586	241.459717
29683.635957	-1289.083000	1545.174805	261.638763
29683.635957	-1289.083000	1544.124023	363.736420
29683.635957	-1289.083000	1543.073242	222.479568
29683.635957	-1289.083000	1542.022461	495.155212
29683.635957	-1289.083000	1540.970703	88.009071
29683.635957	-1289.083000	1539.919922	367.496033
29683.635957	-1289.083000	1538.868164	444.653656
29683.635957	-1289.083000	1537.815430	258.256317
29683.635957	-1289.083000	1536.763672	367.283081
29683.635957	-1289.083000	1535.710938	335.489960
29683.635957	-1289.083000	1534.659180	351.435944
29683.635957	-1289.083000	1533.606445	224.385056
29683.635957	-1289.083000	1532.552734	247.228806
29683.635957	-1289.083000	1531.500000	283.722198
29683.635957	-1289.083000	1530.446289	315.700287
29683.635957	-1289.083000	1529.393555	315.950134
29683.635957	-1289.083000	1528.338867	186.958084
29683.635957	-1289.083000	1527.285156	293.888245
29683.635957	-1289.083000	1526.231445	253.454071
29683.635957	-1289.083000	1525.176758	296.942322
29683.635957	-1289.083000	1524.122070	73.039520
29683.635957	-1289.083000	1523.067383	291.095520
29683.635957	-1289.083000	1522.012695	65.101837
29683.635957	-1289.083000	1520.957031	212.944504
29683.635957	-1289.083000	1519.901367	175.087677
29683.635957	-1289.083000	1518.845703	150.873398
29683.635957	-1289.083000	1517.790039	165.192566
29683.635957	-1289.083000	1516.734375	283.652344
29683.635957	-1289.083000	1515.677734	270.873352
29683.635957	-1289.083000	1514.621094	111.100754
29683.635957	-1289.083000	1513.564453	64.524254
29683.635957	-1289.083000	1512.507813	8.965852
29683.635957	-1289.083000	1511.450195	208.949646
29683.635957	-1289.083000	1510.393555	110.527740
29683.635957	-1289.083000	1509.335938	23.488396
29683.635957	-1289.083000	1508.278320	76.619461
29683.635957	-1289.083000	1507.219727	66.519897
29683.635957	-1289.083000	1506.162109	110.679932
29683.635957	-1289.083000	1505.103516	218.095657
29683.635957	-1289.083000	1504.044922	122.320854
29683.635957	-1289.083000	1502.986328	-13.999770
29683.635957	-1289.083000	1501.926758	-41.892529
29683.635957	-1289.083000	1500.868164	61.145020
29683.635957	-1289.083000	1499.808594	-32.078587
29683.635957	-1289.083000	1498.749023	-53.041077
29683.635957	-1289.083000	1497.688477	-26.593307
29683.635957	-1289.083000	1496.628906	24.694998
29683.635957	-1289.083000	1495.568359	-93.050865
29683.635957	-1289.083000	1494.507813	-32.659412
29683.635957	-1289.083000	1493.447266	-37.586552
29683.635957	-1289.083000	1492.386719	112.979866
29683.635957	-1289.083000	1491.325195	184.702881
29683.635957	-1289.083000	1490.263672	-40.804302
29683.635957	-1289.083000	1489.202148	-158.102615
29683.635957	-1289.083000	1488.140625	-5.183631
29683.635957	-1289.083000	1487.079102	-147.098511
29683.635957	-1289.083000	1486.016602	21.607525
29683.635957	-1289.083000	1484.954102	-167.399384
29683.635957	-1289.083000	1483.891602	-97.621109
29683.635957	-1289.083000	1482.829102	-52.557041
29683.635957	-1289.083000	1481.765625	-128.868958
29683.635957	-1289.083000	1480.702148	10.694049
29683.635957	-1289.083000	1479.638672	1.926487
29683.635957	-1289.083000	1478.575195	139.246887
29683.635957	-1289.083000	1477.511719	36.235405
29683.635957	-1289.083000	1476.447266	68.045433
29683.635957	-1289.083000	1475.382813	41.475452
29683.635957	-1289.083000	1474.318359	35.284313
29683.635957	-1289.083000	1473.253906	53.723045
29683.635957	-1289.083000	1472.189453	40.879581
29683.635957	-1289.083000	1471.124023	140.162903
29683.635957	-1289.083000	1470.058594	100.549957
29683.635957	-1289.083000	1468.993164	166.270752
29683.635957	-1289.083000	1467.927734	113.300392
29683.635957	-1289.083000	1466.861328	197.029495
29683.635957	-1289.083000	1465.794922	262.752167
29683.635957	-1289.083000	1464.728516	272.649109
29683.635957	-1289.083000	1463.662109	347.431702
29683.635957	-1289.083000	1462.594727	388.813019
29683.635957	-1289.083000	1461.528320	396.621429
29683.635957	-1289.083000	1460.460938	357.519867
29683.635957	-1289.083000	1459.393555	432.344116
29683.635957	-1289.083000	1458.326172	422.663452
29683.635957	-1289.083000	1457.257813	412.402130
29683.635957	-1289.083000	1456.189453	407.223389
29683.635957	-1289.083000	1455.121094	665.046143
29683.635957	-1289.083000	1454.052734	666.334717
29683.635957	-1289.083000	1452.984375	629.483582
29683.635957	-1289.083000	1451.915039	691.147583
29683.635957	-1289.083000	1450.845703	438.704193
29683.635957	-1289.083000	1449.776367	395.950653
29683.635957	-1289.083000	1448.707031	534.338074
29683.635957	-1289.083000	1447.636719	505.974121
29683.635957	-1289.083000	1446.567383	463.302490
29683.635957	-1289.083000	1445.497070	563.238342
29683.635957	-1289.083000	1444.425781	617.041077
29683.635957	-1289.083000	1443.355469	568.445007
29683.635957	-1289.083000	1442.285156	497.000336
29683.635957	-1289.083000	1441.213867	419.800293
29683.635957	-1289.083000	1440.142578	390.563568
29683.635957	-1289.083000	1439.070313	425.400085
29683.635957	-1289.083000	1437.999023	432.374359
29683.635957	-1289.083000	1436.926758	397.383209
29683.635957	-1289.083000	1435.854492	310.005890
29683.635957	-1289.083000	1434.782227	177.584610
29683.635957	-1289.083000	1433.709961	330.646057
29683.635957	-1289.083000	1432.636719	388.570068
29683.635957	-1289.083000	1431.563477	472.033295
29683.635957	-1289.083000	1430.490234	187.726044
29683.635957	-1289.083000	1429.416992	346.357666
29683.635957	-1289.083000	1428.343750	308.164825
29683.635957	-1289.083000	1427.269531	238.547546
29683.635957	-1289.083000	1426.195313	61.173958
29683.635957	-1289.083000	1425.121094	304.017059
29683.635957	-1289.083000	1424.046875	189.035675
29683.635957	-1289.083000	1422.971680	119.232048
29683.635957	-1289.083000	1421.896484	10.823908
29683.635957	-1289.083000	1420.821289	91.247620
29683.635957	-1289.083000	1419.746094	266.749573
29683.635957	-1289.083000	1418.669922	133.882004
29683.635957	-1289.083000	1417.594727	156.188416
29683.635957	-1289.083000	1416.518555	277.039581
29683.635957	-1289.083000	1415.442383	187.315018
29683.635957	-1289.083000	1414.365234	121.644249
29683.635957	-1289.083000	1413.289063	80.644188
29683.635957	-1289.083000	1412.211914	281.038452
29683.635957	-1289.083000	1411.134766	281.013977
29683.635957	-1289.083000	1410.057617	139.081360
29683.635957	-1289.083000	1408.979492	234.440094
29683.635957	-1289.083000	1407.902344	257.294037
29683.635957	-1289.083000	1406.824219	248.187042
29683.635957	-1289.083000	1405.746094	261.515320
29683.635957	-1289.083000	1404.666992	320.020081
29683.635957	-1289.083000	1403.588867	278.844238
29683.635957	-1289.083000	1402.509766	279.252228
29683.635957	-1289.083000	1401.430664	367.769440
29683.635957	-1289.083000	1400.351563	330.136871
29683.635957	-1289.083000	1399.271484	464.490387
29683.635957	-1289.083000	1398.192383	259.854401
29683.635957	-1289.083000	1397.112305	246.075211
29683.635957	-1289.083000	1396.031250	299.571625
29683.635957	-1289.083000	1394.951172	350.420471
29683.635957	-1289.083000	1393.871094	310.846588
29683.635957	-1289.083000	1392.790039	207.344040
29683.635957	-1289.083000	1391.708984	379.794769
29683.635957	-1289.083000	1390.626953	248.409744
29683.635957	-1289.083000	1389.545898	304.981140
29683.635957	-1289.083000	1388.463867	258.158630
29683.635957	-1289.083000	1387.381836	236.344559
29683.635957	-1289.083000	1386.299805	284.188507
29683.635957	-1289.083000	1385.217773	253.098419
29683.635957	-1289.083000	1384.134766	221.786392
29683.635957	-1289.083000	1383.051758	297.217041
29683.635957	-1289.083000	1381.968750	238.701111
29683.635957	-1289.083000	1380.885742	250.502945
29683.635957	-1289.083000	1379.802734	213.878113
29683.635957	-1289.083000	1378.718750	303.465179
29683.635957	-1289.083000	1377.634766	172.016632
29683.635957	-1289.083000	1376.550781	339.855896
29683.635957	-1289.083000	1375.465820	214.751999
29683.635957	-1289.083000	1374.381836	207.906204
29683.635957	-1289.083000	1373.296875	223.705078
29683.635957	-1289.083000	1372.211914	88.740265
29683.635957	-1289.083000	1371.126953	207.344940
29683.635957	-1289.083000	1370.041016	110.646217
29683.635957	-1289.083000	1368.955078	185.752243
29683.635957	-1289.083000	1367.869141	30.649487
29683.635957	-1289.083000	1366.783203	167.065170
29683.635957	-1289.083000	1365.697266	173.982346
29683.635957	-1289.083000	1364.610352	126.667938
29683.635957	-1289.083000	1363.523438	167.627853
29683.635957	-1289.083000	1362.436523	32.668381
29683.635957	-1289.083000	1361.349609	90.325798
29683.635957	-1289.083000	1360.261719	138.203094
29683.635957	-1289.083000	1359.174805	140.932159
29683.635957	-1289.083000	1358.086914	73.122643
29683.635957	-1289.083000	1356.998047	237.951035
29683.635957	-1289.083000	1355.910156	285.606689
29683.635957	-1289.083000	1354.821289	147.072433
29683.635957	-1289.083000	1353.732422	114.133698
29683.635957	-1289.083000	1352.643555	115.678764
29683.635957	-1289.083000	1351.554688	119.917244
29683.635957	-1289.083000	1350.464844	61.878628
29683.635957	-1289.083000	1349.375000	74.873077
29683.635957	-1289.083000	1348.285156	-36.953781
29683.635957	-1289.083000	1347.195313	127.689674
29683.635957	-1289.083000	1346.105469	115.615578
29683.635957	-1289.083000	1345.014648	-83.363731
29683.635957	-1289.083000	1343.923828	265.912842
29683.635957	-1289.083000	1342.833008	-28.130308
29683.635957	-1289.083000	1341.741211	159.521423
29683.635957	-1289.083000	1340.650391	177.872925
29683.635957	-1289.083000	1339.558594	133.712540
29683.635957	-1289.083000	1338.466797	120.397003
29683.635957	-1289.083000	1337.374023	161.990295
29683.635957	-1289.083000	1336.282227	246.680710
29683.635957	-1289.083000	1335.189453	134.085373
29683.635957	-1289.083000	1334.096680	194.220123
29683.635957	-1289.083000	1333.003906	275.673401
29683.635957	-1289.083000	1331.910156	201.638275
29683.635957	-1289.083000	1330.817383	186.395004
29683.635957	-1289.083000	1329.723633	189.769485
29683.635957	-1289.083000	1328.629883	263.452209
29683.635957	-1289.083000	1327.535156	316.554749
29683.635957	-1289.083000	1326.441406	247.339142
29683.635957	-1289.083000	1325.346680	54.398048
29683.635957	-1289.083000	1324.251953	109.255859
29683.635957	-1289.083000	1323.156250	123.551537
29683.635957	-1289.083000	1322.061523	108.260849
29683.635957	-1289.083000	1320.965820	263.818909
29683.635957	-1289.083000	1319.870117	89.361801
29683.635957	-1289.083000	1318.774414	141.680161
29683.635957	-1289.083000	1317.678711	246.260391
29683.635957	-1289.083000	1316.582031	185.031647
29683.635957	-1289.083000	1315.485352	219.239792
29683.635957	-1289.083000	1314.388672	192.716461
29683.635957	-1289.083000	1313.291016	141.185776
29683.635957	-1289.083000	1312.194336	262.773987
29683.635957	-1289.083000	1311.096680	334.542542
29683.635957	-1289.083000	1309.999023	149.062439
29683.635957	-1289.083000	1308.901367	129.533432
29683.635957	-1289.083000	1307.802734	29.375555
29683.635957	-1289.083000	1306.705078	182.251022
29683.635957	-1289.083000	1305.606445	217.306885
29683.635957	-1289.083000	1304.506836	215.147278
29683.635957	-1289.083000	1303.408203	119.449005
29683.635957	-1289.083000	1302.308594	202.321579
29683.635957	-1289.083000	1301.208984	198.307068
29683.635957	-1289.083000	1300.109375	123.224403
29683.635957	-1289.083000	1299.009766	219.397888
29683.635957	-1289.083000	1297.909180	271.382874
29683.635957	-1289.083000	1296.808594	257.493347
29683.635957	-1289.083000	1295.708008	188.564865
29683.635957	-1289.083000	1294.607422	288.719055
29683.635957	-1289.083000	1293.506836	164.789505
29683.635957	-1289.083000	1292.405273	186.700806
29683.635957	-1289.083000	1291.303711	182.360123
29683.635957	-1289.083000	1290.202148	72.992638
29683.635957	-1289.083000	1289.099609	151.319336
29683.635957	-1289.083000	1287.998047	76.907806
29683.635957	-1289.083000	1286.895508	68.552475
29683.635957	-1289.083000	1285.792969	189.554016
29683.635957	-1289.083000	1284.689453	147.512863
29683.635957	-1289.083000	1283.586914	83.318291
29683.635957	-1289.083000	1282.483398	117.450851
29683.635957	-1289.083000	1281.379883	5.377197
29683.635957	-1289.083000	1280.276367	32.261486
29683.635957	-1289.083000	1279.171875	104.453209
29683.635957	-1289.083000	1278.067383	98.856506
29683.635957	-1289.083000	1276.962891	76.264915
29683.635957	-1289.083000	1275.858398	29.690760
29683.635957	-1289.083000	1274.753906	31.855316
29683.635957	-1289.083000	1273.648438	43.790733
29683.635957	-1289.083000	1272.542969	-10.893806
29683.635957	-1289.083000	1271.437500	99.743210
29683.635957	-1289.083000	1270.331055	62.314983
29683.635957	-1289.083000	1269.225586	23.360556
29683.635957	-1289.083000	1268.119141	64.466110
29683.635957	-1289.083000	1267.012695	174.419037
29683.635957	-1289.083000	1265.906250	131.081268
29683.635957	-1289.083000	1264.798828	126.113388
29683.635957	-1289.083000	1263.691406	83.308159
29683.635957	-1289.083000	1262.583984	98.475273
29683.635957	-1289.083000	1261.476563	25.948811
29683.635957	-1289.083000	1260.368164	53.998283
29683.635957	-1289.083000	1259.260742	-13.137129
29683.635957	-1289.083000	1258.152344	-4.829671
29683.635957	-1289.083000	1257.043945	138.935577
29683.635957	-1289.083000	1255.934570	79.018448
29683.635957	-1289.083000	1254.825195	-48.329811
29683.635957	-1289.083000	1253.716797	-25.030792
29683.635957	-1289.083000	1252.606445	-69.600937
29683.635957	-1289.083000	1251.497070	26.312387
29683.635957	-1289.083000	1250.387695	63.639339
29683.635957	-1289.083000	1249.277344	17.484875
29683.635957	-1289.083000	1248.166992	-92.707848
29683.635957	-1289.083000	1247.055664	4.352647
29683.635957	-1289.083000	1245.945313	10.554033
29683.635957	-1289.083000	1244.833984	-17.078001
29683.635957	-1289.083000	1243.722656	82.313293
29683.635957	-1289.083000	1242.611328	-41.330528
29683.635957	-1289.083000	1241.499023	-32.984600
29683.635957	-1289.083000	1240.387695	-57.821270
29683.635957	-1289.083000	1239.275391	-61.076099
29683.635957	-1289.083000	1238.162109	17.624096
29683.635957	-1289.083000	1237.049805	-10.381767
29683.635957	-1289.083000	1235.936523	-86.153984
29683.635957	-1289.083000	1234.823242	15.252136
29683.635957	-1289.083000	1233.709961	-44.487465
29683.635957	-1289.083000	1232.596680	-45.974670
29683.635957	-1289.083000	1231.482422	1.565844
29683.635957	-1289.083000	1230.369141	120.170837
29683.635957	-1289.083000	1229.253906	44.521889
29683.635957	-1289.083000	1228.139648	31.921165
29683.635957	-1289.083000	1227.025391	-81.205620
29683.635957	-1289.083000	1225.910156	-82.150055
29683.635957	-1289.083000	1224.794922	-77.650970
29683.635957	-1289.083000	1223.679688	-48.556812
29683.635957	-1289.083000	1222.563477	-54.286636
29683.635957	-1289.083000	1221.447266	-133.603149
29683.635957	-1289.083000	1220.331055	-30.941730
29683.635957	-1289.083000	1219.214844	26.670004
29683.635957	-1289.083000	1218.098633	-45.544125
29683.635957	-1289.083000	1216.981445	-36.170689
29683.635957	-1289.083000	1215.864258	-82.023125
29683.635957	-1289.083000	1214.747070	-100.285309
29683.635957	-1289.083000	1213.629883	7.555169
29683.635957	-1289.083000	1212.511719	-2.966711
29683.635957	-1289.083000	1211.393555	-68.579865
29683.635957	-1289.083000	1210.275391	5.261832
29683.635957	-1289.083000	1209.157227	73.526848
29683.635957	-1289.083000	1208.038086	12.668095
29683.635957	-1289.083000	1206.918945	-40.042305
29683.635957	-1289.083000	1205.799805	36.099003
29683.635957	-1289.083000	1204.680664	-13.933636
29683.635957	-1289.083000	1203.560547	49.550446
29683.635957	-1289.083000	1202.441406	48.709183
29683.635957	-1289.083000	1201.321289	54.204906
29683.635957	-1289.083000	1200.200195	-29.066181
29683.635957	-1289.083000	1199.080078	-69.748299
29683.635957	-1289.083000	1197.958984	-41.886223
29683.635957	-1289.083000	1196.837891	0.929523
29683.635957	-1289.083000	1195.716797	3.905246
29683.635957	-1289.083000	1194.594727	10.192941
29683.635957	-1289.083000	1193.473633	-70.372932
29683.635957	-1289.083000	1192.351563	6.626594
29683.635957	-1289.083000	1191.229492	-13.747560
29683.635957	-1289.083000	1190.106445	28.732729
29683.635957	-1289.083000	1188.984375	9.368362
29683.635957	-1289.083000	1187.861328	-31.750910
29683.635957	-1289.083000	1186.738281	70.984741
29683.635957	-1289.083000	1185.614258	66.080727
29683.635957	-1289.083000	1184.491211	-12.829879
29683.635957	-1289.083000	1183.367188	30.721464
29683.635957	-1289.083000	1182.243164	1.924740
29683.635957	-1289.083000	1181.119141	64.097626
29683.635957	-1289.083000	1179.994141	-98.159813
29683.635957	-1289.083000	1178.869141	-24.189266
29683.635957	-1289.083000	1177.744141	-17.107616
29683.635957	-1289.083000	1176.619141	-14.957531
29683.635957	-1289.083000	1175.493164	-35.596516
29683.635957	-1289.083000	1174.368164	49.946247
29683.635957	-1289.083000	1173.242188	43.057465
29683.635957	-1289.083000	1172.115234	-8.271384
29683.635957	-1289.083000	1170.989258	6.991180
29683.635957	-1289.083000	1169.862305	-14.729655
29683.635957	-1289.083000	1168.735352	-63.601566
29683.635957	-1289.083000	1167.608398	45.585735
29683.635957	-1289.083000	1166.481445	61.737381
29683.635957	-1289.083000	1165.353516	55.375595
29683.635957	-1289.083000	1164.225586	38.815220
29683.635957	-1289.083000	1163.097656	100.941360
29683.635957	-1289.083000	1161.968750	51.209808
29683.635957	-1289.083000	1160.840820	20.106504
29683.635957	-1289.083000	1159.711914	-9.634590
29683.635957	-1289.083000	1158.583008	-5.643356
29683.635957	-1289.083000	1157.453125	-46.287319
29683.635957	-1289.083000	1156.324219	-75.007599
29683.635957	-1289.083000	1155.194336	10.325116
29683.635957	-1289.083000	1154.064453	-133.862320
29683.635957	-1289.083000	1152.933594	-137.010727
29683.635957	-1289.083000	1151.803711	-22.369669
29683.635957	-1289.083000	1150.672852	-67.811920
29683.635957	-1289.083000	1149.541992	-62.559944
29683.635957	-1289.083000	1148.411133	19.803150
29683.635957	-1289.083000	1147.279297	-54.689930
29683.635957	-1289.083000	1146.147461	-125.579445
29683.635957	-1289.083000	1145.015625	-127.044693
29683.635957	-1289.083000	1143.883789	28.311228
29683.635957	-1289.083000	1142.750977	-77.526909
29683.635957	-1289.083000	1141.619141	-12.506471
29683.635957	-1289.083000	1140.486328	-22.475697
29683.635957	-1289.083000	1139.352539	36.898281
29683.635957	-1289.083000	1138.219727	17.949976
29683.635957	-1289.083000	1137.085938	2.099090
29683.635957	-1289.083000	1135.952148	22.192305
29683.635957	-1289.083000	1134.818359	32.528877
29683.635957	-1289.083000	1133.683594	120.677429
29683.635957	-1289.083000	1132.549805	173.448776
29683.635957	-1289.083000	1131.415039	255.442093
29683.635957	-1289.083000	1130.279297	403.829163
29683.635957	-1289.083000	1129.144531	476.291565
29683.635957	-1289.083000	1128.008789	310.682251
29683.635957	-1289.083000	1126.873047	286.494080
29683.635957	-1289.083000	1125.737305	288.079590
29683.635957	-1289.083000	1124.601563	207.290298
29683.635957	-1289.083000	1123.464844	227.077469
29683.635957	-1289.083000	1122.328125	147.866211
29683.635957	-1289.083000	1121.191406	199.689224
29683.635957	-1289.083000	1120.054688	144.009857
29683.635957	-1289.083000	1118.916992	253.179199
29683.635957	-1289.083000	1117.779297	215.852921
29683.635957	-1289.083000	1116.641602	210.614044
29683.635957	-1289.083000	1115.503906	185.149551
29683.635957	-1289.083000	1114.365234	95.831955
29683.635957	-1289.083000	1113.226563	328.963989
29683.635957	-1289.083000	1112.087891	174.115997
29683.635957	-1289.083000	1110.949219	191.001328
29683.635957	-1289.083000	1109.809570	257.201416
29683.635957	-1289.083000	1108.669922	303.517609
29683.635957	-1289.083000	1107.530273	138.005142
29683.635957	-1289.083000	1106.390625	111.761185
29683.635957	-1289.083000	1105.250000	204.456421
29683.635957	-1289.083000	1104.109375	171.574448
29683.635957	-1289.083000	1102.968750	245.352127
29683.635957	-1289.083000	1101.828125	225.083435
29683.635957	-1289.083000	1100.686523	189.005875
29683.635957	-1289.083000	1099.544922	173.293091
29683.635957	-1289.083000	1098.403320	151.669724
29683.635957	-1289.083000	1097.261719	228.590912
29683.635957	-1289.083000	1096.120117	180.015198
29683.635957	-1289.083000	1094.977539	154.469528
29683.635957	-1289.083000	1093.834961	153.052979
29683.635957	-1289.083000	1092.691406	209.255829
29683.635957	-1289.083000	1091.548828	242.448242
29683.635957	-1289.083000	1090.405273	92.339722
29683.635957	-1289.083000	1089.261719	182.293121
29683.635957	-1289.083000	1088.118164	55.079006
29683.635957	-1289.083000	1086.973633	232.326263
29683.635957	-1289.083000	1085.829102	43.011070
29683.635957	-1289.083000	1084.684570	94.842987
29683.635957	-1289.083000	1083.540039	194.172668
29683.635957	-1289.083000	1082.395508	180.446960
29683.635957	-1289.083000	1081.250000	48.584206
29683.635957	-1289.083000	1080.104492	90.299484
29683.635957	-1289.083000	1078.958984	158.650986
29683.635957	-1289.083000	1077.812500	169.771347
29683.635957	-1289.083000	1076.666016	152.551498
29683.635957	-1289.083000	1075.519531	221.919754
29683.635957	-1289.083000	1074.373047	118.529045
29683.635957	-1289.083000	1073.226563	138.320389
29683.635957	-1289.083000	1072.079102	253.578644
29683.635957	-1289.083000	1070.931641	195.481995
29683.635957	-1289.083000	1069.784180	162.606720
29683.635957	-1289.083000	1068.635742	203.548187
29683.635957	-1289.083000	1067.487305	327.784424
29683.635957	-1289.083000	1066.338867	247.384888
29683.635957	-1289.083000	1065.190430	234.245193
29683.635957	-1289.083000	1064.041992	223.872772
29683.635957	-1289.083000	1062.892578	236.366348
29683.635957	-1289.083000	1061.743164	220.282166
29683.635957	-1289.083000	1060.593750	22.334721
29683.635957	-1289.083000	1059.443359	185.503998
29683.635957	-1289.083000	1058.292969	201.878586
29683.635957	-1289.083000	1057.142578	37.816490
29683.635957	-1289.083000	1055.992188	148.233383
29683.635957	-1289.083000	1054.841797	144.352539
29683.635957	-1289.083000	1053.690430	143.122620
29683.635957	-1289.083000	1052.539063	72.388138
29683.635957	-1289.083000	1051.387695	200.533524
29683.635957	-1289.083000	1050.235352	6.196345
29683.635957	-1289.083000	1049.083984	4.937791
29683.635957	-1289.083000	1047.931641	138.526016
29683.635957	-1289.083000	1046.778320	23.404936
29683.635957	-1289.083000	1045.625977	31.200331
29683.635957	-1289.083000	1044.472656	49.893616
29683.635957	-1289.083000	1043.319336	94.875877
29683.635957	-1289.083000	1042.166016	99.464653
29683.635957	-1289.083000	1041.012695	94.186455
29683.635957	-1289.083000	1039.858398	80.049309
29683.635957	-1289.083000	1038.704102	-3.283655
29683.635957	-1289.083000	1037.549805	23.858137
29683.635957	-1289.083000	1036.394531	44.226311
29683.635957	-1289.083000	1035.239258	61.586601
29683.635957	-1289.083000	1034.083984	27.433796
29683.635957	-1289.083000	1032.928711	64.263168
29683.635957	-1289.083000	1031.773438	21.131523
29683.635957	-1289.083000	1030.617188	37.652222
29683.635957	-1289.083000	1029.460938	19.609158
29683.635957	-1289.083000	1028.304688	25.372126
29683.635957	-1289.083000	1027.147461	79.940186
29683.635957	-1289.083000	1025.991211	1.695086
29683.635957	-1289.083000	1024.833984	20.267096
29683.635957	-1289.083000	1023.675781	94.446373
29683.635957	-1289.083000	1022.518555	90.617691
29683.635957	-1289.083000	1021.360352	86.407318
29683.635957	-1289.083000	1020.202148	5.305356
29683.635957	-1289.083000	1019.043945	12.328077
29683.635957	-1289.083000	1017.884766	37.642395
29683.635957	-1289.083000	1016.726563	186.057571
29683.635957	-1289.083000	1015.567383	192.245605
29683.635957	-1289.083000	1014.407227	11.087002
29683.635957	-1289.083000	1013.248047	15.972173
29683.635957	-1289.083000	1012.087891	64.760048
29683.635957	-1289.083000	1010.927734	-23.387758
29683.635957	-1289.083000	1009.767578	61.671986
29683.635957	-1289.083000	1008.606445	-99.857292
29683.635957	-1289.083000	1007.446289	0.513581
29683.635957	-1289.083000	1006.285156	76.878761
29683.635957	-1289.083000	1005.123047	12.858501
29683.635957	-1289.083000	1003.961914	8.905933
29683.635957	-1289.083000	1002.799805	142.442276
29683.635957	-1289.083000	1001.637695	-3.025049
29683.635957	-1289.083000	1000.475586	23.075428
29683.635957	-1289.083000	999.312500	21.171141
29683.635957	-1289.083000	998.149414	126.306175
29683.635957	-1289.083000	996.986328	30.875734
29683.635957	-1289.083000	995.823242	140.435165
29683.635957	-1289.083000	994.659180	30.527580
29683.635957	-1289.083000	993.496094	-41.337990
29683.635957	-1289.083000	992.332031	-71.003250
29683.635957	-1289.083000	991.166992	-0.593553
29683.635957	-1289.083000	990.002930	-88.549492
29683.635957	-1289.083000	988.837891	9.006380
29683.635957	-1289.083000	987.672852	-135.680069
29683.635957	-1289.083000	986.506836	-39.386135
29683.635957	-1289.083000	985.341797	14.896902
29683.635957	-1289.083000	984.175781	-12.481923
29683.635957	-1289.083000	983.009766	-96.524261
29683.635957	-1289.083000	981.843750	73.260780
29683.635957	-1289.083000	980.676758	71.698410
29683.635957	-1289.083000	979.509766	61.974491
29683.635957	-1289.083000	978.342773	2.692719
29683.635957	-1289.083000	977.175781	-50.599854
29683.635957	-1289.083000	976.007813	47.480022
29683.635957	-1289.083000	974.839844	80.483994
29683.635957	-1289.083000	973.671875	47.109497
29683.635957	-1289.083000	972.503906	-51.281971
29683.635957	-1289.083000	971.334961	-56.889221
29683.635957	-1289.083000	970.166016	-114.327576
29683.635957	-1289.083000	968.997070	88.992500
29683.635957	-1289.083000	967.828125	-170.766235
29683.635957	-1289.083000	966.658203	49.101662
29683.635957	-1289.083000	965.488281	150.404251
29683.635957	-1289.083000	964.318359	15.775000
29683.635957	-1289.083000	963.148438	16.541706
29683.635957	-1289.083000	961.977539	42.462021
29683.635957	-1289.083000	960.806641	-144.975296
29683.635957	-1289.083000	959.635742	2.192797
29683.635957	-1289.083000	958.463867	-3.110054
29683.635957	-1289.083000	957.292969	101.350891
29683.635957	-1289.083000	956.121094	87.025757
29683.635957	-1289.083000	954.948242	121.951309
29683.635957	-1289.083000	953.776367	-108.538063
29683.635957	-1289.083000	952.603516	-63.597263
29683.635957	-1289.083000	951.430664	-6.324877
29683.635957	-1289.083000	950.257813	55.065865
29683.635957	-1289.083000	949.084961	64.650307
29683.635957	-1289.083000	947.911133	52.966270
29683.635957	-1289.083000	946.737305	64.055809
29683.635957	-1289.083000	945.563477	-8.548216
29683.635957	-1289.083000	944.388672	63.683201
29683.635957	-1289.083000	943.213867	169.603165
29683.635957	-1289.083000	942.039063	57.159569
29683.635957	-1289.083000	940.864258	49.645527
29683.635957	-1289.083000	939.688477	268.589508
29683.635957	-1289.083000	938.513672	101.620056
29683.635957	-1289.083000	937.337891	18.358881
29683.635957	-1289.083000	936.161133	-14.388704
29683.635957	-1289.083000	934.985352	137.611298
29683.635957	-1289.083000	933.808594	171.965958
29683.635957	-1289.083000	932.631836	76.152451
29683.635957	-1289.083000	931.454102	152.488266
29683.635957	-1289.083000	930.277344	138.561935
29683.635957	-1289.083000	929.099609	122.548340
29683.635957	-1289.083000	927.921875	146.379761
29683.635957	-1289.083000	926.743164	98.882454
29683.635957	-1289.083000	925.565430	78.664497
29683.635957	-1289.083000	924.386719	310.036011
29683.635957	-1289.083000	923.208008	27.752472
29683.635957	-1289.083000	922.028320	97.665543
29683.635957	-1289.083000	920.849609	52.298855
29683.635957	-1289.083000	919.669922	53.995178
29683.635957	-1289.083000	919.474609	101.504768
29683.635957	-1289.083000	918.309570	-27.657467
29683.635957	-1289.083000	917.143555	77.779282
29683.635957	-1289.083000	915.977539	-17.833258
29683.635957	-1289.083000	914.810547	83.364296
29683.635957	-1289.083000	913.644531	-58.263546
29683.635957	-1289.083000	912.477539	15.689877
29683.635957	-1289.083000	911.310547	-21.270384
29683.635957	-1289.083000	910.143555	100.744919
29683.635957	-1289.083000	908.975586	47.045830
29683.635957	-1289.083000	907.807617	-67.268364
29683.635957	-1289.083000	906.639648	14.954767
29683.635957	-1289.083000	905.471680	-13.626500
29683.635957	-1289.083000	904.303711	-8.767463
29683.635957	-1289.083000	903.134766	52.492287
29683.635957	-1289.083000	901.965820	-63.812408
29683.635957	-1289.083000	900.796875	-15.102864
29683.635957	-1289.083000	899.626953	6.443125
29683.635957	-1289.083000	898.457031	-55.518009
29683.635957	-1289.083000	897.287109	24.455685
29683.635957	-1289.083000	896.117188	137.777847
29683.635957	-1289.083000	894.947266	-86.898651
29683.635957	-1289.083000	893.776367	43.080414
29683.635957	-1289.083000	892.605469	-25.095806
29683.635957	-1289.083000	891.434570	69.369118
29683.635957	-1289.083000	890.262695	57.489243
29683.635957	-1289.083000	889.091797	99.793716
29683.635957	-1289.083000	887.919922	10.814507
29683.635957	-1289.083000	886.748047	71.854538
29683.635957	-1289.083000	885.575195	55.808212
29683.635957	-1289.083000	884.403320	29.352154
29683.635957	-1289.083000	883.230469	156.963120
29683.635957	-1289.083000	882.057617	63.887390
29683.635957	-1289.083000	880.883789	-12.503589
29683.635957	-1289.083000	879.710938	4.758307
29683.635957	-1289.083000	878.537109	-86.155853
29683.635957	-1289.083000	877.362305	99.569374
29683.635957	-1289.083000	876.188477	52.332302
29683.635957	-1289.083000	875.013672	30.060322
29683.635957	-1289.083000	873.839844	-17.148539
29683.635957	-1289.083000	872.664063	-1.996971
29683.635957	-1289.083000	871.489258	-28.407759
29683.635957	-1289.083000	870.313477	55.280834
29683.635957	-1289.083000	869.138672	-12.671532
29683.635957	-1289.083000	867.962891	-47.376087
29683.635957	-1289.083000	866.786133	0.968430
29683.635957	-1289.083000	865.610352	-46.183010
29683.635957	-1289.083000	864.433594	-85.016846
29683.635957	-1289.083000	863.256836	-51.225277
29683.635957	-1289.083000	862.079102	-98.342712
29683.635957	-1289.083000	860.902344	-45.903900
29683.635957	-1289.083000	859.724609	41.759167
29683.635957	-1289.083000	858.546875	-15.721487
29683.635957	-1289.083000	857.368164	-60.745518
29683.635957	-1289.083000	856.190430	-60.168972
29683.635957	-1289.083000	855.011719	-59.594849
29683.635957	-1289.083000	853.833008	50.750954
29683.635957	-1289.083000	852.654297	65.792229
29683.635957	-1289.083000	851.474609	-8.201266
29683.635957	-1289.083000	850.294922	-46.977890
29683.635957	-1289.083000	849.115234	44.638096
29683.635957	-1289.083000	847.935547	22.413250
29683.635957	-1289.083000	846.754883	43.637318
29683.635957	-1289.083000	845.575195	-38.564270
29683.635957	-1289.083000	844.393555	-126.936447
29683.635957	-1289.083000	843.212891	-122.244148
29683.635957	-1289.083000	842.032227	-113.422752
29683.635957	-1289.083000	840.850586	-46.744537
29683.635957	-1289.083000	839.668945	63.291653
29683.635957	-1289.083000	838.486328	-76.669487
29683.635957	-1289.083000	837.304688	-65.813049
29683.635957	-1289.083000	836.122070	35.889164
29683.635957	-1289.083000	834.939453	-103.991356
29683.635957	-1289.083000	833.756836	-86.954201
29683.635957	-1289.083000	832.573242	-18.338118
29683.635957	-1289.083000	831.389648	-46.722008
29683.635957	-1289.083000	830.206055	-23.530756
29683.635957	-1289.083000	829.022461	34.705765
29683.635957	-1289.083000	827.838867	-111.210785
29683.635957	-1289.083000	826.654297	17.101057
29683.635957	-1289.083000	825.469727	-58.685184
29683.635957	-1289.083000	824.284180	61.312908
29683.635957	-1289.083000	823.099609	-30.942240
29683.635957	-1289.083000	821.914063	-20.175957
29683.635957	-1289.083000	820.728516	-23.834324
29683.635957	-1289.083000	819.542969	-74.850555
29683.635957	-1289.083000	818.356445	-39.394024
29683.635957	-1289.083000	817.169922	82.480301
29683.635957	-1289.083000	815.983398	66.438324
29683.635957	-1289.083000	814.796875	-33.947796
29683.635957	-1289.083000	813.609375	-10.890929
29683.635957	-1289.083000	812.422852	26.544559
29683.635957	-1289.083000	811.235352	37.232361
29683.635957	-1289.083000	810.046875	107.519997
29683.635957	-1289.083000	808.859375	-99.663223
29683.635957	-1289.083000	807.670898	-95.137497
29683.635957	-1289.083000	806.482422	123.019783
29683.635957	-1289.083000	805.293945	117.215721
29683.635957	-1289.083000	804.104492	25.166574
29683.635957	-1289.083000	802.915039	95.332077
29683.635957	-1289.083000	801.725586	-29.528635
29683.635957	-1289.083000	800.536133	122.688805
29683.635957	-1289.083000	799.345703	159.943298
29683.635957	-1289.083000	798.155273	-16.155003
29683.635957	-1289.083000	796.964844	19.046574
29683.635957	-1289.083000	795.774414	46.024944
29683.635957	-1289.083000	794.583008	38.134991
29683.635957	-1289.083000	793.392578	36.388672
29683.635957	-1289.083000	792.200195	124.798172
29683.635957	-1289.083000	791.008789	-34.731510
29683.635957	-1289.083000	789.816406	57.735577
29683.635957	-1289.083000	788.625000	103.054703
29683.635957	-1289.083000	787.432617	17.311188
29683.635957	-1289.083000	786.239258	-23.370625
29683.635957	-1289.083000	785.046875	-0.601243
29683.635957	-1289.083000	783.853516	87.626968
29683.635957	-1289.083000	782.660156	79.659569
29683.635957	-1289.083000	781.465820	81.913826
29683.635957	-1289.083000	780.272461	22.809582
29683.635957	-1289.083000	779.078125	23.010160
29683.635957	-1289.083000	777.883789	100.874329
29683.635957	-1289.083000	776.688477	-99.234879
29683.635957	-1289.083000	775.494141	50.112694
29683.635957	-1289.083000	774.298828	35.967506
29683.635957	-1289.083000	773.103516	-57.833622
29683.635957	-1289.083000	771.907227	32.166069
29683.635957	-1289.083000	770.711914	32.291317
29683.635957	-1289.083000	769.515625	48.734116
29683.635957	-1289.083000	768.318359	28.427864
29683.635957	-1289.083000	767.122070	-65.330482
29683.635957	-1289.083000	765.924805	95.913231
29683.635957	-1289.083000	764.727539	130.636978
29683.635957	-1289.083000	763.530273	6.296651
29683.635957	-1289.083000	762.333008	-24.232439
29683.635957	-1289.083000	761.134766	22.686552
29683.635957	-1289.083000	759.936523	14.556550
29683.635957	-1289.083000	758.738281	36.975040
29683.635957	-1289.083000	757.540039	30.855907
29683.635957	-1289.083000	756.340820	-18.037584
29683.635957	-1289.083000	755.141602	22.658373
29683.635957	-1289.083000	753.942383	-24.204834
29683.635957	-1289.083000	752.742188	-91.412804
29683.635957	-1289.083000	751.541992	-26.351694
29683.635957	-1289.083000	750.341797	87.491013
29683.635957	-1289.083000	749.141602	-16.350679
29683.635957	-1289.083000	747.941406	14.042491
29683.635957	-1289.083000	746.740234	28.144629
29683.635957	-1289.083000	745.539063	25.965631
29683.635957	-1289.083000	744.337891	-37.192921
29683.635957	-1289.083000	743.135742	1.247049
29683.635957	-1289.083000	741.933594	13.248597
29683.635957	-1289.083000	740.731445	80.063019
29683.635957	-1289.083000	739.529297	-11.542290
29683.635957	-1289.083000	738.326172	14.617149
29683.635957	-1289.083000	737.124023	-24.199226
29683.635957	-1289.083000	735.919922	20.182411
29683.635957	-1289.083000	734.716797	-32.852535
29683.635957	-1289.083000	733.513672	27.704607
29683.635957	-1289.083000	732.309570	171.364914
29683.635957	-1289.083000	731.105469	18.933338
29683.635957	-1289.083000	729.900391	-26.016069
29683.635957	-1289.083000	728.696289	40.499954
29683.635957	-1289.083000	727.491211	84.682838
29683.635957	-1289.083000	726.286133	-87.930939
29683.635957	-1289.083000	725.080078	-37.699532
29683.635957	-1289.083000	723.874023	-54.330563
29683.635957	-1289.083000	722.668945	-70.973495
29683.635957	-1289.083000	721.461914	39.890697
29683.635957	-1289.083000	720.255859	-21.323244
29683.635957	-1289.083000	719.048828	42.912083
29683.635957	-1289.083000	717.841797	74.735321
29683.635957	-1289.083000	716.634766	-73.468430
29683.635957	-1289.083000	715.427734	-47.738380
29683.635957	-1289.083000	714.219727	131.599899
29683.635957	-1289.083000	713.011719	227.976135
29683.635957	-1289.083000	711.803711	53.516663
29683.635957	-1289.083000	710.594727	153.869980
29683.635957	-1289.083000	709.385742	80.451691
29683.635957	-1289.083000	708.176758	93.880341
29683.635957	-1289.083000	706.967773	155.738770
29683.635957	-1289.083000	705.758789	29.821299
29683.635957	-1289.083000	704.548828	35.116680
29683.635957	-1289.083000	703.338867	-112.959854
29683.635957	-1289.083000	702.127930	-29.003065
29683.635957	-1289.083000	700.917969	-88.302849
29683.635957	-1289.083000	699.707031	-42.742931
29683.635957	-1289.083000	698.496094	-55.688778
29683.635957	-1289.083000	697.285156	-12.213751
29683.635957	-1289.083000	696.073242	19.130287
29683.635957	-1289.083000	694.861328	122.971100
29683.635957	-1289.083000	693.649414	87.754860
29683.635957	-1289.083000	692.436523	40.447243
29683.635957	-1289.083000	691.224609	41.461765
29683.635957	-1289.083000	690.011719	-11.900499
29683.635957	-1289.083000	688.798828	77.636749
29683.635957	-1289.083000	687.584961	88.635307
29683.635957	-1289.083000	686.372070	25.169506
29683.635957	-1289.083000	685.158203	74.344963
29683.635957	-1289.083000	683.943359	135.542389
29683.635957	-1289.083000	682.729492	41.878708
29683.635957	-1289.083000	681.514648	155.273895
29683.635957	-1289.083000	680.299805	146.005371
29683.635957	-1289.083000	679.084961	66.392395
29683.635957	-1289.083000	677.869141	30.984442
29683.635957	-1289.083000	676.653320	-14.475188
29683.635957	-1289.083000	675.437500	14.357187
29683.635957	-1289.083000	674.221680	133.494690
29683.635957	-1289.083000	673.004883	118.077530
29683.635957	-1289.083000	671.789063	80.568718
29683.635957	-1289.083000	670.571289	63.114098
29683.635957	-1289.083000	669.354492	69.713699
29683.635957	-1289.083000	668.136719	52.220226
29683.635957	-1289.083000	666.919922	108.896637
29683.635957	-1289.083000	665.701172	191.584366
29683.635957	-1289.083000	664.483398	107.863785
29683.635957	-1289.083000	663.264648	164.417999
29683.635957	-1289.083000	662.045898	168.836288
29683.635957	-1289.083000	660.827148	189.251953
29683.635957	-1289.083000	659.608398	111.510147
29683.635957	-1289.083000	658.388672	105.851517
29683.635957	-1289.083000	657.168945	80.153999
29683.635957	-1289.083000	655.949219	34.429310
29683.635957	-1289.083000	654.728516	68.731979
29683.635957	-1289.083000	653.507813	100.994713
29683.635957	-1289.083000	652.287109	213.218002
29683.635957	-1289.083000	651.066406	73.424301
29683.635957	-1289.083000	649.844727	79.600708
29683.635957	-1289.083000	648.623047	3.802580
29683.635957	-1289.083000	647.401367	103.860985
29683.635957	-1289.083000	646.179688	153.905334
29683.635957	-1289.083000	644.957031	118.012497
29683.635957	-1289.083000	643.734375	14.210584
29683.635957	-1289.083000	642.511719	22.237417
29683.635957	-1289.083000	641.289063	138.029556
29683.635957	-1289.083000	640.065430	-67.569603
29683.635957	-1289.083000	638.841797	64.104393
29683.635957	-1289.083000	637.618164	68.023254
29683.635957	-1289.083000	636.393555	89.864822
29683.635957	-1289.083000	635.168945	27.921535
29683.635957	-1289.083000	633.944336	15.820885
29683.635957	-1289.083000	632.719727	-4.272523
29683.635957	-1289.083000	631.494141	47.357185
29683.635957	-1289.083000	630.269531	1.315056
29683.635957	-1289.083000	629.042969	-76.605476
29683.635957	-1289.083000	627.817383	96.416565
29683.635957	-1289.083000	626.590820	10.495379
29683.635957	-1289.083000	625.365234	-17.683235
29683.635957	-1289.083000	624.137695	1.889756
29683.635957	-1289.083000	622.911133	118.933517
29683.635957	-1289.083000	621.683594	17.066027
29683.635957	-1289.083000	620.456055	-106.661705
29683.635957	-1289.083000	619.228516	44.062428
29683.635957	-1289.083000	618.000977	35.646248
29683.635957	-1289.083000	616.772461	-4.595437
29683.635957	-1289.083000	615.543945	-150.171600
29683.635957	-1289.083000	614.314453	121.536270
29683.635957	-1289.083000	613.085938	5.744624
29683.635957	-1289.083000	611.856445	13.112199
29683.635957	-1289.083000	610.626953	30.381580
29683.635957	-1289.083000	609.397461	109.160805
29683.635957	-1289.083000	608.166992	-52.275940
29683.635957	-1289.083000	606.936523	-33.091286
29683.635957	-1289.083000	605.706055	-130.989685
29683.635957	-1289.083000	604.474609	-40.436741
29683.635957	-1289.083000	603.244141	26.258924
29683.635957	-1289.083000	602.012695	-53.815983
29683.635957	-1289.083000	600.780273	-20.891836
29683.635957	-1289.083000	599.548828	-91.058388
29683.635957	-1289.083000	598.316406	70.605927
29683.635957	-1289.083000	597.083984	22.194996
29683.635957	-1289.083000	595.851563	19.335440
29683.635957	-1289.083000	594.618164	-58.791977
29683.635957	-1289.083000	593.384766	-2.286181
29683.635957	-1289.083000	592.151367	93.759727
29683.635957	-1289.083000	590.917969	78.925514
29683.635957	-1289.083000	589.683594	20.549103
29683.635957	-1289.083000	588.449219	-23.977142
29683.635957	-1289.083000	587.214844	-7.199928
29683.635957	-1289.083000	585.979492	110.385147
29683.635957	-1289.083000	584.745117	48.014423
29683.635957	-1289.083000	583.509766	68.655006
29683.635957	-1289.083000	582.273438	10.227448
29683.635957	-1289.083000	581.038086	7.120522
29683.635957	-1289.083000	579.801758	73.121559
29683.635957	-1289.083000	578.565430	-20.873526
29683.635957	-1289.083000	577.329102	-39.826962
29683.635957	-1289.083000	576.091797	136.615158
29683.635957	-1289.083000	574.854492	36.685692
29683.635957	-1289.083000	573.617188	49.240299
29683.635957	-1289.083000	572.378906	4.563988
29683.635957	-1289.083000	571.141602	-49.970829
29683.635957	-1289.083000	569.903320	-70.983292
29683.635957	-1289.083000	568.664063	-17.098267
29683.635957	-1289.083000	567.425781	30.835073
29683.635957	-1289.083000	566.186523	129.959213
29683.635957	-1289.083000	564.947266	-50.721386
29683.635957	-1289.083000	563.708008	-52.108402
29683.635957	-1289.083000	562.467773	-65.329041
29683.635957	-1289.083000	561.227539	-68.717682
29683.635957	-1289.083000	559.987305	51.883568
29683.635957	-1289.083000	558.747070	-30.280485
29683.635957	-1289.083000	557.505859	25.297159
29683.635957	-1289.083000	556.264648	-15.553272
29683.635957	-1289.083000	555.023438	-3.302807
29683.635957	-1289.083000	553.781250	-50.063625
29683.635957	-1289.083000	552.539063	101.727928
29683.635957	-1289.083000	551.296875	102.101784
29683.635957	-1289.083000	550.054688	10.104488
29683.635957	-1289.083000	548.811523	8.499290
29683.635957	-1289.083000	547.569336	-12.760878
29683.635957	-1289.083000	546.325195	44.517204
29683.635957	-1289.083000	545.082031	-19.967812
29683.635957	-1289.083000	543.837891	-7.890326
29683.635957	-1289.083000	542.593750	-27.232534
29683.635957	-1289.083000	541.349609	-1.455258
29683.635957	-1289.083000	540.105469	8.603240
29683.635957	-1289.083000	538.860352	81.398949
29683.635957	-1289.083000	537.615234	142.383286
29683.635957	-1289.083000	536.369141	-10.355461
29683.635957	-1289.083000	535.124023	38.833061
29683.635957	-1289.083000	533.877930	42.914845
29683.635957	-1289.083000	532.631836	17.592793
29683.635957	-1289.083000	531.384766	92.158234
29683.635957	-1289.083000	530.138672	80.515480
29683.635957	-1289.083000	528.891602	74.734421
29683.635957	-1289.083000	527.643555	164.852661
29683.635957	-1289.083000	526.396484	70.961540
29683.635957	-1289.083000	525.148438	106.228523
29683.635957	-1289.083000	523.900391	-3.290954
29683.635957	-1289.083000	522.652344	18.257593
29683.635957	-1289.083000	521.403320	78.886040
29683.635957	-1289.083000	520.154297	-77.520584
29683.635957	-1289.083000	518.905273	-99.015068
29683.635957	-1289.083000	517.656250	41.672081
29683.635957	-1289.083000	516.406250	-73.646095
29683.635957	-1289.083000	515.156250	-17.045515
29683.635957	-1289.083000	513.906250	-42.502350
29683.635957	-1289.083000	512.655273	6.225088
29683.635957	-1289.083000	511.404297	-107.097336
29683.635957	-1289.083000	510.153320	9.895960
29683.635957	-1289.083000	508.902344	9.756086
29683.635957	-1289.083000	507.650391	-95.740707
29683.635957	-1289.083000	506.398438	-146.600067
29683.635957	-1289.083000	505.146484	-2.466720
29683.635957	-1289.083000	503.893555	-105.994690
29683.635957	-1289.083000	502.641602	-0.945514
29683.635957	-1289.083000	501.388672	-46.004963
29683.635957	-1289.083000	500.134766	-48.204121
29683.635957	-1289.083000	498.881836	-60.156559
29683.635957	-1289.083000	497.627930	-15.651219
29683.635957	-1289.083000	496.374023	7.400432
29683.635957	-1289.083000	495.119141	34.313881
29683.635957	-1289.083000	493.865234	-6.914082
29683.635957	-1289.083000	492.610352	23.843430
29683.635957	-1289.083000	491.355469	118.761330
29683.635957	-1289.083000	490.099609	11.351736
29683.635957	-1289.083000	488.843750	-6.589368
29683.635957	-1289.083000	487.587891	200.959961
29683.635957	-1289.083000	486.332031	-110.539383
29683.635957	-1289.083000	485.075195	104.668678
29683.635957	-1289.083000	483.818359	-31.877239
29683.635957	-1289.083000	482.561523	41.383278
29683.635957	-1289.083000	481.304688	64.098007
29683.635957	-1289.083000	480.046875	121.722069
29683.635957	-1289.083000	478.789063	243.350189
29683.635957	-1289.083000	477.531250	165.011871
29683.635957	-1289.083000	476.272461	175.927246
29683.635957	-1289.083000	475.013672	219.786667
29683.635957	-1289.083000	473.754883	34.748486
29683.635957	-1289.083000	472.496094	134.790329
29683.635957	-1289.083000	471.236328	321.989990
29683.635957	-1289.083000	469.976563	264.870789
29683.635957	-1289.083000	468.716797	122.482506
29683.635957	-1289.083000	467.456055	125.416931
29683.635957	-1289.083000	466.196289	275.521088
29683.635957	-1289.083000	464.935547	171.843658
29683.635957	-1289.083000	463.673828	195.949341
29683.635957	-1289.083000	462.413086	111.613441
29683.635957	-1289.083000	461.151367	273.043060
29683.635957	-1289.083000	459.889648	200.251114
29683.635957	-1289.083000	458.626953	197.082336
29683.635957	-1289.083000	457.364258	52.691235
29683.635957	-1289.083000	456.101563	213.817123
29683.635957	-1289.083000	454.838867	181.513245
29683.635957	-1289.083000	453.575195	151.104431
29683.635957	-1289.083000	452.312500	246.260651
29683.635957	-1289.083000	451.047852	225.404968
29683.635957	-1289.083000	449.784180	177.467026
29683.635957	-1289.083000	448.519531	197.078064
29683.635957	-1289.083000	447.254883	160.634659
29683.635957	-1289.083000	445.990234	185.915298
29683.635957	-1289.083000	444.725586	284.455719
29683.635957	-1289.083000	443.459961	133.998413
29683.635957	-1289.083000	442.194336	201.512711
29683.635957	-1289.083000	440.927734	251.570511
29683.635957	-1289.083000	439.662109	99.088203
29683.635957	-1289.083000	438.395508	228.041519
29683.635957	-1289.083000	437.127930	208.460800
29683.635957	-1289.083000	435.861328	94.399773
29683.635957	-1289.083000	434.593750	174.877121
29683.635957	-1289.083000	433.326172	79.969475
29683.635957	-1289.083000	432.058594	150.622620
29683.635957	-1289.083000	430.790039	176.875732
29683.635957	-1289.083000	429.521484	254.997314
29683.635957	-1289.083000	428.252930	196.364105
29683.635957	-1289.083000	426.984375	262.717957
29683.635957	-1289.083000	425.714844	136.588699
29683.635957	-1289.083000	424.445313	216.187210
29683.635957	-1289.083000	423.174805	209.121628
29683.635957	-1289.083000	421.905273	61.630951
29683.635957	-1289.083000	420.634766	277.321869
29683.635957	-1289.083000	419.364258	244.939926
29683.635957	-1289.083000	418.092773	160.582855
29683.635957	-1289.083000	416.822266	158.733612
29683.635957	-1289.083000	415.550781	179.799179
29683.635957	-1289.083000	414.278320	135.451019
29683.635957	-1289.083000	413.006836	112.108940
29683.635957	-1289.083000	411.734375	140.449097
29683.635957	-1289.083000	410.461914	185.905029
29683.635957	-1289.083000	409.188477	135.287491
29683.635957	-1289.083000	407.916016	224.542160
29683.635957	-1289.083000	406.642578	200.482635
29683.635957	-1289.083000	405.368164	216.525772
29683.635957	-1289.083000	404.094727	332.063904
29683.635957	-1289.083000	402.820313	242.365723
29683.635957	-1289.083000	401.545898	275.137787
29683.635957	-1289.083000	400.270508	256.004242
29683.635957	-1289.083000	398.996094	229.048492
29683.635957	-1289.083000	397.720703	173.198883
29683.635957	-1289.083000	396.444336	182.252335
29683.635957	-1289.083000	395.168945	170.066620
29683.635957	-1289.083000	393.892578	308.816986
29683.635957	-1289.083000	392.616211	200.563217
29683.635957	-1289.083000	391.339844	241.305298
29683.635957	-1289.083000	390.062500	182.388977
29683.635957	-1289.083000	388.785156	79.313576
29683.635957	-1289.083000	387.507813	190.092422
29683.635957	-1289.083000	386.229492	185.944382
29683.635957	-1289.083000	384.951172	133.803009
29683.635957	-1289.083000	383.672852	224.673904
29683.635957	-1289.083000	382.394531	231.239822
29683.635957	-1289.083000	381.115234	203.174438
29683.635957	-1289.083000	379.835938	48.890987
29683.635957	-1289.083000	378.556641	153.909195
29683.635957	-1289.083000	377.277344	128.877609
29683.635957	-1289.083000	375.997070	120.726341
29683.635957	-1289.083000	374.716797	129.447464
29683.635957	-1289.083000	373.435547	74.940056
29683.635957	-1289.083000	372.155273	102.117966
29683.635957	-1289.083000	370.874023	151.825562
29683.635957	-1289.083000	369.591797	73.525703
29683.635957	-1289.083000	368.310547	74.941299
29683.635957	-1289.083000	367.028320	9.349869
29683.635957	-1289.083000	365.746094	78.621490
29683.635957	-1289.083000	364.463867	18.062876
29683.635957	-1289.083000	363.180664	-39.041454
29683.635957	-1289.083000	361.897461	19.571926
29683.635957	-1289.083000	360.614258	-2.122298
29683.635957	-1289.083000	359.330078	-26.114904
29683.635957	-1289.083000	358.045898	54.082470
29683.635957	-1289.083000	356.761719	36.877102
29683.635957	-1289.083000	355.477539	-28.258963
29683.635957	-1289.083000	354.192383	-42.505947
29683.635957	-1289.083000	352.907227	7.406266
29683.635957	-1289.083000	351.622070	34.050739
29683.635957	-1289.083000	350.336914	65.918831
29683.635957	-1289.083000	349.050781	61.210030
29683.635957	-1289.083000	347.764648	-16.112091
29683.635957	-1289.083000	346.477539	-55.957073
29683.635957	-1289.083000	345.191406	34.643166
29683.635957	-1289.083000	343.904297	73.451241
29683.635957	-1289.083000	342.616211	14.971289
29683.635957	-1289.083000	341.329102	16.668228
29683.635957	-1289.083000	340.041016	-143.342850
29683.635957	-1289.083000	338.752930	-74.520004
29683.635957	-1289.083000	337.463867	6.938261
29683.635957	-1289.083000	336.175781	40.426605
29683.635957	-1289.083000	334.886719	-27.109165
29683.635957	-1289.083000	333.596680	-34.657791
29683.635957	-1289.083000	332.307617	-25.775221
29683.635957	-1289.083000	331.017578	-62.991249
29683.635957	-1289.083000	329.727539	-133.021240
29683.635957	-1289.083000	328.436523	-165.877640
29683.635957	-1289.083000	327.146484	-102.914703
29683.635957	-1289.083000	325.855469	86.002312
29683.635957	-1289.083000	324.563477	18.843273
29683.635957	-1289.083000	323.272461	94.669899
29683.635957	-1289.083000	321.980469	-70.330360
29683.635957	-1289.083000	320.688477	24.729086
29683.635957	-1289.083000	319.395508	166.167145
29683.635957	-1289.083000	318.103516	49.911800
29683.635957	-1289.083000	316.810547	12.174699
29683.635957	-1289.083000	315.516602	-56.610985
29683.635957	-1289.083000	314.223633	11.597865
29683.635957	-1289.083000	312.929688	-41.887604
29683.635957	-1289.083000	311.635742	-69.819672
29683.635957	-1289.083000	310.340820	-64.719734
29683.635957	-1289.083000	309.045898	54.492176
29683.635957	-1289.083000	307.750977	118.037483
29683.635957	-1289.083000	306.456055	293.696899
29683.635957	-1289.083000	305.160156	95.126694
29683.635957	-1289.083000	303.865234	317.731567
29683.635957	-1289.083000	302.568359	247.175385
29683.635957	-1289.083000	301.272461	395.997681
29683.635957	-1289.083000	299.975586	293.235779
29683.635957	-1289.083000	298.678711	291.097015
