#X		#Y		#Wave		#Intensity
177.618085	5619.490000	1999.946289	22.522015
177.618085	5619.490000	1998.981445	87.570900
177.618085	5619.490000	1998.017578	-48.847908
177.618085	5619.490000	1997.052734	-11.750717
177.618085	5619.490000	1996.088867	-39.090298
177.618085	5619.490000	1995.124023	-24.309975
177.618085	5619.490000	1994.159180	-39.259151
177.618085	5619.490000	1993.193359	119.134109
177.618085	5619.490000	1992.228516	119.012749
177.618085	5619.490000	1991.262695	141.167297
177.618085	5619.490000	1990.296875	56.890194
177.618085	5619.490000	1989.331055	49.348984
177.618085	5619.490000	1988.365234	-76.943100
177.618085	5619.490000	1987.398438	29.320461
177.618085	5619.490000	1986.432617	86.080002
177.618085	5619.490000	1985.465820	51.330093
177.618085	5619.490000	1984.499023	6.701807
177.618085	5619.490000	1983.532227	41.181519
177.618085	5619.490000	1982.565430	88.002174
177.618085	5619.490000	1981.597656	60.680466
177.618085	5619.490000	1980.629883	8.663149
177.618085	5619.490000	1979.662109	-8.759220
177.618085	5619.490000	1978.694336	5.924374
177.618085	5619.490000	1977.726563	13.193453
177.618085	5619.490000	1976.758789	-16.569635
177.618085	5619.490000	1975.790039	-80.875565
177.618085	5619.490000	1974.821289	62.114750
177.618085	5619.490000	1973.852539	106.365677
177.618085	5619.490000	1972.883789	0.132862
177.618085	5619.490000	1971.915039	59.171436
177.618085	5619.490000	1970.945313	-12.497070
177.618085	5619.490000	1969.975586	-0.321898
177.618085	5619.490000	1969.005859	58.677673
177.618085	5619.490000	1968.036133	41.258247
177.618085	5619.490000	1967.066406	-27.898781
177.618085	5619.490000	1966.096680	68.017876
177.618085	5619.490000	1965.125977	171.286072
177.618085	5619.490000	1964.155273	70.124527
177.618085	5619.490000	1963.184570	-3.918899
177.618085	5619.490000	1962.213867	84.528831
177.618085	5619.490000	1961.242188	-55.944874
177.618085	5619.490000	1960.271484	5.407517
177.618085	5619.490000	1959.299805	-29.213793
177.618085	5619.490000	1958.328125	39.486343
177.618085	5619.490000	1957.356445	-68.912498
177.618085	5619.490000	1956.384766	68.612625
177.618085	5619.490000	1955.412109	51.205734
177.618085	5619.490000	1954.439453	75.587761
177.618085	5619.490000	1953.467773	16.403225
177.618085	5619.490000	1952.495117	-47.675056
177.618085	5619.490000	1951.521484	-11.012094
177.618085	5619.490000	1950.548828	121.423111
177.618085	5619.490000	1949.575195	64.721092
177.618085	5619.490000	1948.601563	-1.782958
177.618085	5619.490000	1947.627930	27.470257
177.618085	5619.490000	1946.654297	10.078369
177.618085	5619.490000	1945.680664	-7.309236
177.618085	5619.490000	1944.706055	44.001717
177.618085	5619.490000	1943.732422	63.402618
177.618085	5619.490000	1942.757813	-5.494573
177.618085	5619.490000	1941.783203	89.915611
177.618085	5619.490000	1940.807617	74.968307
177.618085	5619.490000	1939.833008	42.865700
177.618085	5619.490000	1938.857422	23.025883
177.618085	5619.490000	1937.881836	115.898819
177.618085	5619.490000	1936.906250	-85.232582
177.618085	5619.490000	1935.930664	120.286430
177.618085	5619.490000	1934.955078	12.278089
177.618085	5619.490000	1933.978516	-147.108063
177.618085	5619.490000	1933.001953	-17.585863
177.618085	5619.490000	1932.025391	48.251614
177.618085	5619.490000	1931.048828	-62.121792
177.618085	5619.490000	1930.072266	47.730644
177.618085	5619.490000	1929.094727	-69.945847
177.618085	5619.490000	1928.118164	76.544899
177.618085	5619.490000	1927.140625	-11.757539
177.618085	5619.490000	1926.163086	95.546043
177.618085	5619.490000	1925.184570	-53.839909
177.618085	5619.490000	1924.207031	16.767601
177.618085	5619.490000	1923.228516	-61.698067
177.618085	5619.490000	1922.250000	-101.052063
177.618085	5619.490000	1921.271484	6.150879
177.618085	5619.490000	1920.292969	-72.279968
177.618085	5619.490000	1919.314453	-72.556572
177.618085	5619.490000	1918.334961	-9.369038
177.618085	5619.490000	1917.355469	-48.714386
177.618085	5619.490000	1916.375977	-34.365616
177.618085	5619.490000	1915.396484	45.845676
177.618085	5619.490000	1914.416992	30.892576
177.618085	5619.490000	1913.436523	-42.589851
177.618085	5619.490000	1912.457031	-1.447585
177.618085	5619.490000	1911.476563	90.870804
177.618085	5619.490000	1910.496094	10.093657
177.618085	5619.490000	1909.515625	9.762187
177.618085	5619.490000	1908.534180	106.887161
177.618085	5619.490000	1907.552734	-17.709549
177.618085	5619.490000	1906.572266	-122.780037
177.618085	5619.490000	1905.590820	3.523464
177.618085	5619.490000	1904.608398	-16.305964
177.618085	5619.490000	1903.626953	51.499310
177.618085	5619.490000	1902.644531	38.960346
177.618085	5619.490000	1901.663086	14.253971
177.618085	5619.490000	1900.680664	-8.014783
177.618085	5619.490000	1899.698242	79.178627
177.618085	5619.490000	1898.714844	-35.518124
177.618085	5619.490000	1897.732422	-72.369324
177.618085	5619.490000	1896.749023	36.651638
177.618085	5619.490000	1895.765625	-9.931650
177.618085	5619.490000	1894.782227	-39.491562
177.618085	5619.490000	1893.798828	69.446205
177.618085	5619.490000	1892.814453	15.579354
177.618085	5619.490000	1891.831055	5.445157
177.618085	5619.490000	1890.846680	48.732529
177.618085	5619.490000	1889.862305	7.022699
177.618085	5619.490000	1888.877930	-20.112858
177.618085	5619.490000	1887.892578	35.273041
177.618085	5619.490000	1886.908203	49.381546
177.618085	5619.490000	1885.922852	12.531880
177.618085	5619.490000	1884.937500	4.797496
177.618085	5619.490000	1883.952148	45.562851
177.618085	5619.490000	1882.965820	76.608360
177.618085	5619.490000	1881.980469	61.575157
177.618085	5619.490000	1880.994141	44.118118
177.618085	5619.490000	1880.007813	77.551193
177.618085	5619.490000	1879.021484	43.124809
177.618085	5619.490000	1878.035156	-10.674519
177.618085	5619.490000	1877.047852	13.043203
177.618085	5619.490000	1876.061523	-55.272213
177.618085	5619.490000	1875.074219	128.221771
177.618085	5619.490000	1874.086914	40.532497
177.618085	5619.490000	1873.098633	76.297264
177.618085	5619.490000	1872.111328	95.103859
177.618085	5619.490000	1871.123047	80.027206
177.618085	5619.490000	1870.135742	-14.870754
177.618085	5619.490000	1869.147461	66.798592
177.618085	5619.490000	1868.158203	25.118162
177.618085	5619.490000	1867.169922	22.125303
177.618085	5619.490000	1866.180664	40.879230
177.618085	5619.490000	1865.192383	47.536201
177.618085	5619.490000	1864.203125	71.096085
177.618085	5619.490000	1863.213867	0.430559
177.618085	5619.490000	1862.223633	4.654381
177.618085	5619.490000	1861.234375	-17.692589
177.618085	5619.490000	1860.244141	-32.795845
177.618085	5619.490000	1859.253906	29.340599
177.618085	5619.490000	1858.263672	43.179333
177.618085	5619.490000	1857.273438	129.391937
177.618085	5619.490000	1856.282227	-59.454247
177.618085	5619.490000	1855.291992	159.389236
177.618085	5619.490000	1854.300781	156.281235
177.618085	5619.490000	1853.309570	10.912368
177.618085	5619.490000	1852.317383	77.725922
177.618085	5619.490000	1851.326172	-0.104548
177.618085	5619.490000	1850.333984	23.294657
177.618085	5619.490000	1849.342773	37.039993
177.618085	5619.490000	1848.350586	-7.039796
177.618085	5619.490000	1847.357422	9.097939
177.618085	5619.490000	1846.365234	15.589732
177.618085	5619.490000	1845.372070	101.516960
177.618085	5619.490000	1844.379883	21.319897
177.618085	5619.490000	1843.386719	83.131157
177.618085	5619.490000	1842.393555	-28.328764
177.618085	5619.490000	1841.399414	62.319370
177.618085	5619.490000	1840.406250	49.501503
177.618085	5619.490000	1839.412109	89.584076
177.618085	5619.490000	1838.417969	100.791267
177.618085	5619.490000	1837.423828	-3.398935
177.618085	5619.490000	1836.429688	53.468266
177.618085	5619.490000	1835.434570	9.381931
177.618085	5619.490000	1834.440430	174.319611
177.618085	5619.490000	1833.445313	60.550499
177.618085	5619.490000	1832.450195	98.114494
177.618085	5619.490000	1831.454102	22.802380
177.618085	5619.490000	1830.458984	43.536617
177.618085	5619.490000	1829.462891	-10.152941
177.618085	5619.490000	1828.466797	154.547333
177.618085	5619.490000	1827.470703	38.456493
177.618085	5619.490000	1826.474609	-70.403275
177.618085	5619.490000	1825.478516	51.016342
177.618085	5619.490000	1824.481445	71.666222
177.618085	5619.490000	1823.484375	145.044388
177.618085	5619.490000	1822.487305	-74.055511
177.618085	5619.490000	1821.490234	-5.489696
177.618085	5619.490000	1820.493164	60.644638
177.618085	5619.490000	1819.495117	174.658203
177.618085	5619.490000	1818.498047	132.928497
177.618085	5619.490000	1817.500000	12.176593
177.618085	5619.490000	1816.500977	13.571612
177.618085	5619.490000	1815.502930	86.773834
177.618085	5619.490000	1814.504883	-31.536654
177.618085	5619.490000	1813.505859	-27.769896
177.618085	5619.490000	1812.506836	-7.266644
177.618085	5619.490000	1811.507813	87.373711
177.618085	5619.490000	1810.508789	129.352814
177.618085	5619.490000	1809.508789	142.611664
177.618085	5619.490000	1808.508789	-18.667519
177.618085	5619.490000	1807.508789	-50.820675
177.618085	5619.490000	1806.508789	53.248367
177.618085	5619.490000	1805.508789	37.799595
177.618085	5619.490000	1804.508789	148.959702
177.618085	5619.490000	1803.507813	18.831762
177.618085	5619.490000	1802.506836	-20.512054
177.618085	5619.490000	1801.505859	66.689964
177.618085	5619.490000	1800.504883	32.106010
177.618085	5619.490000	1799.502930	64.351570
177.618085	5619.490000	1798.501953	58.395599
177.618085	5619.490000	1797.500000	-100.257027
177.618085	5619.490000	1796.498047	63.156864
177.618085	5619.490000	1795.496094	-0.062691
177.618085	5619.490000	1794.493164	-20.349329
177.618085	5619.490000	1793.491211	104.783096
177.618085	5619.490000	1792.488281	163.119400
177.618085	5619.490000	1791.485352	85.589554
177.618085	5619.490000	1790.482422	81.939644
177.618085	5619.490000	1789.478516	42.548000
177.618085	5619.490000	1788.475586	81.757805
177.618085	5619.490000	1787.471680	80.460716
177.618085	5619.490000	1786.467773	19.634125
177.618085	5619.490000	1785.463867	63.555367
177.618085	5619.490000	1784.459961	45.572830
177.618085	5619.490000	1783.455078	-22.382219
177.618085	5619.490000	1782.450195	-35.604824
177.618085	5619.490000	1781.445313	5.873770
177.618085	5619.490000	1780.440430	2.142680
177.618085	5619.490000	1779.435547	-18.240471
177.618085	5619.490000	1778.429688	44.574478
177.618085	5619.490000	1777.424805	-18.610826
177.618085	5619.490000	1776.418945	-19.999399
177.618085	5619.490000	1775.413086	-7.143043
177.618085	5619.490000	1774.406250	8.073262
177.618085	5619.490000	1773.400391	-2.850275
177.618085	5619.490000	1772.393555	71.700890
177.618085	5619.490000	1771.386719	-5.724180
177.618085	5619.490000	1770.379883	-87.877419
177.618085	5619.490000	1769.373047	29.333231
177.618085	5619.490000	1768.365234	11.245880
177.618085	5619.490000	1767.358398	-63.777573
177.618085	5619.490000	1766.350586	-10.707403
177.618085	5619.490000	1765.342773	49.446186
177.618085	5619.490000	1764.334961	5.248651
177.618085	5619.490000	1763.326172	115.134247
177.618085	5619.490000	1762.318359	-7.288438
177.618085	5619.490000	1761.309570	-65.698273
177.618085	5619.490000	1760.300781	-71.976257
177.618085	5619.490000	1759.291016	-2.467212
177.618085	5619.490000	1758.282227	102.528831
177.618085	5619.490000	1757.272461	-76.652168
177.618085	5619.490000	1756.262695	9.359071
177.618085	5619.490000	1755.252930	107.161705
177.618085	5619.490000	1754.243164	48.736958
177.618085	5619.490000	1753.233398	73.131744
177.618085	5619.490000	1752.222656	2.887650
177.618085	5619.490000	1751.211914	13.070795
177.618085	5619.490000	1750.201172	30.334044
177.618085	5619.490000	1749.190430	-96.629944
177.618085	5619.490000	1748.179688	38.811195
177.618085	5619.490000	1747.167969	91.477577
177.618085	5619.490000	1746.156250	-47.269470
177.618085	5619.490000	1745.144531	142.387726
177.618085	5619.490000	1744.132813	100.500702
177.618085	5619.490000	1743.121094	-16.945135
177.618085	5619.490000	1742.108398	-2.143140
177.618085	5619.490000	1741.095703	-51.090088
177.618085	5619.490000	1740.083008	-85.867477
177.618085	5619.490000	1739.070313	20.935377
177.618085	5619.490000	1738.057617	14.448401
177.618085	5619.490000	1737.043945	69.279724
177.618085	5619.490000	1736.030273	81.632324
177.618085	5619.490000	1735.016602	-2.699568
177.618085	5619.490000	1734.002930	16.715498
177.618085	5619.490000	1732.989258	-36.950558
177.618085	5619.490000	1731.974609	69.632767
177.618085	5619.490000	1730.959961	32.449749
177.618085	5619.490000	1729.945313	-58.906055
177.618085	5619.490000	1728.930664	35.817596
177.618085	5619.490000	1727.916016	-100.260582
177.618085	5619.490000	1726.900391	-62.085526
177.618085	5619.490000	1725.885742	44.325787
177.618085	5619.490000	1724.870117	-6.984908
177.618085	5619.490000	1723.853516	-4.170416
177.618085	5619.490000	1722.837891	-34.298206
177.618085	5619.490000	1721.822266	62.582291
177.618085	5619.490000	1720.805664	48.895012
177.618085	5619.490000	1719.789063	16.395805
177.618085	5619.490000	1718.772461	68.522232
177.618085	5619.490000	1717.754883	3.111295
177.618085	5619.490000	1716.738281	-50.533539
177.618085	5619.490000	1715.720703	22.692326
177.618085	5619.490000	1714.703125	-33.302383
177.618085	5619.490000	1713.685547	-7.091822
177.618085	5619.490000	1712.667969	-30.205467
177.618085	5619.490000	1711.649414	35.883579
177.618085	5619.490000	1710.630859	-48.269192
177.618085	5619.490000	1709.612305	20.128281
177.618085	5619.490000	1708.593750	-40.544548
177.618085	5619.490000	1707.575195	-21.449715
177.618085	5619.490000	1706.555664	-82.108208
177.618085	5619.490000	1705.536133	-41.926899
177.618085	5619.490000	1704.516602	-29.900589
177.618085	5619.490000	1703.497070	5.552089
177.618085	5619.490000	1702.477539	36.296440
177.618085	5619.490000	1701.457031	-24.355059
177.618085	5619.490000	1700.437500	-12.371882
177.618085	5619.490000	1699.416992	-82.374023
177.618085	5619.490000	1698.395508	16.237701
177.618085	5619.490000	1697.375000	-11.616998
177.618085	5619.490000	1696.354492	-37.127598
177.618085	5619.490000	1695.333008	-27.532921
177.618085	5619.490000	1694.311523	-99.842545
177.618085	5619.490000	1693.290039	19.696053
177.618085	5619.490000	1692.267578	-120.438683
177.618085	5619.490000	1691.246094	-92.155815
177.618085	5619.490000	1690.223633	69.374519
177.618085	5619.490000	1689.201172	22.792925
177.618085	5619.490000	1688.178711	39.324577
177.618085	5619.490000	1687.155273	118.931786
177.618085	5619.490000	1686.132813	4.597634
177.618085	5619.490000	1685.109375	-128.386642
177.618085	5619.490000	1684.085938	74.958961
177.618085	5619.490000	1683.062500	-6.633315
177.618085	5619.490000	1682.039063	-55.518600
177.618085	5619.490000	1681.014648	47.315182
177.618085	5619.490000	1679.990234	47.428375
177.618085	5619.490000	1678.965820	61.533955
177.618085	5619.490000	1677.941406	-8.346023
177.618085	5619.490000	1676.916992	61.725296
177.618085	5619.490000	1675.891602	82.796104
177.618085	5619.490000	1674.866211	-140.930161
177.618085	5619.490000	1673.840820	15.348098
177.618085	5619.490000	1672.815430	27.077503
177.618085	5619.490000	1671.790039	45.786705
177.618085	5619.490000	1670.763672	1.586139
177.618085	5619.490000	1669.737305	38.913147
177.618085	5619.490000	1668.710938	38.963375
177.618085	5619.490000	1667.684570	55.305519
177.618085	5619.490000	1666.658203	-65.696808
177.618085	5619.490000	1665.630859	85.626869
177.618085	5619.490000	1664.603516	20.497118
177.618085	5619.490000	1663.576172	-21.349150
177.618085	5619.490000	1662.548828	-7.362771
177.618085	5619.490000	1661.520508	22.890142
177.618085	5619.490000	1660.493164	41.503757
177.618085	5619.490000	1659.464844	25.235893
177.618085	5619.490000	1658.436523	25.239031
177.618085	5619.490000	1657.408203	-60.736740
177.618085	5619.490000	1656.378906	-18.909639
177.618085	5619.490000	1655.350586	29.866777
177.618085	5619.490000	1654.321289	57.718464
177.618085	5619.490000	1653.291992	152.888733
177.618085	5619.490000	1652.261719	-32.870663
177.618085	5619.490000	1651.232422	66.914856
177.618085	5619.490000	1650.202148	32.068245
177.618085	5619.490000	1649.171875	34.352375
177.618085	5619.490000	1648.141602	1.838625
177.618085	5619.490000	1647.111328	8.759272
177.618085	5619.490000	1646.080078	36.540844
177.618085	5619.490000	1645.049805	31.854748
177.618085	5619.490000	1644.018555	85.110825
177.618085	5619.490000	1642.987305	68.823166
177.618085	5619.490000	1641.955078	27.051363
177.618085	5619.490000	1640.923828	98.800568
177.618085	5619.490000	1639.891602	13.030170
177.618085	5619.490000	1638.859375	22.227669
177.618085	5619.490000	1637.827148	29.104343
177.618085	5619.490000	1636.794922	-5.687608
177.618085	5619.490000	1635.761719	59.040783
177.618085	5619.490000	1634.729492	49.703388
177.618085	5619.490000	1633.696289	49.619198
177.618085	5619.490000	1632.662109	54.157452
177.618085	5619.490000	1631.628906	135.003021
177.618085	5619.490000	1630.594727	109.463921
177.618085	5619.490000	1629.561523	132.476486
177.618085	5619.490000	1628.527344	-27.096851
177.618085	5619.490000	1627.493164	92.974350
177.618085	5619.490000	1626.458008	53.594875
177.618085	5619.490000	1625.423828	219.795547
177.618085	5619.490000	1624.388672	217.352615
177.618085	5619.490000	1623.353516	157.189407
177.618085	5619.490000	1622.318359	92.431740
177.618085	5619.490000	1621.282227	117.705833
177.618085	5619.490000	1620.247070	256.036896
177.618085	5619.490000	1619.210938	214.364288
177.618085	5619.490000	1618.174805	237.291733
177.618085	5619.490000	1617.137695	131.065079
177.618085	5619.490000	1616.101563	57.160690
177.618085	5619.490000	1615.064453	61.660755
177.618085	5619.490000	1614.027344	119.168999
177.618085	5619.490000	1612.990234	153.611542
177.618085	5619.490000	1611.953125	116.620819
177.618085	5619.490000	1610.916016	224.760406
177.618085	5619.490000	1609.877930	139.406525
177.618085	5619.490000	1608.839844	183.027878
177.618085	5619.490000	1607.801758	104.622635
177.618085	5619.490000	1606.763672	-42.800568
177.618085	5619.490000	1605.724609	120.492905
177.618085	5619.490000	1604.685547	97.363838
177.618085	5619.490000	1603.646484	127.151688
177.618085	5619.490000	1602.607422	198.325806
177.618085	5619.490000	1601.568359	103.917305
177.618085	5619.490000	1600.528320	191.161789
177.618085	5619.490000	1599.489258	253.091507
177.618085	5619.490000	1598.449219	165.624146
177.618085	5619.490000	1597.408203	82.786148
177.618085	5619.490000	1596.368164	163.081451
177.618085	5619.490000	1595.327148	112.433601
177.618085	5619.490000	1594.287109	112.326469
177.618085	5619.490000	1593.246094	64.007835
177.618085	5619.490000	1592.204102	91.455582
177.618085	5619.490000	1591.163086	98.241959
177.618085	5619.490000	1590.121094	178.449234
177.618085	5619.490000	1589.079102	155.397141
177.618085	5619.490000	1588.037109	162.172943
177.618085	5619.490000	1586.995117	95.568970
177.618085	5619.490000	1585.953125	267.431030
177.618085	5619.490000	1584.910156	198.544357
177.618085	5619.490000	1583.867188	173.231094
177.618085	5619.490000	1582.824219	37.947407
177.618085	5619.490000	1581.781250	246.350632
177.618085	5619.490000	1580.737305	248.535553
177.618085	5619.490000	1579.693359	264.463470
177.618085	5619.490000	1578.649414	122.410904
177.618085	5619.490000	1577.605469	168.121811
177.618085	5619.490000	1576.561523	145.159515
177.618085	5619.490000	1575.516602	129.073212
177.618085	5619.490000	1574.472656	158.753128
177.618085	5619.490000	1573.427734	110.656158
177.618085	5619.490000	1572.381836	163.201340
177.618085	5619.490000	1571.336914	94.553329
177.618085	5619.490000	1570.291016	44.222244
177.618085	5619.490000	1569.246094	126.475235
177.618085	5619.490000	1568.200195	199.558548
177.618085	5619.490000	1567.153320	199.509644
177.618085	5619.490000	1566.107422	41.860771
177.618085	5619.490000	1565.060547	197.143356
177.618085	5619.490000	1564.013672	78.380173
177.618085	5619.490000	1562.966797	50.980488
177.618085	5619.490000	1561.919922	39.573059
177.618085	5619.490000	1560.872070	28.173918
177.618085	5619.490000	1559.825195	92.074043
177.618085	5619.490000	1558.777344	149.109848
177.618085	5619.490000	1557.729492	153.675644
177.618085	5619.490000	1556.680664	71.599998
177.618085	5619.490000	1555.632813	46.554935
177.618085	5619.490000	1554.583984	83.062950
177.618085	5619.490000	1553.535156	108.168488
177.618085	5619.490000	1552.486328	124.156776
177.618085	5619.490000	1551.436523	17.138643
177.618085	5619.490000	1550.387695	46.815346
177.618085	5619.490000	1549.337891	119.747536
177.618085	5619.490000	1548.288086	185.827744
177.618085	5619.490000	1547.238281	33.385178
177.618085	5619.490000	1546.187500	85.814362
177.618085	5619.490000	1545.136719	106.376961
177.618085	5619.490000	1544.086914	142.862442
177.618085	5619.490000	1543.035156	54.252113
177.618085	5619.490000	1541.984375	118.031883
177.618085	5619.490000	1540.933594	174.973251
177.618085	5619.490000	1539.881836	90.975655
177.618085	5619.490000	1538.830078	-2.071579
177.618085	5619.490000	1537.778320	248.003494
177.618085	5619.490000	1536.725586	161.790314
177.618085	5619.490000	1535.673828	89.246498
177.618085	5619.490000	1534.621094	159.791306
177.618085	5619.490000	1533.568359	39.615036
177.618085	5619.490000	1532.515625	198.679657
177.618085	5619.490000	1531.461914	71.749214
177.618085	5619.490000	1530.409180	194.457535
177.618085	5619.490000	1529.355469	47.177784
177.618085	5619.490000	1528.301758	147.177368
177.618085	5619.490000	1527.247070	120.160751
177.618085	5619.490000	1526.193359	104.499763
177.618085	5619.490000	1525.138672	2.718742
177.618085	5619.490000	1524.083984	150.270370
177.618085	5619.490000	1523.029297	-17.170008
177.618085	5619.490000	1521.974609	186.977051
177.618085	5619.490000	1520.918945	157.769089
177.618085	5619.490000	1519.863281	114.994682
177.618085	5619.490000	1518.807617	146.957367
177.618085	5619.490000	1517.751953	65.739471
177.618085	5619.490000	1516.696289	0.404326
177.618085	5619.490000	1515.639648	50.497551
177.618085	5619.490000	1514.583008	150.347946
177.618085	5619.490000	1513.526367	204.933121
177.618085	5619.490000	1512.469727	24.331774
177.618085	5619.490000	1511.412109	-68.016899
177.618085	5619.490000	1510.355469	-8.871960
177.618085	5619.490000	1509.297852	-10.760802
177.618085	5619.490000	1508.240234	43.848442
177.618085	5619.490000	1507.181641	57.781502
177.618085	5619.490000	1506.124023	-75.089432
177.618085	5619.490000	1505.065430	47.272778
177.618085	5619.490000	1504.006836	-33.597351
177.618085	5619.490000	1502.948242	-15.106250
177.618085	5619.490000	1501.888672	23.698074
177.618085	5619.490000	1500.830078	73.779755
177.618085	5619.490000	1499.770508	-25.039801
177.618085	5619.490000	1498.710938	27.306589
177.618085	5619.490000	1497.650391	-6.049357
177.618085	5619.490000	1496.590820	-19.089394
177.618085	5619.490000	1495.530273	-68.180992
177.618085	5619.490000	1494.469727	90.096008
177.618085	5619.490000	1493.409180	-55.865517
177.618085	5619.490000	1492.348633	-143.186111
177.618085	5619.490000	1491.287109	-16.490353
177.618085	5619.490000	1490.225586	29.097937
177.618085	5619.490000	1489.164063	-112.190727
177.618085	5619.490000	1488.102539	61.726730
177.618085	5619.490000	1487.041016	19.533455
177.618085	5619.490000	1485.978516	62.871044
177.618085	5619.490000	1484.916016	-24.260851
177.618085	5619.490000	1483.853516	-57.397827
177.618085	5619.490000	1482.791016	-83.747353
177.618085	5619.490000	1481.727539	-105.578445
177.618085	5619.490000	1480.664063	70.418076
177.618085	5619.490000	1479.600586	28.352856
177.618085	5619.490000	1478.537109	-69.825333
177.618085	5619.490000	1477.473633	-26.460926
177.618085	5619.490000	1476.409180	-140.275024
177.618085	5619.490000	1475.344727	-25.019323
177.618085	5619.490000	1474.280273	13.788415
177.618085	5619.490000	1473.215820	10.032996
177.618085	5619.490000	1472.151367	-96.866592
177.618085	5619.490000	1471.085938	-120.752502
177.618085	5619.490000	1470.020508	-110.887207
177.618085	5619.490000	1468.955078	145.460281
177.618085	5619.490000	1467.888672	-4.095854
177.618085	5619.490000	1466.823242	61.812595
177.618085	5619.490000	1465.756836	149.964737
177.618085	5619.490000	1464.690430	97.052872
177.618085	5619.490000	1463.624023	88.814087
177.618085	5619.490000	1462.556641	11.368238
177.618085	5619.490000	1461.490234	-1.244228
177.618085	5619.490000	1460.422852	64.429985
177.618085	5619.490000	1459.355469	-30.322412
177.618085	5619.490000	1458.287109	15.262522
177.618085	5619.490000	1457.219727	-29.005579
177.618085	5619.490000	1456.151367	72.875259
177.618085	5619.490000	1455.083008	73.517136
177.618085	5619.490000	1454.014648	145.603928
177.618085	5619.490000	1452.945313	112.760201
177.618085	5619.490000	1451.876953	36.498371
177.618085	5619.490000	1450.807617	23.435509
177.618085	5619.490000	1449.738281	0.442198
177.618085	5619.490000	1448.668945	39.318024
177.618085	5619.490000	1447.598633	82.203255
177.618085	5619.490000	1446.528320	-5.401687
177.618085	5619.490000	1445.458008	77.569878
177.618085	5619.490000	1444.387695	38.130669
177.618085	5619.490000	1443.317383	-19.604553
177.618085	5619.490000	1442.246094	16.908104
177.618085	5619.490000	1441.174805	136.846985
177.618085	5619.490000	1440.103516	193.601501
177.618085	5619.490000	1439.032227	26.420212
177.618085	5619.490000	1437.960938	95.957436
177.618085	5619.490000	1436.888672	59.973175
177.618085	5619.490000	1435.816406	-3.088175
177.618085	5619.490000	1434.744141	17.820028
177.618085	5619.490000	1433.670898	29.875309
177.618085	5619.490000	1432.598633	100.453629
177.618085	5619.490000	1431.525391	69.036980
177.618085	5619.490000	1430.452148	32.725704
177.618085	5619.490000	1429.378906	12.348906
177.618085	5619.490000	1428.304688	-40.772278
177.618085	5619.490000	1427.231445	-79.317436
177.618085	5619.490000	1426.157227	-36.172363
177.618085	5619.490000	1425.083008	40.253185
177.618085	5619.490000	1424.007813	4.240604
177.618085	5619.490000	1422.933594	-23.224274
177.618085	5619.490000	1421.858398	108.535347
177.618085	5619.490000	1420.783203	-93.021919
177.618085	5619.490000	1419.708008	-81.738846
177.618085	5619.490000	1418.631836	75.350342
177.618085	5619.490000	1417.555664	81.341164
177.618085	5619.490000	1416.479492	-28.510504
177.618085	5619.490000	1415.403320	61.288979
177.618085	5619.490000	1414.327148	-38.645393
177.618085	5619.490000	1413.250000	-13.543109
177.618085	5619.490000	1412.173828	94.421989
177.618085	5619.490000	1411.096680	-94.876038
177.618085	5619.490000	1410.018555	-11.747953
177.618085	5619.490000	1408.941406	20.339594
177.618085	5619.490000	1407.863281	60.207272
177.618085	5619.490000	1406.785156	25.953159
177.618085	5619.490000	1405.707031	5.891948
177.618085	5619.490000	1404.628906	-109.820610
177.618085	5619.490000	1403.549805	-29.072336
177.618085	5619.490000	1402.470703	117.440849
177.618085	5619.490000	1401.391602	4.026316
177.618085	5619.490000	1400.312500	49.683800
177.618085	5619.490000	1399.233398	-2.375773
177.618085	5619.490000	1398.153320	-9.958871
177.618085	5619.490000	1397.073242	102.578857
177.618085	5619.490000	1395.993164	81.072853
177.618085	5619.490000	1394.913086	109.096085
177.618085	5619.490000	1393.832031	47.243988
177.618085	5619.490000	1392.750977	176.720444
177.618085	5619.490000	1391.669922	42.813999
177.618085	5619.490000	1390.588867	23.088840
177.618085	5619.490000	1389.506836	50.600170
177.618085	5619.490000	1388.425781	27.665028
177.618085	5619.490000	1387.343750	27.899458
177.618085	5619.490000	1386.261719	-6.678541
177.618085	5619.490000	1385.178711	-23.786188
177.618085	5619.490000	1384.096680	84.549469
177.618085	5619.490000	1383.013672	126.088600
177.618085	5619.490000	1381.930664	140.610641
177.618085	5619.490000	1380.846680	111.917450
177.618085	5619.490000	1379.763672	64.441116
177.618085	5619.490000	1378.679688	-56.656246
177.618085	5619.490000	1377.595703	-0.687788
177.618085	5619.490000	1376.511719	114.328636
177.618085	5619.490000	1375.427734	52.419613
177.618085	5619.490000	1374.342773	43.673199
177.618085	5619.490000	1373.257813	82.869217
177.618085	5619.490000	1372.172852	243.581833
177.618085	5619.490000	1371.087891	128.735596
177.618085	5619.490000	1370.001953	125.669586
177.618085	5619.490000	1368.916992	128.012177
177.618085	5619.490000	1367.831055	205.500656
177.618085	5619.490000	1366.744141	43.005390
177.618085	5619.490000	1365.658203	125.848282
177.618085	5619.490000	1364.571289	140.517441
177.618085	5619.490000	1363.484375	29.206135
177.618085	5619.490000	1362.397461	-23.120834
177.618085	5619.490000	1361.310547	-14.964241
177.618085	5619.490000	1360.222656	139.480438
177.618085	5619.490000	1359.135742	109.969276
177.618085	5619.490000	1358.047852	-5.799272
177.618085	5619.490000	1356.958984	107.452370
177.618085	5619.490000	1355.871094	66.577377
177.618085	5619.490000	1354.782227	96.428558
177.618085	5619.490000	1353.693359	53.033546
177.618085	5619.490000	1352.604492	76.245819
177.618085	5619.490000	1351.515625	102.441780
177.618085	5619.490000	1350.425781	94.709747
177.618085	5619.490000	1349.335938	145.609528
177.618085	5619.490000	1348.246094	44.986534
177.618085	5619.490000	1347.156250	52.763073
177.618085	5619.490000	1346.066406	84.509171
177.618085	5619.490000	1344.975586	39.511417
177.618085	5619.490000	1343.884766	-17.241713
177.618085	5619.490000	1342.793945	110.643036
177.618085	5619.490000	1341.702148	158.629044
177.618085	5619.490000	1340.611328	23.117027
177.618085	5619.490000	1339.519531	97.656631
177.618085	5619.490000	1338.427734	12.345142
177.618085	5619.490000	1337.334961	-9.067627
177.618085	5619.490000	1336.243164	24.487885
177.618085	5619.490000	1335.150391	19.679083
177.618085	5619.490000	1334.057617	4.484805
177.618085	5619.490000	1332.964844	92.946739
177.618085	5619.490000	1331.871094	-78.293411
177.618085	5619.490000	1330.778320	32.430496
177.618085	5619.490000	1329.684570	-2.757988
177.618085	5619.490000	1328.590820	52.891407
177.618085	5619.490000	1327.496094	12.667395
177.618085	5619.490000	1326.402344	1.602726
177.618085	5619.490000	1325.307617	-60.768559
177.618085	5619.490000	1324.212891	119.584770
177.618085	5619.490000	1323.117188	33.384323
177.618085	5619.490000	1322.022461	22.299980
177.618085	5619.490000	1320.926758	112.488167
177.618085	5619.490000	1319.831055	4.811134
177.618085	5619.490000	1318.735352	10.163585
177.618085	5619.490000	1317.638672	-5.773348
177.618085	5619.490000	1316.542969	7.017280
177.618085	5619.490000	1315.446289	43.215431
177.618085	5619.490000	1314.349609	147.653503
177.618085	5619.490000	1313.251953	12.988273
177.618085	5619.490000	1312.155273	-16.846668
177.618085	5619.490000	1311.057617	39.338245
177.618085	5619.490000	1309.959961	31.265514
177.618085	5619.490000	1308.862305	-71.915512
177.618085	5619.490000	1307.763672	-87.568306
177.618085	5619.490000	1306.665039	12.911443
177.618085	5619.490000	1305.566406	49.554428
177.618085	5619.490000	1304.467773	30.336893
177.618085	5619.490000	1303.369141	40.977028
177.618085	5619.490000	1302.269531	114.803055
177.618085	5619.490000	1301.169922	-9.710636
177.618085	5619.490000	1300.070313	47.558186
177.618085	5619.490000	1298.970703	-9.298757
177.618085	5619.490000	1297.870117	125.509933
177.618085	5619.490000	1296.769531	25.766214
177.618085	5619.490000	1295.668945	-21.868610
177.618085	5619.490000	1294.568359	96.972816
177.618085	5619.490000	1293.466797	143.387817
177.618085	5619.490000	1292.366211	87.960571
177.618085	5619.490000	1291.264648	26.528885
177.618085	5619.490000	1290.162109	10.491147
177.618085	5619.490000	1289.060547	16.791336
177.618085	5619.490000	1287.958008	73.660141
177.618085	5619.490000	1286.855469	27.411659
177.618085	5619.490000	1285.752930	-12.413160
177.618085	5619.490000	1284.650391	25.810108
177.618085	5619.490000	1283.546875	18.676184
177.618085	5619.490000	1282.444336	-39.229206
177.618085	5619.490000	1281.339844	19.215668
177.618085	5619.490000	1280.236328	77.719971
177.618085	5619.490000	1279.132813	11.579834
177.618085	5619.490000	1278.028320	-2.501096
177.618085	5619.490000	1276.923828	-37.523972
177.618085	5619.490000	1275.819336	51.977676
177.618085	5619.490000	1274.713867	9.236810
177.618085	5619.490000	1273.608398	70.079155
177.618085	5619.490000	1272.503906	75.628021
177.618085	5619.490000	1271.397461	49.658169
177.618085	5619.490000	1270.291992	-37.786232
177.618085	5619.490000	1269.185547	59.644646
177.618085	5619.490000	1268.080078	68.480186
177.618085	5619.490000	1266.972656	-2.956430
177.618085	5619.490000	1265.866211	68.543678
177.618085	5619.490000	1264.759766	48.931271
177.618085	5619.490000	1263.652344	-66.921219
177.618085	5619.490000	1262.544922	37.364853
177.618085	5619.490000	1261.436523	-70.391800
177.618085	5619.490000	1260.329102	-14.992929
177.618085	5619.490000	1259.220703	-6.714574
177.618085	5619.490000	1258.112305	-24.259417
177.618085	5619.490000	1257.003906	6.576803
177.618085	5619.490000	1255.895508	-15.491402
177.618085	5619.490000	1254.786133	-49.120609
177.618085	5619.490000	1253.676758	5.312638
177.618085	5619.490000	1252.567383	5.250395
177.618085	5619.490000	1251.458008	-8.847952
177.618085	5619.490000	1250.347656	-1.384811
177.618085	5619.490000	1249.237305	-39.740894
177.618085	5619.490000	1248.126953	-38.190460
177.618085	5619.490000	1247.016602	48.019825
177.618085	5619.490000	1245.905273	-65.217018
177.618085	5619.490000	1244.793945	-71.449692
177.618085	5619.490000	1243.682617	-91.357239
177.618085	5619.490000	1242.571289	-16.131397
177.618085	5619.490000	1241.459961	26.925503
177.618085	5619.490000	1240.347656	-73.798866
177.618085	5619.490000	1239.235352	-58.993855
177.618085	5619.490000	1238.123047	77.048454
177.618085	5619.490000	1237.009766	4.728935
177.618085	5619.490000	1235.897461	2.540506
177.618085	5619.490000	1234.784180	-33.073879
177.618085	5619.490000	1233.670898	-8.730605
177.618085	5619.490000	1232.556641	-29.811491
177.618085	5619.490000	1231.443359	-32.613209
177.618085	5619.490000	1230.329102	56.336037
177.618085	5619.490000	1229.214844	31.023613
177.618085	5619.490000	1228.099609	10.312579
177.618085	5619.490000	1226.985352	62.288803
177.618085	5619.490000	1225.870117	37.448288
177.618085	5619.490000	1224.754883	18.418753
177.618085	5619.490000	1223.639648	0.205243
177.618085	5619.490000	1222.523438	14.962101
177.618085	5619.490000	1221.408203	38.467537
177.618085	5619.490000	1220.291992	78.764709
177.618085	5619.490000	1219.174805	57.053490
177.618085	5619.490000	1218.058594	0.113043
177.618085	5619.490000	1216.941406	-19.051046
177.618085	5619.490000	1215.824219	87.104683
177.618085	5619.490000	1214.707031	-4.341231
177.618085	5619.490000	1213.589844	42.870148
177.618085	5619.490000	1212.471680	34.547253
177.618085	5619.490000	1211.353516	58.658829
177.618085	5619.490000	1210.235352	8.185995
177.618085	5619.490000	1209.117188	-17.323484
177.618085	5619.490000	1207.998047	-24.495741
177.618085	5619.490000	1206.878906	-34.897678
177.618085	5619.490000	1205.759766	-102.629242
177.618085	5619.490000	1204.640625	-4.911701
177.618085	5619.490000	1203.520508	32.126865
177.618085	5619.490000	1202.401367	-19.607008
177.618085	5619.490000	1201.281250	51.339111
177.618085	5619.490000	1200.160156	20.735895
177.618085	5619.490000	1199.040039	-84.012085
177.618085	5619.490000	1197.918945	-92.090820
177.618085	5619.490000	1196.797852	-163.807220
177.618085	5619.490000	1195.676758	-31.395245
177.618085	5619.490000	1194.555664	-34.165539
177.618085	5619.490000	1193.433594	-57.640926
177.618085	5619.490000	1192.311523	49.924156
177.618085	5619.490000	1191.189453	13.164395
177.618085	5619.490000	1190.066406	-3.075115
177.618085	5619.490000	1188.944336	5.691946
177.618085	5619.490000	1187.821289	-28.622955
177.618085	5619.490000	1186.698242	-19.979578
177.618085	5619.490000	1185.574219	-7.112414
177.618085	5619.490000	1184.451172	28.488531
177.618085	5619.490000	1183.327148	-43.679085
177.618085	5619.490000	1182.203125	-1.384349
177.618085	5619.490000	1181.078125	38.697334
177.618085	5619.490000	1179.954102	-27.057110
177.618085	5619.490000	1178.829102	-80.159531
177.618085	5619.490000	1177.704102	-117.331406
177.618085	5619.490000	1176.579102	-72.860191
177.618085	5619.490000	1175.453125	16.575321
177.618085	5619.490000	1174.327148	19.952364
177.618085	5619.490000	1173.201172	-32.353653
177.618085	5619.490000	1172.075195	-46.049595
177.618085	5619.490000	1170.949219	1.540242
177.618085	5619.490000	1169.822266	-16.364513
177.618085	5619.490000	1168.695313	67.602295
177.618085	5619.490000	1167.568359	53.117592
177.618085	5619.490000	1166.440430	-10.764276
177.618085	5619.490000	1165.313477	-70.087044
177.618085	5619.490000	1164.185547	19.099369
177.618085	5619.490000	1163.057617	-23.654802
177.618085	5619.490000	1161.928711	7.460406
177.618085	5619.490000	1160.800781	-9.744246
177.618085	5619.490000	1159.671875	-2.349686
177.618085	5619.490000	1158.541992	55.147671
177.618085	5619.490000	1157.413086	25.954834
177.618085	5619.490000	1156.283203	-0.160743
177.618085	5619.490000	1155.154297	35.967911
177.618085	5619.490000	1154.023438	-35.430103
177.618085	5619.490000	1152.893555	0.203566
177.618085	5619.490000	1151.763672	79.483818
177.618085	5619.490000	1150.632813	53.179100
177.618085	5619.490000	1149.501953	-40.263115
177.618085	5619.490000	1148.370117	10.646576
177.618085	5619.490000	1147.239258	-6.423138
177.618085	5619.490000	1146.107422	24.137966
177.618085	5619.490000	1144.975586	55.746353
177.618085	5619.490000	1143.843750	67.219337
177.618085	5619.490000	1142.710938	6.728935
177.618085	5619.490000	1141.578125	20.669889
177.618085	5619.490000	1140.445313	-19.844095
177.618085	5619.490000	1139.312500	28.750879
177.618085	5619.490000	1138.178711	29.263298
177.618085	5619.490000	1137.045898	71.390442
177.618085	5619.490000	1135.912109	27.159760
177.618085	5619.490000	1134.777344	19.238655
177.618085	5619.490000	1133.643555	-27.064007
177.618085	5619.490000	1132.508789	136.888092
177.618085	5619.490000	1131.374023	56.481903
177.618085	5619.490000	1130.239258	160.950516
177.618085	5619.490000	1129.104492	73.273361
177.618085	5619.490000	1127.968750	37.025269
177.618085	5619.490000	1126.833008	7.516298
177.618085	5619.490000	1125.697266	-81.190384
177.618085	5619.490000	1124.560547	50.341625
177.618085	5619.490000	1123.424805	5.999602
177.618085	5619.490000	1122.288086	82.074371
177.618085	5619.490000	1121.151367	20.775166
177.618085	5619.490000	1120.013672	81.711723
177.618085	5619.490000	1118.876953	15.928074
177.618085	5619.490000	1117.739258	25.106144
177.618085	5619.490000	1116.601563	25.199074
177.618085	5619.490000	1115.462891	36.460636
177.618085	5619.490000	1114.324219	78.373512
177.618085	5619.490000	1113.186523	78.243660
177.618085	5619.490000	1112.046875	119.280220
177.618085	5619.490000	1110.908203	30.437511
177.618085	5619.490000	1109.769531	-1.381285
177.618085	5619.490000	1108.629883	-40.169483
177.618085	5619.490000	1107.490234	48.365925
177.618085	5619.490000	1106.349609	62.919369
177.618085	5619.490000	1105.209961	-45.220909
177.618085	5619.490000	1104.069336	55.991947
177.618085	5619.490000	1102.928711	30.117319
177.618085	5619.490000	1101.787109	-3.655503
177.618085	5619.490000	1100.646484	-27.334391
177.618085	5619.490000	1099.504883	79.403366
177.618085	5619.490000	1098.363281	31.790510
177.618085	5619.490000	1097.221680	100.000572
177.618085	5619.490000	1096.079102	134.261902
177.618085	5619.490000	1094.936523	51.149036
177.618085	5619.490000	1093.793945	33.479313
177.618085	5619.490000	1092.651367	124.248299
177.618085	5619.490000	1091.507813	90.448967
177.618085	5619.490000	1090.364258	-22.272102
177.618085	5619.490000	1089.220703	28.297701
177.618085	5619.490000	1088.077148	141.951309
177.618085	5619.490000	1086.933594	44.071720
177.618085	5619.490000	1085.789063	61.569637
177.618085	5619.490000	1084.644531	98.801376
177.618085	5619.490000	1083.499023	99.574341
177.618085	5619.490000	1082.354492	82.298744
177.618085	5619.490000	1081.208984	24.926846
177.618085	5619.490000	1080.063477	105.377235
177.618085	5619.490000	1078.917969	16.429411
177.618085	5619.490000	1077.771484	75.006500
177.618085	5619.490000	1076.625977	144.737244
177.618085	5619.490000	1075.479492	60.513588
177.618085	5619.490000	1074.332031	119.089615
177.618085	5619.490000	1073.185547	75.265251
177.618085	5619.490000	1072.038086	106.115021
177.618085	5619.490000	1070.890625	37.451832
177.618085	5619.490000	1069.743164	145.534683
177.618085	5619.490000	1068.594727	26.100151
177.618085	5619.490000	1067.447266	-43.056198
177.618085	5619.490000	1066.298828	10.818578
177.618085	5619.490000	1065.149414	-106.744797
177.618085	5619.490000	1064.000977	48.687462
177.618085	5619.490000	1062.851563	73.901237
177.618085	5619.490000	1061.702148	123.391106
177.618085	5619.490000	1060.552734	45.582355
177.618085	5619.490000	1059.402344	114.192711
177.618085	5619.490000	1058.252930	27.436279
177.618085	5619.490000	1057.102539	78.239525
177.618085	5619.490000	1055.951172	-41.153934
177.618085	5619.490000	1054.800781	90.388969
177.618085	5619.490000	1053.649414	-24.424549
177.618085	5619.490000	1052.498047	91.684311
177.618085	5619.490000	1051.346680	20.316612
177.618085	5619.490000	1050.194336	12.744253
177.618085	5619.490000	1049.042969	-21.350569
177.618085	5619.490000	1047.890625	28.404350
177.618085	5619.490000	1046.738281	131.030273
177.618085	5619.490000	1045.584961	60.990746
177.618085	5619.490000	1044.431641	8.535313
177.618085	5619.490000	1043.278320	172.513077
177.618085	5619.490000	1042.125000	8.188194
177.618085	5619.490000	1040.971680	27.770842
177.618085	5619.490000	1039.817383	74.665710
177.618085	5619.490000	1038.663086	-66.584908
177.618085	5619.490000	1037.508789	53.404724
177.618085	5619.490000	1036.353516	131.287567
177.618085	5619.490000	1035.198242	31.359838
177.618085	5619.490000	1034.042969	-17.803276
177.618085	5619.490000	1032.887695	34.387321
177.618085	5619.490000	1031.732422	70.287582
177.618085	5619.490000	1030.576172	82.996246
177.618085	5619.490000	1029.419922	164.748520
177.618085	5619.490000	1028.263672	-38.197292
177.618085	5619.490000	1027.106445	20.616177
177.618085	5619.490000	1025.949219	28.354572
177.618085	5619.490000	1024.792969	130.221405
177.618085	5619.490000	1023.634766	85.891029
177.618085	5619.490000	1022.477539	16.934681
177.618085	5619.490000	1021.319336	136.539795
177.618085	5619.490000	1020.161133	111.676491
177.618085	5619.490000	1019.002930	91.050079
177.618085	5619.490000	1017.843750	79.840797
177.618085	5619.490000	1016.684570	-4.713874
177.618085	5619.490000	1015.525391	-30.612486
177.618085	5619.490000	1014.366211	10.621527
177.618085	5619.490000	1013.207031	-35.053341
177.618085	5619.490000	1012.046875	-84.874840
177.618085	5619.490000	1010.886719	41.432365
177.618085	5619.490000	1009.726563	-51.970348
177.618085	5619.490000	1008.565430	-75.342712
177.618085	5619.490000	1007.404297	40.557903
177.618085	5619.490000	1006.243164	-1.637884
177.618085	5619.490000	1005.082031	-12.250627
177.618085	5619.490000	1003.920898	135.945267
177.618085	5619.490000	1002.758789	-6.950595
177.618085	5619.490000	1001.596680	-16.809065
177.618085	5619.490000	1000.433594	51.428940
177.618085	5619.490000	999.271484	-20.425795
177.618085	5619.490000	998.108398	86.404572
177.618085	5619.490000	996.945313	-60.924694
177.618085	5619.490000	995.782227	13.694086
177.618085	5619.490000	994.618164	95.847321
177.618085	5619.490000	993.454102	98.551636
177.618085	5619.490000	992.290039	42.621483
177.618085	5619.490000	991.125977	113.216789
177.618085	5619.490000	989.960938	-109.296768
177.618085	5619.490000	988.796875	-20.970114
177.618085	5619.490000	987.630859	-25.819008
177.618085	5619.490000	986.465820	24.530472
177.618085	5619.490000	985.300781	144.707687
177.618085	5619.490000	984.134766	101.646423
177.618085	5619.490000	982.968750	92.397278
177.618085	5619.490000	981.801758	171.735092
177.618085	5619.490000	980.635742	31.143913
177.618085	5619.490000	979.468750	-29.932072
177.618085	5619.490000	978.301758	59.336571
177.618085	5619.490000	977.133789	-78.297798
177.618085	5619.490000	975.966797	10.191630
177.618085	5619.490000	974.798828	73.835190
177.618085	5619.490000	973.630859	130.655212
177.618085	5619.490000	972.461914	22.211407
177.618085	5619.490000	971.293945	9.044046
177.618085	5619.490000	970.125000	87.520844
177.618085	5619.490000	968.956055	21.724190
177.618085	5619.490000	967.786133	-47.244946
177.618085	5619.490000	966.617188	-14.006413
177.618085	5619.490000	965.447266	-63.233799
177.618085	5619.490000	964.276367	-1.208105
177.618085	5619.490000	963.106445	21.385170
177.618085	5619.490000	961.935547	-19.147358
177.618085	5619.490000	960.764648	18.165417
177.618085	5619.490000	959.593750	15.521754
177.618085	5619.490000	958.422852	90.082558
177.618085	5619.490000	957.250977	26.172882
177.618085	5619.490000	956.079102	-12.588940
177.618085	5619.490000	954.907227	68.751213
177.618085	5619.490000	953.734375	-33.622982
177.618085	5619.490000	952.562500	111.280312
177.618085	5619.490000	951.389648	68.029091
177.618085	5619.490000	950.215820	88.477142
177.618085	5619.490000	949.042969	130.263779
177.618085	5619.490000	947.869141	111.054146
177.618085	5619.490000	946.695313	50.230545
177.618085	5619.490000	945.521484	163.854279
177.618085	5619.490000	944.346680	19.481548
177.618085	5619.490000	943.172852	56.728764
177.618085	5619.490000	941.998047	106.346977
177.618085	5619.490000	940.822266	170.704620
177.618085	5619.490000	939.647461	92.623177
177.618085	5619.490000	938.471680	14.498486
177.618085	5619.490000	937.295898	54.207729
177.618085	5619.490000	936.119141	15.378381
177.618085	5619.490000	934.943359	-67.686081
177.618085	5619.490000	933.766602	82.657188
177.618085	5619.490000	932.589844	14.363771
177.618085	5619.490000	931.413086	29.535505
177.618085	5619.490000	930.235352	96.310089
177.618085	5619.490000	929.057617	35.373585
177.618085	5619.490000	927.879883	70.191109
177.618085	5619.490000	926.702148	36.258045
177.618085	5619.490000	925.523438	51.418621
177.618085	5619.490000	924.344727	7.688268
177.618085	5619.490000	923.166016	-36.027473
177.618085	5619.490000	921.987305	-30.681950
177.618085	5619.490000	920.807617	-49.858925
177.618085	5619.490000	919.627930	-48.742416
177.618085	5619.490000	919.497070	-14.973938
177.618085	5619.490000	918.331055	100.638275
177.618085	5619.490000	917.165039	29.963568
177.618085	5619.490000	915.999023	-38.236816
177.618085	5619.490000	914.833008	150.781540
177.618085	5619.490000	913.666016	-8.035380
177.618085	5619.490000	912.499023	97.643822
177.618085	5619.490000	911.332031	-83.137871
177.618085	5619.490000	910.165039	27.400581
177.618085	5619.490000	908.997070	5.753250
177.618085	5619.490000	907.830078	-37.908531
177.618085	5619.490000	906.661133	72.542679
177.618085	5619.490000	905.493164	28.877687
177.618085	5619.490000	904.325195	-22.108416
177.618085	5619.490000	903.156250	105.371407
177.618085	5619.490000	901.987305	-26.268675
177.618085	5619.490000	900.818359	-16.136045
177.618085	5619.490000	899.648438	-6.010588
177.618085	5619.490000	898.478516	-74.053543
177.618085	5619.490000	897.308594	2.005854
177.618085	5619.490000	896.138672	-48.928066
177.618085	5619.490000	894.968750	-65.671204
177.618085	5619.490000	893.797852	-33.599884
177.618085	5619.490000	892.626953	13.094143
177.618085	5619.490000	891.456055	86.600357
177.618085	5619.490000	890.284180	74.707695
177.618085	5619.490000	889.113281	99.393028
177.618085	5619.490000	887.941406	26.544767
177.618085	5619.490000	886.768555	114.599686
177.618085	5619.490000	885.596680	-33.777584
177.618085	5619.490000	884.423828	-6.666916
177.618085	5619.490000	883.250977	13.120829
177.618085	5619.490000	882.078125	113.269508
177.618085	5619.490000	880.905273	21.005713
177.618085	5619.490000	879.731445	147.885193
177.618085	5619.490000	878.557617	101.892517
177.618085	5619.490000	877.383789	24.278929
177.618085	5619.490000	876.209961	34.282970
177.618085	5619.490000	875.035156	-40.858948
177.618085	5619.490000	873.860352	-50.308247
177.618085	5619.490000	872.685547	234.460236
177.618085	5619.490000	871.510742	125.278328
177.618085	5619.490000	870.334961	120.652176
177.618085	5619.490000	869.159180	96.583710
177.618085	5619.490000	867.983398	145.408890
177.618085	5619.490000	866.807617	31.463188
177.618085	5619.490000	865.630859	104.561104
177.618085	5619.490000	864.454102	22.229237
177.618085	5619.490000	863.277344	41.885811
177.618085	5619.490000	862.100586	-6.427157
177.618085	5619.490000	860.922852	-30.457184
177.618085	5619.490000	859.745117	-32.645931
177.618085	5619.490000	858.567383	25.802273
177.618085	5619.490000	857.389648	132.724854
177.618085	5619.490000	856.210938	118.371834
177.618085	5619.490000	855.032227	101.597473
177.618085	5619.490000	853.853516	-63.012287
177.618085	5619.490000	852.674805	0.212747
177.618085	5619.490000	851.495117	128.819473
177.618085	5619.490000	850.315430	29.693134
177.618085	5619.490000	849.135742	10.517117
177.618085	5619.490000	847.956055	17.977953
177.618085	5619.490000	846.775391	32.695038
177.618085	5619.490000	845.595703	-32.461483
177.618085	5619.490000	844.415039	25.806482
177.618085	5619.490000	843.233398	-34.488117
177.618085	5619.490000	842.052734	125.331757
177.618085	5619.490000	840.871094	79.543686
177.618085	5619.490000	839.689453	-12.163099
177.618085	5619.490000	838.506836	118.540245
177.618085	5619.490000	837.325195	-91.557632
177.618085	5619.490000	836.142578	-1.971923
177.618085	5619.490000	834.959961	-13.882511
177.618085	5619.490000	833.777344	-23.376055
177.618085	5619.490000	832.593750	-28.038765
177.618085	5619.490000	831.410156	-1.318833
177.618085	5619.490000	830.226563	30.214170
177.618085	5619.490000	829.042969	93.102249
177.618085	5619.490000	827.858398	8.790923
177.618085	5619.490000	826.673828	103.009987
177.618085	5619.490000	825.489258	1.843670
177.618085	5619.490000	824.304688	-19.715820
177.618085	5619.490000	823.120117	38.282452
177.618085	5619.490000	821.934570	84.203423
177.618085	5619.490000	820.749023	84.319130
177.618085	5619.490000	819.562500	154.298233
177.618085	5619.490000	818.376953	29.142796
177.618085	5619.490000	817.190430	-71.881660
177.618085	5619.490000	816.003906	12.523754
177.618085	5619.490000	814.817383	-6.617263
177.618085	5619.490000	813.629883	-45.006203
177.618085	5619.490000	812.442383	27.302330
177.618085	5619.490000	811.254883	-78.442635
177.618085	5619.490000	810.067383	152.579468
177.618085	5619.490000	808.878906	-6.056015
177.618085	5619.490000	807.690430	99.832413
177.618085	5619.490000	806.501953	42.223026
177.618085	5619.490000	805.313477	75.955917
177.618085	5619.490000	804.124023	133.699936
177.618085	5619.490000	802.934570	71.306747
177.618085	5619.490000	801.745117	47.363750
177.618085	5619.490000	800.555664	21.026718
177.618085	5619.490000	799.365234	-17.305532
177.618085	5619.490000	798.175781	-22.021946
177.618085	5619.490000	796.985352	-43.537045
177.618085	5619.490000	795.793945	64.512695
177.618085	5619.490000	794.603516	45.381897
177.618085	5619.490000	793.412109	-26.504377
177.618085	5619.490000	792.220703	-36.022968
177.618085	5619.490000	791.028320	21.583084
177.618085	5619.490000	789.836914	38.417053
177.618085	5619.490000	788.644531	48.053150
177.618085	5619.490000	787.452148	122.367233
177.618085	5619.490000	786.258789	-35.690639
177.618085	5619.490000	785.066406	62.551914
177.618085	5619.490000	783.873047	-14.029148
177.618085	5619.490000	782.679688	53.044083
177.618085	5619.490000	781.485352	67.435524
177.618085	5619.490000	780.291992	33.962109
177.618085	5619.490000	779.097656	105.760025
177.618085	5619.490000	777.903320	7.709530
177.618085	5619.490000	776.708008	69.912773
177.618085	5619.490000	775.512695	38.846939
177.618085	5619.490000	774.318359	14.961408
177.618085	5619.490000	773.122070	36.489830
177.618085	5619.490000	771.926758	38.891418
177.618085	5619.490000	770.730469	50.845043
177.618085	5619.490000	769.534180	-59.012428
177.618085	5619.490000	768.337891	-44.661705
177.618085	5619.490000	767.141602	115.305405
177.618085	5619.490000	765.944336	74.711960
177.618085	5619.490000	764.747070	5.496854
177.618085	5619.490000	763.549805	-11.204673
177.618085	5619.490000	762.351563	141.455826
177.618085	5619.490000	761.154297	-20.747129
177.618085	5619.490000	759.956055	100.849419
177.618085	5619.490000	758.757813	84.130417
177.618085	5619.490000	757.558594	124.615677
177.618085	5619.490000	756.359375	-1.717080
177.618085	5619.490000	755.160156	184.085754
177.618085	5619.490000	753.960938	103.041733
177.618085	5619.490000	752.761719	45.842030
177.618085	5619.490000	751.561523	52.946381
177.618085	5619.490000	750.361328	100.510742
177.618085	5619.490000	749.160156	48.098606
177.618085	5619.490000	747.959961	126.569519
177.618085	5619.490000	746.758789	52.757767
177.618085	5619.490000	745.557617	9.892549
177.618085	5619.490000	744.356445	107.336159
177.618085	5619.490000	743.154297	-37.755630
177.618085	5619.490000	741.952148	64.405228
177.618085	5619.490000	740.750000	-35.472046
177.618085	5619.490000	739.547852	-2.261489
177.618085	5619.490000	738.344727	-21.326138
177.618085	5619.490000	737.142578	16.611071
177.618085	5619.490000	735.939453	-23.825588
177.618085	5619.490000	734.735352	99.551117
177.618085	5619.490000	733.532227	-50.069374
177.618085	5619.490000	732.328125	-28.780581
177.618085	5619.490000	731.124023	106.372070
177.618085	5619.490000	729.918945	92.034317
177.618085	5619.490000	728.714844	-14.786773
177.618085	5619.490000	727.509766	-12.503329
177.618085	5619.490000	726.303711	32.443703
177.618085	5619.490000	725.098633	-15.059179
177.618085	5619.490000	723.892578	32.232357
177.618085	5619.490000	722.686523	17.908155
177.618085	5619.490000	721.480469	72.271431
177.618085	5619.490000	720.274414	67.409569
177.618085	5619.490000	719.067383	133.570572
177.618085	5619.490000	717.860352	-8.592237
177.618085	5619.490000	716.653320	93.046875
177.618085	5619.490000	715.445313	5.362854
177.618085	5619.490000	714.238281	90.390915
177.618085	5619.490000	713.030273	-11.453025
177.618085	5619.490000	711.821289	7.331258
177.618085	5619.490000	710.613281	52.107616
177.618085	5619.490000	709.404297	61.409378
177.618085	5619.490000	708.195313	16.354750
177.618085	5619.490000	706.986328	120.152939
177.618085	5619.490000	705.776367	-28.830156
177.618085	5619.490000	704.566406	74.926987
177.618085	5619.490000	703.356445	-0.800014
177.618085	5619.490000	702.146484	-55.254330
177.618085	5619.490000	700.935547	-22.368422
177.618085	5619.490000	699.724609	-43.769192
177.618085	5619.490000	698.513672	109.403702
177.618085	5619.490000	697.302734	52.598736
177.618085	5619.490000	696.090820	87.777718
177.618085	5619.490000	694.878906	-60.950153
177.618085	5619.490000	693.666992	-56.411301
177.618085	5619.490000	692.455078	-9.460475
177.618085	5619.490000	691.242188	86.944687
177.618085	5619.490000	690.029297	23.127033
177.618085	5619.490000	688.816406	-10.051888
177.618085	5619.490000	687.602539	-17.319977
177.618085	5619.490000	686.389648	71.927711
177.618085	5619.490000	685.175781	17.566177
177.618085	5619.490000	683.960938	-32.070362
177.618085	5619.490000	682.747070	5.355717
177.618085	5619.490000	681.532227	-25.448318
177.618085	5619.490000	680.317383	68.391418
177.618085	5619.490000	679.102539	14.068041
177.618085	5619.490000	677.886719	96.099220
177.618085	5619.490000	676.670898	-47.519081
177.618085	5619.490000	675.455078	48.580082
177.618085	5619.490000	674.239258	13.083949
177.618085	5619.490000	673.022461	78.589783
177.618085	5619.490000	671.805664	-1.520213
177.618085	5619.490000	670.588867	117.948784
177.618085	5619.490000	669.372070	28.467474
177.618085	5619.490000	668.154297	42.272743
177.618085	5619.490000	666.936523	-4.932137
177.618085	5619.490000	665.718750	114.420944
177.618085	5619.490000	664.500977	24.999466
177.618085	5619.490000	663.282227	-57.353985
177.618085	5619.490000	662.063477	10.350505
177.618085	5619.490000	660.844727	33.492321
177.618085	5619.490000	659.625000	-11.332041
177.618085	5619.490000	658.405273	9.453762
177.618085	5619.490000	657.185547	18.515499
177.618085	5619.490000	655.965820	-26.289656
177.618085	5619.490000	654.745117	67.051277
177.618085	5619.490000	653.525391	62.038212
177.618085	5619.490000	652.303711	85.106323
177.618085	5619.490000	651.083008	23.930288
177.618085	5619.490000	649.861328	-72.312325
177.618085	5619.490000	648.640625	37.289791
177.618085	5619.490000	647.417969	20.577055
177.618085	5619.490000	646.196289	-40.550472
177.618085	5619.490000	644.973633	-1.154017
177.618085	5619.490000	643.750977	24.200720
177.618085	5619.490000	642.528320	26.178049
177.618085	5619.490000	641.305664	39.828999
177.618085	5619.490000	640.082031	109.516861
177.618085	5619.490000	638.858398	95.119072
177.618085	5619.490000	637.634766	-33.657097
177.618085	5619.490000	636.410156	5.650280
177.618085	5619.490000	635.185547	26.270451
177.618085	5619.490000	633.960938	7.220267
177.618085	5619.490000	632.736328	18.493635
177.618085	5619.490000	631.510742	67.067352
177.618085	5619.490000	630.285156	1.381622
177.618085	5619.490000	629.059570	-3.679023
177.618085	5619.490000	627.833984	58.838062
177.618085	5619.490000	626.607422	-9.146239
177.618085	5619.490000	625.380859	-14.213926
177.618085	5619.490000	624.154297	38.937992
177.618085	5619.490000	622.927734	-26.683149
177.618085	5619.490000	621.700195	-10.805158
177.618085	5619.490000	620.472656	21.353508
177.618085	5619.490000	619.245117	130.281387
177.618085	5619.490000	618.016602	11.173517
177.618085	5619.490000	616.788086	36.317310
177.618085	5619.490000	615.559570	-96.680290
177.618085	5619.490000	614.331055	5.189048
177.618085	5619.490000	613.101563	-16.181908
177.618085	5619.490000	611.872070	-63.110950
177.618085	5619.490000	610.642578	-72.849525
177.618085	5619.490000	609.413086	5.683204
177.618085	5619.490000	608.182617	9.861200
177.618085	5619.490000	606.952148	-9.186294
177.618085	5619.490000	605.721680	27.485325
177.618085	5619.490000	604.491211	-40.305557
177.618085	5619.490000	603.259766	-103.430351
177.618085	5619.490000	602.028320	16.745094
177.618085	5619.490000	600.796875	88.156342
177.618085	5619.490000	599.564453	71.412704
177.618085	5619.490000	598.332031	-14.882190
177.618085	5619.490000	597.099609	24.027302
177.618085	5619.490000	595.867188	35.106537
177.618085	5619.490000	594.633789	64.713356
177.618085	5619.490000	593.400391	-53.952660
177.618085	5619.490000	592.166992	61.345589
177.618085	5619.490000	590.933594	-22.543722
177.618085	5619.490000	589.699219	-83.250320
177.618085	5619.490000	588.464844	66.687843
177.618085	5619.490000	587.230469	26.807196
177.618085	5619.490000	585.995117	137.320770
177.618085	5619.490000	584.760742	51.173916
177.618085	5619.490000	583.525391	45.999958
177.618085	5619.490000	582.289063	22.328468
177.618085	5619.490000	581.053711	63.387775
177.618085	5619.490000	579.817383	9.671535
177.618085	5619.490000	578.581055	32.224602
177.618085	5619.490000	577.343750	29.353752
177.618085	5619.490000	576.107422	72.672829
177.618085	5619.490000	574.870117	53.624218
177.618085	5619.490000	573.631836	-97.010811
177.618085	5619.490000	572.394531	-14.463841
177.618085	5619.490000	571.156250	19.584433
177.618085	5619.490000	569.917969	-50.206127
177.618085	5619.490000	568.679688	48.415493
177.618085	5619.490000	567.440430	-9.826945
177.618085	5619.490000	566.202148	-24.239723
177.618085	5619.490000	564.961914	48.947456
177.618085	5619.490000	563.722656	6.866482
177.618085	5619.490000	562.482422	-9.853550
177.618085	5619.490000	561.243164	14.897363
177.618085	5619.490000	560.001953	62.667328
177.618085	5619.490000	558.761719	29.818964
177.618085	5619.490000	557.520508	-7.622644
177.618085	5619.490000	556.279297	28.604683
177.618085	5619.490000	555.038086	55.608898
177.618085	5619.490000	553.795898	126.312950
177.618085	5619.490000	552.554688	79.671600
177.618085	5619.490000	551.311523	106.639900
177.618085	5619.490000	550.069336	48.521427
177.618085	5619.490000	548.826172	-48.653881
177.618085	5619.490000	547.583984	15.089983
177.618085	5619.490000	546.339844	85.697556
177.618085	5619.490000	545.096680	18.434828
177.618085	5619.490000	543.852539	-30.427053
177.618085	5619.490000	542.608398	28.656574
177.618085	5619.490000	541.364258	-22.486853
177.618085	5619.490000	540.119141	-117.221512
177.618085	5619.490000	538.875000	91.000893
177.618085	5619.490000	537.628906	10.044290
177.618085	5619.490000	536.383789	78.221100
177.618085	5619.490000	535.137695	1.884701
177.618085	5619.490000	533.892578	10.415193
177.618085	5619.490000	532.645508	115.220428
177.618085	5619.490000	531.399414	20.584269
177.618085	5619.490000	530.152344	-195.457291
177.618085	5619.490000	528.905273	-21.953810
177.618085	5619.490000	527.658203	20.919935
177.618085	5619.490000	526.410156	43.164009
177.618085	5619.490000	525.163086	31.055479
177.618085	5619.490000	523.914063	-35.984158
177.618085	5619.490000	522.666016	-2.304801
177.618085	5619.490000	521.416992	-53.296272
177.618085	5619.490000	520.167969	-21.918287
177.618085	5619.490000	518.918945	-29.434250
177.618085	5619.490000	517.669922	102.527199
177.618085	5619.490000	516.419922	-140.472626
177.618085	5619.490000	515.169922	-54.257202
177.618085	5619.490000	513.919922	125.605118
177.618085	5619.490000	512.668945	22.108021
177.618085	5619.490000	511.417969	0.879184
177.618085	5619.490000	510.166992	-123.101646
177.618085	5619.490000	508.916016	-16.442366
177.618085	5619.490000	507.664063	30.822857
177.618085	5619.490000	506.412109	41.553391
177.618085	5619.490000	505.160156	118.443321
177.618085	5619.490000	503.907227	56.152576
177.618085	5619.490000	502.655273	-60.847191
177.618085	5619.490000	501.402344	38.811947
177.618085	5619.490000	500.148438	38.123631
177.618085	5619.490000	498.895508	-8.148496
177.618085	5619.490000	497.641602	54.972370
177.618085	5619.490000	496.387695	-98.359261
177.618085	5619.490000	495.132813	-1.084568
177.618085	5619.490000	493.878906	-42.760468
177.618085	5619.490000	492.624023	40.797089
177.618085	5619.490000	491.368164	-21.358711
177.618085	5619.490000	490.113281	-12.942991
177.618085	5619.490000	488.857422	63.723644
177.618085	5619.490000	487.601563	33.443638
177.618085	5619.490000	486.344727	78.224258
177.618085	5619.490000	485.088867	-77.104706
177.618085	5619.490000	483.832031	1.775025
177.618085	5619.490000	482.575195	-14.836797
177.618085	5619.490000	481.317383	-117.789375
177.618085	5619.490000	480.059570	-23.055931
177.618085	5619.490000	478.801758	92.076355
177.618085	5619.490000	477.543945	-90.317657
177.618085	5619.490000	476.285156	31.585413
177.618085	5619.490000	475.027344	-25.881983
177.618085	5619.490000	473.767578	82.333458
177.618085	5619.490000	472.508789	79.326408
177.618085	5619.490000	471.249023	-3.074433
177.618085	5619.490000	469.989258	-3.799831
177.618085	5619.490000	468.729492	-6.795229
177.618085	5619.490000	467.469727	46.878933
177.618085	5619.490000	466.208984	30.268614
177.618085	5619.490000	464.948242	-45.251545
177.618085	5619.490000	463.686523	42.366592
177.618085	5619.490000	462.425781	-19.541611
177.618085	5619.490000	461.164063	-88.220802
177.618085	5619.490000	459.901367	49.144260
177.618085	5619.490000	458.639648	50.638195
177.618085	5619.490000	457.376953	20.445515
177.618085	5619.490000	456.114258	148.633926
177.618085	5619.490000	454.851563	57.349224
177.618085	5619.490000	453.587891	76.911896
177.618085	5619.490000	452.324219	51.240471
177.618085	5619.490000	451.060547	32.355701
177.618085	5619.490000	449.796875	-56.587643
177.618085	5619.490000	448.532227	-3.148261
177.618085	5619.490000	447.267578	5.080380
177.618085	5619.490000	446.002930	47.177097
177.618085	5619.490000	444.737305	89.248177
177.618085	5619.490000	443.471680	56.792908
177.618085	5619.490000	442.206055	-14.026675
177.618085	5619.490000	440.940430	-71.284393
177.618085	5619.490000	439.673828	31.658684
177.618085	5619.490000	438.407227	71.390686
177.618085	5619.490000	437.140625	84.034058
177.618085	5619.490000	435.873047	89.898300
177.618085	5619.490000	434.605469	66.445572
177.618085	5619.490000	433.337891	76.797523
177.618085	5619.490000	432.070313	78.121208
177.618085	5619.490000	430.801758	45.642326
177.618085	5619.490000	429.533203	-67.914322
177.618085	5619.490000	428.264648	-28.316542
177.618085	5619.490000	426.996094	38.265755
177.618085	5619.490000	425.726563	-50.496040
177.618085	5619.490000	424.457031	13.784479
177.618085	5619.490000	423.186523	48.775478
177.618085	5619.490000	421.916992	128.722244
177.618085	5619.490000	420.646484	53.451096
177.618085	5619.490000	419.375977	63.632355
177.618085	5619.490000	418.104492	69.296371
177.618085	5619.490000	416.833008	59.208908
177.618085	5619.490000	415.561523	121.007256
177.618085	5619.490000	414.290039	110.876060
177.618085	5619.490000	413.017578	116.450531
177.618085	5619.490000	411.746094	119.757500
177.618085	5619.490000	410.472656	-2.673350
177.618085	5619.490000	409.200195	56.725231
177.618085	5619.490000	407.926758	91.391884
177.618085	5619.490000	406.653320	-6.342731
177.618085	5619.490000	405.379883	82.106026
177.618085	5619.490000	404.105469	103.217079
177.618085	5619.490000	402.831055	30.129906
177.618085	5619.490000	401.556641	24.292362
177.618085	5619.490000	400.282227	173.059265
177.618085	5619.490000	399.006836	52.870052
177.618085	5619.490000	397.731445	24.544601
177.618085	5619.490000	396.456055	123.855377
177.618085	5619.490000	395.179688	182.787338
177.618085	5619.490000	393.903320	51.382492
177.618085	5619.490000	392.626953	38.619545
177.618085	5619.490000	391.350586	-45.776028
177.618085	5619.490000	390.073242	62.220551
177.618085	5619.490000	388.795898	125.400322
177.618085	5619.490000	387.518555	47.637119
177.618085	5619.490000	386.240234	99.535622
177.618085	5619.490000	384.961914	88.785797
177.618085	5619.490000	383.683594	26.600973
177.618085	5619.490000	382.405273	80.577774
177.618085	5619.490000	381.125977	-12.939387
177.618085	5619.490000	379.846680	83.362007
177.618085	5619.490000	378.567383	108.126312
177.618085	5619.490000	377.287109	-36.821785
177.618085	5619.490000	376.006836	110.604393
177.618085	5619.490000	374.726563	-23.227493
177.618085	5619.490000	373.446289	3.562859
177.618085	5619.490000	372.165039	32.515156
177.618085	5619.490000	370.883789	59.168243
177.618085	5619.490000	369.602539	58.998993
177.618085	5619.490000	368.320313	45.395016
177.618085	5619.490000	367.039063	105.272285
177.618085	5619.490000	365.755859	-24.313374
177.618085	5619.490000	364.473633	44.331600
177.618085	5619.490000	363.190430	48.297157
177.618085	5619.490000	361.907227	-112.564598
177.618085	5619.490000	360.624023	-15.218235
177.618085	5619.490000	359.340820	-15.908143
177.618085	5619.490000	358.056641	-41.149570
177.618085	5619.490000	356.772461	-1.947800
177.618085	5619.490000	355.487305	19.363106
177.618085	5619.490000	354.202148	0.559132
177.618085	5619.490000	352.916992	-22.767187
177.618085	5619.490000	351.631836	89.405586
177.618085	5619.490000	350.346680	-74.095978
177.618085	5619.490000	349.060547	-182.080383
177.618085	5619.490000	347.774414	43.053127
177.618085	5619.490000	346.487305	-36.234432
177.618085	5619.490000	345.200195	-82.284889
177.618085	5619.490000	343.913086	20.299591
177.618085	5619.490000	342.625977	-3.757518
177.618085	5619.490000	341.338867	-65.628799
177.618085	5619.490000	340.050781	-34.421516
177.618085	5619.490000	338.762695	14.401002
177.618085	5619.490000	337.473633	-21.171144
177.618085	5619.490000	336.184570	18.522793
177.618085	5619.490000	334.895508	35.914925
177.618085	5619.490000	333.606445	-44.319786
177.618085	5619.490000	332.317383	-47.112141
177.618085	5619.490000	331.027344	9.762041
177.618085	5619.490000	329.736328	-39.814510
177.618085	5619.490000	328.446289	27.829571
177.618085	5619.490000	327.155273	24.471437
177.618085	5619.490000	325.864258	67.440292
177.618085	5619.490000	324.573242	46.082279
177.618085	5619.490000	323.281250	-32.932205
177.618085	5619.490000	321.989258	-45.725513
177.618085	5619.490000	320.697266	45.241161
177.618085	5619.490000	319.405273	-85.041550
177.618085	5619.490000	318.112305	109.427032
177.618085	5619.490000	316.819336	5.357496
177.618085	5619.490000	315.526367	-12.691154
177.618085	5619.490000	314.232422	154.599503
177.618085	5619.490000	312.938477	36.794666
177.618085	5619.490000	311.644531	135.193848
177.618085	5619.490000	310.349609	78.856010
177.618085	5619.490000	309.054688	33.377777
177.618085	5619.490000	307.759766	137.732712
177.618085	5619.490000	306.464844	8.038087
177.618085	5619.490000	305.168945	76.645859
177.618085	5619.490000	303.873047	125.164619
177.618085	5619.490000	302.577148	25.759972
177.618085	5619.490000	301.281250	29.746105
177.618085	5619.490000	299.984375	59.930481
