#X		#Y		#Wave		#Intensity
240.280851	6072.431667	1999.946289	-58.801037
240.280851	6072.431667	1998.981445	141.868546
240.280851	6072.431667	1998.017578	-13.526011
240.280851	6072.431667	1997.052734	150.936386
240.280851	6072.431667	1996.088867	122.210373
240.280851	6072.431667	1995.124023	4.433465
240.280851	6072.431667	1994.159180	-85.934837
240.280851	6072.431667	1993.193359	103.662292
240.280851	6072.431667	1992.228516	102.672737
240.280851	6072.431667	1991.262695	-155.644760
240.280851	6072.431667	1990.296875	34.202133
240.280851	6072.431667	1989.331055	48.402599
240.280851	6072.431667	1988.365234	-164.900986
240.280851	6072.431667	1987.398438	-100.988861
240.280851	6072.431667	1986.432617	-51.832275
240.280851	6072.431667	1985.465820	-27.322361
240.280851	6072.431667	1984.499023	41.775864
240.280851	6072.431667	1983.532227	4.664462
240.280851	6072.431667	1982.565430	83.808220
240.280851	6072.431667	1981.597656	-4.998098
240.280851	6072.431667	1980.629883	-34.392857
240.280851	6072.431667	1979.662109	99.323181
240.280851	6072.431667	1978.694336	18.240875
240.280851	6072.431667	1977.726563	11.342717
240.280851	6072.431667	1976.758789	-74.461044
240.280851	6072.431667	1975.790039	116.265663
240.280851	6072.431667	1974.821289	-13.780966
240.280851	6072.431667	1973.852539	144.950989
240.280851	6072.431667	1972.883789	24.970491
240.280851	6072.431667	1971.915039	62.945732
240.280851	6072.431667	1970.945313	128.102356
240.280851	6072.431667	1969.975586	5.945829
240.280851	6072.431667	1969.005859	46.582867
240.280851	6072.431667	1968.036133	33.058689
240.280851	6072.431667	1967.066406	-86.341225
240.280851	6072.431667	1966.096680	-136.653641
240.280851	6072.431667	1965.125977	-135.163101
240.280851	6072.431667	1964.155273	46.154099
240.280851	6072.431667	1963.184570	37.886250
240.280851	6072.431667	1962.213867	59.220303
240.280851	6072.431667	1961.242188	58.453091
240.280851	6072.431667	1960.271484	92.194519
240.280851	6072.431667	1959.299805	-31.476761
240.280851	6072.431667	1958.328125	86.008614
240.280851	6072.431667	1957.356445	4.299597
240.280851	6072.431667	1956.384766	259.535400
240.280851	6072.431667	1955.412109	64.837524
240.280851	6072.431667	1954.439453	-48.627182
240.280851	6072.431667	1953.467773	2.650739
240.280851	6072.431667	1952.495117	29.383627
240.280851	6072.431667	1951.521484	-78.960953
240.280851	6072.431667	1950.548828	1.900862
240.280851	6072.431667	1949.575195	-128.413971
240.280851	6072.431667	1948.601563	-62.222179
240.280851	6072.431667	1947.627930	-18.108019
240.280851	6072.431667	1946.654297	-3.424288
240.280851	6072.431667	1945.680664	57.915684
240.280851	6072.431667	1944.706055	11.318215
240.280851	6072.431667	1943.732422	40.815739
240.280851	6072.431667	1942.757813	-140.577637
240.280851	6072.431667	1941.783203	-216.433670
240.280851	6072.431667	1940.807617	65.695152
240.280851	6072.431667	1939.833008	16.852781
240.280851	6072.431667	1938.857422	-4.985415
240.280851	6072.431667	1937.881836	115.323563
240.280851	6072.431667	1936.906250	5.341131
240.280851	6072.431667	1935.930664	-45.792175
240.280851	6072.431667	1934.955078	-38.109638
240.280851	6072.431667	1933.978516	114.046532
240.280851	6072.431667	1933.001953	-181.795959
240.280851	6072.431667	1932.025391	51.141148
240.280851	6072.431667	1931.048828	19.738708
240.280851	6072.431667	1930.072266	93.568977
240.280851	6072.431667	1929.094727	-13.619263
240.280851	6072.431667	1928.118164	-98.738571
240.280851	6072.431667	1927.140625	163.404938
240.280851	6072.431667	1926.163086	134.545944
240.280851	6072.431667	1925.184570	-21.386967
240.280851	6072.431667	1924.207031	69.575378
240.280851	6072.431667	1923.228516	38.351681
240.280851	6072.431667	1922.250000	29.137514
240.280851	6072.431667	1921.271484	41.921261
240.280851	6072.431667	1920.292969	-57.620201
240.280851	6072.431667	1919.314453	130.985916
240.280851	6072.431667	1918.334961	9.515039
240.280851	6072.431667	1917.355469	34.535797
240.280851	6072.431667	1916.375977	-106.375473
240.280851	6072.431667	1915.396484	169.960098
240.280851	6072.431667	1914.416992	133.976303
240.280851	6072.431667	1913.436523	-38.560123
240.280851	6072.431667	1912.457031	18.175362
240.280851	6072.431667	1911.476563	318.681885
240.280851	6072.431667	1910.496094	75.533958
240.280851	6072.431667	1909.515625	15.251339
240.280851	6072.431667	1908.534180	149.914322
240.280851	6072.431667	1907.552734	101.823975
240.280851	6072.431667	1906.572266	-111.868996
240.280851	6072.431667	1905.590820	0.826822
240.280851	6072.431667	1904.608398	-224.941803
240.280851	6072.431667	1903.626953	-36.808300
240.280851	6072.431667	1902.644531	-123.765587
240.280851	6072.431667	1901.663086	39.940624
240.280851	6072.431667	1900.680664	72.206093
240.280851	6072.431667	1899.698242	16.888599
240.280851	6072.431667	1898.714844	105.071449
240.280851	6072.431667	1897.732422	-139.900177
240.280851	6072.431667	1896.749023	45.510109
240.280851	6072.431667	1895.765625	85.008774
240.280851	6072.431667	1894.782227	24.848146
240.280851	6072.431667	1893.798828	185.804016
240.280851	6072.431667	1892.814453	40.608105
240.280851	6072.431667	1891.831055	-55.968468
240.280851	6072.431667	1890.846680	250.584259
240.280851	6072.431667	1889.862305	151.557831
240.280851	6072.431667	1888.877930	37.991730
240.280851	6072.431667	1887.892578	125.895035
240.280851	6072.431667	1886.908203	80.295815
240.280851	6072.431667	1885.922852	-108.436646
240.280851	6072.431667	1884.937500	-234.045868
240.280851	6072.431667	1883.952148	-20.100740
240.280851	6072.431667	1882.965820	118.584564
240.280851	6072.431667	1881.980469	-21.584770
240.280851	6072.431667	1880.994141	-89.003227
240.280851	6072.431667	1880.007813	-66.748207
240.280851	6072.431667	1879.021484	16.053820
240.280851	6072.431667	1878.035156	169.058655
240.280851	6072.431667	1877.047852	21.664944
240.280851	6072.431667	1876.061523	126.146271
240.280851	6072.431667	1875.074219	-9.114651
240.280851	6072.431667	1874.086914	-6.367946
240.280851	6072.431667	1873.098633	-13.323404
240.280851	6072.431667	1872.111328	28.100336
240.280851	6072.431667	1871.123047	-7.928964
240.280851	6072.431667	1870.135742	-75.407982
240.280851	6072.431667	1869.147461	33.656189
240.280851	6072.431667	1868.158203	111.224998
240.280851	6072.431667	1867.169922	-57.833832
240.280851	6072.431667	1866.180664	186.451981
240.280851	6072.431667	1865.192383	275.965881
240.280851	6072.431667	1864.203125	-81.549385
240.280851	6072.431667	1863.213867	116.638718
240.280851	6072.431667	1862.223633	-57.207085
240.280851	6072.431667	1861.234375	-35.418968
240.280851	6072.431667	1860.244141	-57.119598
240.280851	6072.431667	1859.253906	44.266479
240.280851	6072.431667	1858.263672	15.269212
240.280851	6072.431667	1857.273438	61.057213
240.280851	6072.431667	1856.282227	109.214378
240.280851	6072.431667	1855.291992	63.261387
240.280851	6072.431667	1854.300781	-255.205917
240.280851	6072.431667	1853.309570	-64.840439
240.280851	6072.431667	1852.317383	-219.294662
240.280851	6072.431667	1851.326172	57.705238
240.280851	6072.431667	1850.333984	93.599640
240.280851	6072.431667	1849.342773	57.176155
240.280851	6072.431667	1848.350586	13.510826
240.280851	6072.431667	1847.357422	-49.433811
240.280851	6072.431667	1846.365234	135.631989
240.280851	6072.431667	1845.372070	87.075127
240.280851	6072.431667	1844.379883	115.532158
240.280851	6072.431667	1843.386719	105.444092
240.280851	6072.431667	1842.393555	-8.133594
240.280851	6072.431667	1841.399414	10.612179
240.280851	6072.431667	1840.406250	46.158043
240.280851	6072.431667	1839.412109	105.706528
240.280851	6072.431667	1838.417969	-63.205303
240.280851	6072.431667	1837.423828	224.644012
240.280851	6072.431667	1836.429688	-33.214504
240.280851	6072.431667	1835.434570	-125.206192
240.280851	6072.431667	1834.440430	181.618622
240.280851	6072.431667	1833.445313	-92.995857
240.280851	6072.431667	1832.450195	-72.146164
240.280851	6072.431667	1831.454102	191.176819
240.280851	6072.431667	1830.458984	159.086105
240.280851	6072.431667	1829.462891	167.777832
240.280851	6072.431667	1828.466797	-20.348288
240.280851	6072.431667	1827.470703	31.495649
240.280851	6072.431667	1826.474609	16.118082
240.280851	6072.431667	1825.478516	185.390915
240.280851	6072.431667	1824.481445	241.860199
240.280851	6072.431667	1823.484375	22.561563
240.280851	6072.431667	1822.487305	206.016327
240.280851	6072.431667	1821.490234	293.504639
240.280851	6072.431667	1820.493164	138.914078
240.280851	6072.431667	1819.495117	96.942863
240.280851	6072.431667	1818.498047	153.160889
240.280851	6072.431667	1817.500000	175.793854
240.280851	6072.431667	1816.500977	181.620834
240.280851	6072.431667	1815.502930	343.015656
240.280851	6072.431667	1814.504883	193.166763
240.280851	6072.431667	1813.505859	146.236069
240.280851	6072.431667	1812.506836	281.119965
240.280851	6072.431667	1811.507813	176.709976
240.280851	6072.431667	1810.508789	93.828278
240.280851	6072.431667	1809.508789	-12.972703
240.280851	6072.431667	1808.508789	-55.218288
240.280851	6072.431667	1807.508789	98.518204
240.280851	6072.431667	1806.508789	13.178101
240.280851	6072.431667	1805.508789	99.868759
240.280851	6072.431667	1804.508789	179.324493
240.280851	6072.431667	1803.507813	227.661057
240.280851	6072.431667	1802.506836	-60.767769
240.280851	6072.431667	1801.505859	44.824108
240.280851	6072.431667	1800.504883	260.147583
240.280851	6072.431667	1799.502930	-40.169037
240.280851	6072.431667	1798.501953	77.180939
240.280851	6072.431667	1797.500000	87.087952
240.280851	6072.431667	1796.498047	254.384552
240.280851	6072.431667	1795.496094	264.181061
240.280851	6072.431667	1794.493164	45.030457
240.280851	6072.431667	1793.491211	-52.489719
240.280851	6072.431667	1792.488281	102.639572
240.280851	6072.431667	1791.485352	21.750090
240.280851	6072.431667	1790.482422	105.254913
240.280851	6072.431667	1789.478516	121.987137
240.280851	6072.431667	1788.475586	69.609634
240.280851	6072.431667	1787.471680	124.367683
240.280851	6072.431667	1786.467773	14.793420
240.280851	6072.431667	1785.463867	17.099756
240.280851	6072.431667	1784.459961	140.741791
240.280851	6072.431667	1783.455078	219.088562
240.280851	6072.431667	1782.450195	92.773949
240.280851	6072.431667	1781.445313	16.420034
240.280851	6072.431667	1780.440430	39.937996
240.280851	6072.431667	1779.435547	137.116928
240.280851	6072.431667	1778.429688	91.586479
240.280851	6072.431667	1777.424805	138.732971
240.280851	6072.431667	1776.418945	0.469900
240.280851	6072.431667	1775.413086	23.780039
240.280851	6072.431667	1774.406250	-40.848698
240.280851	6072.431667	1773.400391	8.510343
240.280851	6072.431667	1772.393555	-77.535255
240.280851	6072.431667	1771.386719	12.093122
240.280851	6072.431667	1770.379883	23.322309
240.280851	6072.431667	1769.373047	-53.294884
240.280851	6072.431667	1768.365234	-58.743378
240.280851	6072.431667	1767.358398	89.972267
240.280851	6072.431667	1766.350586	41.733665
240.280851	6072.431667	1765.342773	-32.608849
240.280851	6072.431667	1764.334961	141.982895
240.280851	6072.431667	1763.326172	69.944733
240.280851	6072.431667	1762.318359	9.750977
240.280851	6072.431667	1761.309570	-22.026649
240.280851	6072.431667	1760.300781	-129.638214
240.280851	6072.431667	1759.291016	-19.335512
240.280851	6072.431667	1758.282227	-39.355862
240.280851	6072.431667	1757.272461	-9.687358
240.280851	6072.431667	1756.262695	57.810699
240.280851	6072.431667	1755.252930	-47.530506
240.280851	6072.431667	1754.243164	-20.350492
240.280851	6072.431667	1753.233398	-49.997761
240.280851	6072.431667	1752.222656	-150.638367
240.280851	6072.431667	1751.211914	-95.184151
240.280851	6072.431667	1750.201172	-117.817596
240.280851	6072.431667	1749.190430	-3.357897
240.280851	6072.431667	1748.179688	-101.707237
240.280851	6072.431667	1747.167969	45.716240
240.280851	6072.431667	1746.156250	37.106316
240.280851	6072.431667	1745.144531	-139.258514
240.280851	6072.431667	1744.132813	50.496895
240.280851	6072.431667	1743.121094	185.834641
240.280851	6072.431667	1742.108398	-181.803207
240.280851	6072.431667	1741.095703	130.492157
240.280851	6072.431667	1740.083008	67.384964
240.280851	6072.431667	1739.070313	53.820717
240.280851	6072.431667	1738.057617	33.150192
240.280851	6072.431667	1737.043945	26.602425
240.280851	6072.431667	1736.030273	-31.858917
240.280851	6072.431667	1735.016602	15.771242
240.280851	6072.431667	1734.002930	-23.871155
240.280851	6072.431667	1732.989258	61.384014
240.280851	6072.431667	1731.974609	-162.125931
240.280851	6072.431667	1730.959961	-199.458664
240.280851	6072.431667	1729.945313	-170.853210
240.280851	6072.431667	1728.930664	-130.515427
240.280851	6072.431667	1727.916016	-123.190193
240.280851	6072.431667	1726.900391	-118.257133
240.280851	6072.431667	1725.885742	-106.292328
240.280851	6072.431667	1724.870117	-115.547409
240.280851	6072.431667	1723.853516	37.512909
240.280851	6072.431667	1722.837891	141.088120
240.280851	6072.431667	1721.822266	150.514404
240.280851	6072.431667	1720.805664	-11.757920
240.280851	6072.431667	1719.789063	-63.498085
240.280851	6072.431667	1718.772461	39.891815
240.280851	6072.431667	1717.754883	-108.260033
240.280851	6072.431667	1716.738281	-134.194244
240.280851	6072.431667	1715.720703	98.265808
240.280851	6072.431667	1714.703125	128.610794
240.280851	6072.431667	1713.685547	13.316568
240.280851	6072.431667	1712.667969	1.346278
240.280851	6072.431667	1711.649414	-85.770844
240.280851	6072.431667	1710.630859	-62.574284
240.280851	6072.431667	1709.612305	49.755577
240.280851	6072.431667	1708.593750	58.786388
240.280851	6072.431667	1707.575195	-96.409294
240.280851	6072.431667	1706.555664	36.883186
240.280851	6072.431667	1705.536133	153.684067
240.280851	6072.431667	1704.516602	150.853973
240.280851	6072.431667	1703.497070	87.058258
240.280851	6072.431667	1702.477539	-40.010429
240.280851	6072.431667	1701.457031	88.321480
240.280851	6072.431667	1700.437500	-17.666279
240.280851	6072.431667	1699.416992	208.927780
240.280851	6072.431667	1698.395508	138.020889
240.280851	6072.431667	1697.375000	116.286461
240.280851	6072.431667	1696.354492	106.239838
240.280851	6072.431667	1695.333008	-6.803946
240.280851	6072.431667	1694.311523	-7.516769
240.280851	6072.431667	1693.290039	113.394653
240.280851	6072.431667	1692.267578	33.084190
240.280851	6072.431667	1691.246094	193.649338
240.280851	6072.431667	1690.223633	17.451223
240.280851	6072.431667	1689.201172	-198.439758
240.280851	6072.431667	1688.178711	141.963074
240.280851	6072.431667	1687.155273	164.421875
240.280851	6072.431667	1686.132813	51.356636
240.280851	6072.431667	1685.109375	71.447632
240.280851	6072.431667	1684.085938	16.779039
240.280851	6072.431667	1683.062500	99.869766
240.280851	6072.431667	1682.039063	-27.189028
240.280851	6072.431667	1681.014648	97.843277
240.280851	6072.431667	1679.990234	57.130051
240.280851	6072.431667	1678.965820	63.073978
240.280851	6072.431667	1677.941406	50.336548
240.280851	6072.431667	1676.916992	177.516754
240.280851	6072.431667	1675.891602	120.418617
240.280851	6072.431667	1674.866211	40.011269
240.280851	6072.431667	1673.840820	122.776505
240.280851	6072.431667	1672.815430	40.035984
240.280851	6072.431667	1671.790039	-42.688450
240.280851	6072.431667	1670.763672	368.445282
240.280851	6072.431667	1669.737305	248.386826
240.280851	6072.431667	1668.710938	-125.454247
240.280851	6072.431667	1667.684570	-138.307083
240.280851	6072.431667	1666.658203	76.942986
240.280851	6072.431667	1665.630859	-77.939194
240.280851	6072.431667	1664.603516	158.123077
240.280851	6072.431667	1663.576172	156.796188
240.280851	6072.431667	1662.548828	99.635201
240.280851	6072.431667	1661.520508	188.979202
240.280851	6072.431667	1660.493164	327.107239
240.280851	6072.431667	1659.464844	183.895325
240.280851	6072.431667	1658.436523	208.061798
240.280851	6072.431667	1657.408203	341.418549
240.280851	6072.431667	1656.378906	221.479462
240.280851	6072.431667	1655.350586	303.660400
240.280851	6072.431667	1654.321289	234.845062
240.280851	6072.431667	1653.291992	265.886658
240.280851	6072.431667	1652.261719	396.718872
240.280851	6072.431667	1651.232422	246.665924
240.280851	6072.431667	1650.202148	161.629013
240.280851	6072.431667	1649.171875	350.382263
240.280851	6072.431667	1648.141602	314.054016
240.280851	6072.431667	1647.111328	430.796997
240.280851	6072.431667	1646.080078	540.525391
240.280851	6072.431667	1645.049805	288.564453
240.280851	6072.431667	1644.018555	430.714752
240.280851	6072.431667	1642.987305	528.773865
240.280851	6072.431667	1641.955078	515.573975
240.280851	6072.431667	1640.923828	370.342560
240.280851	6072.431667	1639.891602	484.548309
240.280851	6072.431667	1638.859375	656.595215
240.280851	6072.431667	1637.827148	560.019836
240.280851	6072.431667	1636.794922	549.121338
240.280851	6072.431667	1635.761719	441.021088
240.280851	6072.431667	1634.729492	582.852783
240.280851	6072.431667	1633.696289	567.316528
240.280851	6072.431667	1632.662109	618.851257
240.280851	6072.431667	1631.628906	561.688354
240.280851	6072.431667	1630.594727	601.643127
240.280851	6072.431667	1629.561523	764.098450
240.280851	6072.431667	1628.527344	790.132263
240.280851	6072.431667	1627.493164	767.634033
240.280851	6072.431667	1626.458008	728.968079
240.280851	6072.431667	1625.423828	706.492859
240.280851	6072.431667	1624.388672	822.578369
240.280851	6072.431667	1623.353516	807.019226
240.280851	6072.431667	1622.318359	911.503479
240.280851	6072.431667	1621.282227	907.472595
240.280851	6072.431667	1620.247070	896.530090
240.280851	6072.431667	1619.210938	1007.862427
240.280851	6072.431667	1618.174805	934.630493
240.280851	6072.431667	1617.137695	725.364746
240.280851	6072.431667	1616.101563	772.121704
240.280851	6072.431667	1615.064453	814.250061
240.280851	6072.431667	1614.027344	978.520935
240.280851	6072.431667	1612.990234	953.780518
240.280851	6072.431667	1611.953125	970.527222
240.280851	6072.431667	1610.916016	874.406067
240.280851	6072.431667	1609.877930	904.989624
240.280851	6072.431667	1608.839844	1112.864502
240.280851	6072.431667	1607.801758	1012.188171
240.280851	6072.431667	1606.763672	1259.106689
240.280851	6072.431667	1605.724609	1036.491577
240.280851	6072.431667	1604.685547	1228.106934
240.280851	6072.431667	1603.646484	1042.410400
240.280851	6072.431667	1602.607422	1033.885620
240.280851	6072.431667	1601.568359	859.820190
240.280851	6072.431667	1600.528320	1272.059326
240.280851	6072.431667	1599.489258	1042.875000
240.280851	6072.431667	1598.449219	1087.255737
240.280851	6072.431667	1597.408203	1087.972900
240.280851	6072.431667	1596.368164	964.663208
240.280851	6072.431667	1595.327148	859.783508
240.280851	6072.431667	1594.287109	1016.739258
240.280851	6072.431667	1593.246094	964.724487
240.280851	6072.431667	1592.204102	1087.186890
240.280851	6072.431667	1591.163086	1172.906006
240.280851	6072.431667	1590.121094	941.966492
240.280851	6072.431667	1589.079102	743.250610
240.280851	6072.431667	1588.037109	913.893433
240.280851	6072.431667	1586.995117	770.331909
240.280851	6072.431667	1585.953125	961.573425
240.280851	6072.431667	1584.910156	971.668457
240.280851	6072.431667	1583.867188	832.814453
240.280851	6072.431667	1582.824219	897.962036
240.280851	6072.431667	1581.781250	937.904602
240.280851	6072.431667	1580.737305	1156.500366
240.280851	6072.431667	1579.693359	983.445801
240.280851	6072.431667	1578.649414	1078.355469
240.280851	6072.431667	1577.605469	990.123535
240.280851	6072.431667	1576.561523	1080.462280
240.280851	6072.431667	1575.516602	1282.903687
240.280851	6072.431667	1574.472656	1364.045166
240.280851	6072.431667	1573.427734	1452.034424
240.280851	6072.431667	1572.381836	1505.706055
240.280851	6072.431667	1571.336914	1291.880737
240.280851	6072.431667	1570.291016	1341.041260
240.280851	6072.431667	1569.246094	1285.080688
240.280851	6072.431667	1568.200195	1416.536621
240.280851	6072.431667	1567.153320	1244.111694
240.280851	6072.431667	1566.107422	1243.097168
240.280851	6072.431667	1565.060547	1013.735840
240.280851	6072.431667	1564.013672	999.118469
240.280851	6072.431667	1562.966797	1005.079346
240.280851	6072.431667	1561.919922	1111.490967
240.280851	6072.431667	1560.872070	770.631958
240.280851	6072.431667	1559.825195	701.433716
240.280851	6072.431667	1558.777344	940.224487
240.280851	6072.431667	1557.729492	731.962830
240.280851	6072.431667	1556.680664	843.024170
240.280851	6072.431667	1555.632813	737.510559
240.280851	6072.431667	1554.583984	739.187927
240.280851	6072.431667	1553.535156	585.941589
240.280851	6072.431667	1552.486328	585.434937
240.280851	6072.431667	1551.436523	726.185181
240.280851	6072.431667	1550.387695	643.731506
240.280851	6072.431667	1549.337891	559.061890
240.280851	6072.431667	1548.288086	715.772339
240.280851	6072.431667	1547.238281	608.430664
240.280851	6072.431667	1546.187500	608.116577
240.280851	6072.431667	1545.136719	496.354736
240.280851	6072.431667	1544.086914	482.490753
240.280851	6072.431667	1543.035156	484.579987
240.280851	6072.431667	1541.984375	511.722168
240.280851	6072.431667	1540.933594	361.567505
240.280851	6072.431667	1539.881836	577.447021
240.280851	6072.431667	1538.830078	363.779510
240.280851	6072.431667	1537.778320	536.482422
240.280851	6072.431667	1536.725586	538.782288
240.280851	6072.431667	1535.673828	423.025940
240.280851	6072.431667	1534.621094	495.817627
240.280851	6072.431667	1533.568359	482.352325
240.280851	6072.431667	1532.515625	532.486877
240.280851	6072.431667	1531.461914	680.221558
240.280851	6072.431667	1530.409180	707.690674
240.280851	6072.431667	1529.355469	590.004883
240.280851	6072.431667	1528.301758	420.244720
240.280851	6072.431667	1527.247070	654.215210
240.280851	6072.431667	1526.193359	602.484985
240.280851	6072.431667	1525.138672	489.614197
240.280851	6072.431667	1524.083984	279.383362
240.280851	6072.431667	1523.029297	329.844604
240.280851	6072.431667	1521.974609	65.450386
240.280851	6072.431667	1520.918945	140.932831
240.280851	6072.431667	1519.863281	64.714882
240.280851	6072.431667	1518.807617	40.643562
240.280851	6072.431667	1517.751953	227.136185
240.280851	6072.431667	1516.696289	40.192116
240.280851	6072.431667	1515.639648	70.579796
240.280851	6072.431667	1514.583008	96.476822
240.280851	6072.431667	1513.526367	267.162811
240.280851	6072.431667	1512.469727	-21.212492
240.280851	6072.431667	1511.412109	74.913467
240.280851	6072.431667	1510.355469	143.929230
240.280851	6072.431667	1509.297852	47.987022
240.280851	6072.431667	1508.240234	65.106911
240.280851	6072.431667	1507.181641	-46.498943
240.280851	6072.431667	1506.124023	210.144531
240.280851	6072.431667	1505.065430	17.359838
240.280851	6072.431667	1504.006836	113.689308
240.280851	6072.431667	1502.948242	63.310001
240.280851	6072.431667	1501.888672	213.854218
240.280851	6072.431667	1500.830078	77.835594
240.280851	6072.431667	1499.770508	59.227482
240.280851	6072.431667	1498.710938	88.044632
240.280851	6072.431667	1497.650391	-9.382220
240.280851	6072.431667	1496.590820	407.328308
240.280851	6072.431667	1495.530273	149.940979
240.280851	6072.431667	1494.469727	320.906830
240.280851	6072.431667	1493.409180	277.802307
240.280851	6072.431667	1492.348633	52.293709
240.280851	6072.431667	1491.287109	144.505966
240.280851	6072.431667	1490.225586	306.544220
240.280851	6072.431667	1489.164063	286.207581
240.280851	6072.431667	1488.102539	180.395645
240.280851	6072.431667	1487.041016	70.179977
240.280851	6072.431667	1485.978516	61.316654
240.280851	6072.431667	1484.916016	-44.200802
240.280851	6072.431667	1483.853516	-203.641693
240.280851	6072.431667	1482.791016	-117.822212
240.280851	6072.431667	1481.727539	-178.115936
240.280851	6072.431667	1480.664063	-121.431946
240.280851	6072.431667	1479.600586	-161.360825
240.280851	6072.431667	1478.537109	-232.659195
240.280851	6072.431667	1477.473633	-137.648148
240.280851	6072.431667	1476.409180	47.228653
240.280851	6072.431667	1475.344727	-133.892227
240.280851	6072.431667	1474.280273	-216.095551
240.280851	6072.431667	1473.215820	-138.827408
240.280851	6072.431667	1472.151367	3.430939
240.280851	6072.431667	1471.085938	33.496826
240.280851	6072.431667	1470.020508	52.374683
240.280851	6072.431667	1468.955078	-197.410889
240.280851	6072.431667	1467.888672	-73.192802
240.280851	6072.431667	1466.823242	13.226581
240.280851	6072.431667	1465.756836	-75.029610
240.280851	6072.431667	1464.690430	34.020309
240.280851	6072.431667	1463.624023	43.977070
240.280851	6072.431667	1462.556641	39.177971
240.280851	6072.431667	1461.490234	69.690155
240.280851	6072.431667	1460.422852	-2.029670
240.280851	6072.431667	1459.355469	-76.717911
240.280851	6072.431667	1458.287109	-8.236291
240.280851	6072.431667	1457.219727	183.435974
240.280851	6072.431667	1456.151367	194.540207
240.280851	6072.431667	1455.083008	163.343658
240.280851	6072.431667	1454.014648	279.288818
240.280851	6072.431667	1452.945313	75.895149
240.280851	6072.431667	1451.876953	191.964035
240.280851	6072.431667	1450.807617	98.208076
240.280851	6072.431667	1449.738281	200.295578
240.280851	6072.431667	1448.668945	188.462982
240.280851	6072.431667	1447.598633	-24.943861
240.280851	6072.431667	1446.528320	139.401382
240.280851	6072.431667	1445.458008	256.571045
240.280851	6072.431667	1444.387695	384.724426
240.280851	6072.431667	1443.317383	348.769775
240.280851	6072.431667	1442.246094	359.482941
240.280851	6072.431667	1441.174805	396.854980
240.280851	6072.431667	1440.103516	320.049011
240.280851	6072.431667	1439.032227	112.871765
240.280851	6072.431667	1437.960938	164.156296
240.280851	6072.431667	1436.888672	223.426758
240.280851	6072.431667	1435.816406	215.210022
240.280851	6072.431667	1434.744141	125.413345
240.280851	6072.431667	1433.670898	34.198742
240.280851	6072.431667	1432.598633	-20.780079
240.280851	6072.431667	1431.525391	-73.542839
240.280851	6072.431667	1430.452148	4.059062
240.280851	6072.431667	1429.378906	-15.873753
240.280851	6072.431667	1428.304688	-48.140915
240.280851	6072.431667	1427.231445	-80.622536
240.280851	6072.431667	1426.157227	194.863403
240.280851	6072.431667	1425.083008	-44.497704
240.280851	6072.431667	1424.007813	9.693972
240.280851	6072.431667	1422.933594	-46.179497
240.280851	6072.431667	1421.858398	122.726486
240.280851	6072.431667	1420.783203	253.178131
240.280851	6072.431667	1419.708008	328.128510
240.280851	6072.431667	1418.631836	330.023682
240.280851	6072.431667	1417.555664	404.136414
240.280851	6072.431667	1416.479492	241.390564
240.280851	6072.431667	1415.403320	119.461861
240.280851	6072.431667	1414.327148	135.465500
240.280851	6072.431667	1413.250000	183.061630
240.280851	6072.431667	1412.173828	116.170128
240.280851	6072.431667	1411.096680	236.506882
240.280851	6072.431667	1410.018555	86.839607
240.280851	6072.431667	1408.941406	176.193283
240.280851	6072.431667	1407.863281	144.978470
240.280851	6072.431667	1406.785156	123.108955
240.280851	6072.431667	1405.707031	146.844452
240.280851	6072.431667	1404.628906	-38.204781
240.280851	6072.431667	1403.549805	93.129723
240.280851	6072.431667	1402.470703	128.437271
240.280851	6072.431667	1401.391602	192.895523
240.280851	6072.431667	1400.312500	204.961411
240.280851	6072.431667	1399.233398	288.377991
240.280851	6072.431667	1398.153320	377.496643
240.280851	6072.431667	1397.073242	367.017670
240.280851	6072.431667	1395.993164	467.015167
240.280851	6072.431667	1394.913086	518.614014
240.280851	6072.431667	1393.832031	535.722473
240.280851	6072.431667	1392.750977	362.527893
240.280851	6072.431667	1391.669922	429.609253
240.280851	6072.431667	1390.588867	455.709564
240.280851	6072.431667	1389.506836	366.117126
240.280851	6072.431667	1388.425781	266.240356
240.280851	6072.431667	1387.343750	328.320099
240.280851	6072.431667	1386.261719	490.081482
240.280851	6072.431667	1385.178711	587.540466
240.280851	6072.431667	1384.096680	283.298431
240.280851	6072.431667	1383.013672	316.415955
240.280851	6072.431667	1381.930664	202.594437
240.280851	6072.431667	1380.846680	320.002502
240.280851	6072.431667	1379.763672	239.062256
240.280851	6072.431667	1378.679688	157.410919
240.280851	6072.431667	1377.595703	389.468384
240.280851	6072.431667	1376.511719	413.157379
240.280851	6072.431667	1375.427734	229.463959
240.280851	6072.431667	1374.342773	202.524887
240.280851	6072.431667	1373.257813	114.526398
240.280851	6072.431667	1372.172852	183.970261
240.280851	6072.431667	1371.087891	148.604294
240.280851	6072.431667	1370.001953	296.520508
240.280851	6072.431667	1368.916992	278.498199
240.280851	6072.431667	1367.831055	298.468689
240.280851	6072.431667	1366.744141	390.006104
240.280851	6072.431667	1365.658203	272.844543
240.280851	6072.431667	1364.571289	462.072815
240.280851	6072.431667	1363.484375	366.723328
240.280851	6072.431667	1362.397461	345.239197
240.280851	6072.431667	1361.310547	71.875107
240.280851	6072.431667	1360.222656	315.879700
240.280851	6072.431667	1359.135742	429.593781
240.280851	6072.431667	1358.047852	238.292389
240.280851	6072.431667	1356.958984	471.174622
240.280851	6072.431667	1355.871094	356.820221
240.280851	6072.431667	1354.782227	278.077759
240.280851	6072.431667	1353.693359	504.025970
240.280851	6072.431667	1352.604492	432.784698
240.280851	6072.431667	1351.515625	445.724792
240.280851	6072.431667	1350.425781	500.926392
240.280851	6072.431667	1349.335938	539.786438
240.280851	6072.431667	1348.246094	675.913940
240.280851	6072.431667	1347.156250	532.606567
240.280851	6072.431667	1346.066406	744.379578
240.280851	6072.431667	1344.975586	887.260681
240.280851	6072.431667	1343.884766	926.667908
240.280851	6072.431667	1342.793945	1086.501465
240.280851	6072.431667	1341.702148	653.938538
240.280851	6072.431667	1340.611328	728.591492
240.280851	6072.431667	1339.519531	602.262512
240.280851	6072.431667	1338.427734	584.080261
240.280851	6072.431667	1337.334961	604.684204
240.280851	6072.431667	1336.243164	484.134460
240.280851	6072.431667	1335.150391	556.707214
240.280851	6072.431667	1334.057617	353.629639
240.280851	6072.431667	1332.964844	318.591827
240.280851	6072.431667	1331.871094	204.076096
240.280851	6072.431667	1330.778320	154.242783
240.280851	6072.431667	1329.684570	250.631165
240.280851	6072.431667	1328.590820	197.112701
240.280851	6072.431667	1327.496094	63.909172
240.280851	6072.431667	1326.402344	-66.475754
240.280851	6072.431667	1325.307617	134.892090
240.280851	6072.431667	1324.212891	113.269722
240.280851	6072.431667	1323.117188	-11.375815
240.280851	6072.431667	1322.022461	-59.227737
240.280851	6072.431667	1320.926758	-59.063438
240.280851	6072.431667	1319.831055	-119.689590
240.280851	6072.431667	1318.735352	-54.436642
240.280851	6072.431667	1317.638672	-104.684998
240.280851	6072.431667	1316.542969	-82.918129
240.280851	6072.431667	1315.446289	-82.330986
240.280851	6072.431667	1314.349609	-92.489258
240.280851	6072.431667	1313.251953	50.700455
240.280851	6072.431667	1312.155273	-7.054275
240.280851	6072.431667	1311.057617	17.246273
240.280851	6072.431667	1309.959961	-102.146393
240.280851	6072.431667	1308.862305	-124.650642
240.280851	6072.431667	1307.763672	-83.199257
240.280851	6072.431667	1306.665039	-50.852379
240.280851	6072.431667	1305.566406	-30.695385
240.280851	6072.431667	1304.467773	-136.112488
240.280851	6072.431667	1303.369141	-127.500572
240.280851	6072.431667	1302.269531	-14.657482
240.280851	6072.431667	1301.169922	-29.322285
240.280851	6072.431667	1300.070313	-51.513958
240.280851	6072.431667	1298.970703	90.275864
240.280851	6072.431667	1297.870117	83.278770
240.280851	6072.431667	1296.769531	108.802422
240.280851	6072.431667	1295.668945	108.252632
240.280851	6072.431667	1294.568359	126.589897
240.280851	6072.431667	1293.466797	197.491257
240.280851	6072.431667	1292.366211	35.406044
240.280851	6072.431667	1291.264648	128.680984
240.280851	6072.431667	1290.162109	88.938805
240.280851	6072.431667	1289.060547	80.563148
240.280851	6072.431667	1287.958008	6.546488
240.280851	6072.431667	1286.855469	29.624838
240.280851	6072.431667	1285.752930	35.657120
240.280851	6072.431667	1284.650391	88.640930
240.280851	6072.431667	1283.546875	140.182297
240.280851	6072.431667	1282.444336	104.606873
240.280851	6072.431667	1281.339844	-0.533800
240.280851	6072.431667	1280.236328	90.259567
240.280851	6072.431667	1279.132813	390.760010
240.280851	6072.431667	1278.028320	304.001495
240.280851	6072.431667	1276.923828	215.648407
240.280851	6072.431667	1275.819336	243.429779
240.280851	6072.431667	1274.713867	314.539764
240.280851	6072.431667	1273.608398	369.198364
240.280851	6072.431667	1272.503906	144.953598
240.280851	6072.431667	1271.397461	285.298187
240.280851	6072.431667	1270.291992	92.772629
240.280851	6072.431667	1269.185547	252.747330
240.280851	6072.431667	1268.080078	107.502243
240.280851	6072.431667	1266.972656	-72.357277
240.280851	6072.431667	1265.866211	-28.607475
240.280851	6072.431667	1264.759766	37.384422
240.280851	6072.431667	1263.652344	107.044273
240.280851	6072.431667	1262.544922	101.323235
240.280851	6072.431667	1261.436523	41.996815
240.280851	6072.431667	1260.329102	146.943222
240.280851	6072.431667	1259.220703	179.623154
240.280851	6072.431667	1258.112305	152.688843
240.280851	6072.431667	1257.003906	263.633942
240.280851	6072.431667	1255.895508	203.194290
240.280851	6072.431667	1254.786133	183.033218
240.280851	6072.431667	1253.676758	201.607529
240.280851	6072.431667	1252.567383	209.352295
240.280851	6072.431667	1251.458008	138.499435
240.280851	6072.431667	1250.347656	174.859818
240.280851	6072.431667	1249.237305	263.170441
240.280851	6072.431667	1248.126953	333.550964
240.280851	6072.431667	1247.016602	354.790894
240.280851	6072.431667	1245.905273	211.432602
240.280851	6072.431667	1244.793945	311.935699
240.280851	6072.431667	1243.682617	387.923737
240.280851	6072.431667	1242.571289	428.114929
240.280851	6072.431667	1241.459961	547.030273
240.280851	6072.431667	1240.347656	518.168274
240.280851	6072.431667	1239.235352	636.580261
240.280851	6072.431667	1238.123047	643.326233
240.280851	6072.431667	1237.009766	531.324707
240.280851	6072.431667	1235.897461	697.077087
240.280851	6072.431667	1234.784180	518.973572
240.280851	6072.431667	1233.670898	491.768463
240.280851	6072.431667	1232.556641	396.924316
240.280851	6072.431667	1231.443359	372.112335
240.280851	6072.431667	1230.329102	308.801880
240.280851	6072.431667	1229.214844	283.816650
240.280851	6072.431667	1228.099609	357.164032
240.280851	6072.431667	1226.985352	205.601120
240.280851	6072.431667	1225.870117	220.342514
240.280851	6072.431667	1224.754883	61.630783
240.280851	6072.431667	1223.639648	77.037666
240.280851	6072.431667	1222.523438	175.696640
240.280851	6072.431667	1221.408203	115.095154
240.280851	6072.431667	1220.291992	162.344391
240.280851	6072.431667	1219.174805	146.140167
240.280851	6072.431667	1218.058594	192.769699
240.280851	6072.431667	1216.941406	100.545380
240.280851	6072.431667	1215.824219	77.350319
240.280851	6072.431667	1214.707031	24.253355
240.280851	6072.431667	1213.589844	132.917084
240.280851	6072.431667	1212.471680	107.191841
240.280851	6072.431667	1211.353516	27.924559
240.280851	6072.431667	1210.235352	101.285652
240.280851	6072.431667	1209.117188	25.450422
240.280851	6072.431667	1207.998047	-102.482750
240.280851	6072.431667	1206.878906	5.912179
240.280851	6072.431667	1205.759766	-19.078171
240.280851	6072.431667	1204.640625	-12.831235
240.280851	6072.431667	1203.520508	88.983810
240.280851	6072.431667	1202.401367	167.062286
240.280851	6072.431667	1201.281250	162.491104
240.280851	6072.431667	1200.160156	165.872360
240.280851	6072.431667	1199.040039	239.774384
240.280851	6072.431667	1197.918945	203.318298
240.280851	6072.431667	1196.797852	254.134262
240.280851	6072.431667	1195.676758	50.867279
240.280851	6072.431667	1194.555664	118.072571
240.280851	6072.431667	1193.433594	95.927628
240.280851	6072.431667	1192.311523	149.482529
240.280851	6072.431667	1191.189453	-14.205582
240.280851	6072.431667	1190.066406	-48.790253
240.280851	6072.431667	1188.944336	-46.578075
240.280851	6072.431667	1187.821289	-178.918655
240.280851	6072.431667	1186.698242	-268.551941
240.280851	6072.431667	1185.574219	-129.080750
240.280851	6072.431667	1184.451172	-165.071335
240.280851	6072.431667	1183.327148	-99.835297
240.280851	6072.431667	1182.203125	-158.801010
240.280851	6072.431667	1181.078125	-305.099609
240.280851	6072.431667	1179.954102	-398.117676
240.280851	6072.431667	1178.829102	-230.341568
240.280851	6072.431667	1177.704102	-275.767059
240.280851	6072.431667	1176.579102	-306.809662
240.280851	6072.431667	1175.453125	-79.243042
240.280851	6072.431667	1174.327148	-259.651825
240.280851	6072.431667	1173.201172	-136.477829
240.280851	6072.431667	1172.075195	-211.437317
240.280851	6072.431667	1170.949219	-63.629341
240.280851	6072.431667	1169.822266	-35.833534
240.280851	6072.431667	1168.695313	-114.229141
240.280851	6072.431667	1167.568359	-108.263855
240.280851	6072.431667	1166.440430	-155.997589
240.280851	6072.431667	1165.313477	-126.776611
240.280851	6072.431667	1164.185547	-138.119766
240.280851	6072.431667	1163.057617	-95.681831
240.280851	6072.431667	1161.928711	-53.019836
240.280851	6072.431667	1160.800781	120.875549
240.280851	6072.431667	1159.671875	38.896496
240.280851	6072.431667	1158.541992	113.142181
240.280851	6072.431667	1157.413086	146.098587
240.280851	6072.431667	1156.283203	163.889267
240.280851	6072.431667	1155.154297	126.946548
240.280851	6072.431667	1154.023438	84.090134
240.280851	6072.431667	1152.893555	113.495651
240.280851	6072.431667	1151.763672	61.683144
240.280851	6072.431667	1150.632813	34.975338
240.280851	6072.431667	1149.501953	-75.157326
240.280851	6072.431667	1148.370117	88.931084
240.280851	6072.431667	1147.239258	176.732727
240.280851	6072.431667	1146.107422	44.579865
240.280851	6072.431667	1144.975586	21.505526
240.280851	6072.431667	1143.843750	-71.774834
240.280851	6072.431667	1142.710938	-27.104610
240.280851	6072.431667	1141.578125	34.226036
240.280851	6072.431667	1140.445313	18.084917
240.280851	6072.431667	1139.312500	-107.040024
240.280851	6072.431667	1138.178711	111.064377
240.280851	6072.431667	1137.045898	0.197298
240.280851	6072.431667	1135.912109	-49.551498
240.280851	6072.431667	1134.777344	123.398643
240.280851	6072.431667	1133.643555	101.378288
240.280851	6072.431667	1132.508789	105.347191
240.280851	6072.431667	1131.374023	11.130638
240.280851	6072.431667	1130.239258	231.079880
240.280851	6072.431667	1129.104492	290.135040
240.280851	6072.431667	1127.968750	191.052078
240.280851	6072.431667	1126.833008	86.240372
240.280851	6072.431667	1125.697266	174.764084
240.280851	6072.431667	1124.560547	262.431854
240.280851	6072.431667	1123.424805	231.317871
240.280851	6072.431667	1122.288086	168.111954
240.280851	6072.431667	1121.151367	310.390625
240.280851	6072.431667	1120.013672	258.738800
240.280851	6072.431667	1118.876953	161.367569
240.280851	6072.431667	1117.739258	264.325043
240.280851	6072.431667	1116.601563	291.490509
240.280851	6072.431667	1115.462891	194.042633
240.280851	6072.431667	1114.324219	111.356880
240.280851	6072.431667	1113.186523	313.346954
240.280851	6072.431667	1112.046875	235.376175
240.280851	6072.431667	1110.908203	155.504547
240.280851	6072.431667	1109.769531	50.235817
240.280851	6072.431667	1108.629883	3.525809
240.280851	6072.431667	1107.490234	-3.652150
240.280851	6072.431667	1106.349609	60.651852
240.280851	6072.431667	1105.209961	-55.957859
240.280851	6072.431667	1104.069336	24.145319
240.280851	6072.431667	1102.928711	111.130150
240.280851	6072.431667	1101.787109	162.380051
240.280851	6072.431667	1100.646484	44.291576
240.280851	6072.431667	1099.504883	186.967682
240.280851	6072.431667	1098.363281	45.190536
240.280851	6072.431667	1097.221680	74.743149
240.280851	6072.431667	1096.079102	87.319351
240.280851	6072.431667	1094.936523	153.795166
240.280851	6072.431667	1093.793945	175.397934
240.280851	6072.431667	1092.651367	57.526897
240.280851	6072.431667	1091.507813	114.532028
240.280851	6072.431667	1090.364258	96.049248
240.280851	6072.431667	1089.220703	2.844988
240.280851	6072.431667	1088.077148	19.704229
240.280851	6072.431667	1086.933594	-8.417137
240.280851	6072.431667	1085.789063	158.985031
240.280851	6072.431667	1084.644531	255.477509
240.280851	6072.431667	1083.499023	-102.877998
240.280851	6072.431667	1082.354492	118.512360
240.280851	6072.431667	1081.208984	80.316093
240.280851	6072.431667	1080.063477	151.862793
240.280851	6072.431667	1078.917969	271.139618
240.280851	6072.431667	1077.771484	-29.891436
240.280851	6072.431667	1076.625977	116.668488
240.280851	6072.431667	1075.479492	213.930939
240.280851	6072.431667	1074.332031	138.491425
240.280851	6072.431667	1073.185547	112.393524
240.280851	6072.431667	1072.038086	99.545509
240.280851	6072.431667	1070.890625	154.560455
240.280851	6072.431667	1069.743164	269.040802
240.280851	6072.431667	1068.594727	131.434601
240.280851	6072.431667	1067.447266	-2.665329
240.280851	6072.431667	1066.298828	29.096205
240.280851	6072.431667	1065.149414	63.514923
240.280851	6072.431667	1064.000977	105.445526
240.280851	6072.431667	1062.851563	244.036026
240.280851	6072.431667	1061.702148	181.677124
240.280851	6072.431667	1060.552734	87.319923
240.280851	6072.431667	1059.402344	106.629089
240.280851	6072.431667	1058.252930	87.510445
240.280851	6072.431667	1057.102539	77.869492
240.280851	6072.431667	1055.951172	100.745163
240.280851	6072.431667	1054.800781	224.393082
240.280851	6072.431667	1053.649414	143.577972
240.280851	6072.431667	1052.498047	32.597095
240.280851	6072.431667	1051.346680	-19.241009
240.280851	6072.431667	1050.194336	64.760323
240.280851	6072.431667	1049.042969	119.927383
240.280851	6072.431667	1047.890625	10.658378
240.280851	6072.431667	1046.738281	138.950928
240.280851	6072.431667	1045.584961	61.794559
240.280851	6072.431667	1044.431641	-53.096241
240.280851	6072.431667	1043.278320	102.927940
240.280851	6072.431667	1042.125000	177.617111
240.280851	6072.431667	1040.971680	277.244690
240.280851	6072.431667	1039.817383	227.278580
240.280851	6072.431667	1038.663086	211.441269
240.280851	6072.431667	1037.508789	93.518906
240.280851	6072.431667	1036.353516	232.468536
240.280851	6072.431667	1035.198242	158.547943
240.280851	6072.431667	1034.042969	119.032532
240.280851	6072.431667	1032.887695	239.974106
240.280851	6072.431667	1031.732422	199.603149
240.280851	6072.431667	1030.576172	192.006454
240.280851	6072.431667	1029.419922	169.102127
240.280851	6072.431667	1028.263672	166.873627
240.280851	6072.431667	1027.106445	135.666443
240.280851	6072.431667	1025.949219	-25.080229
240.280851	6072.431667	1024.792969	43.637444
240.280851	6072.431667	1023.634766	203.092438
240.280851	6072.431667	1022.477539	-1.150702
240.280851	6072.431667	1021.319336	44.939064
240.280851	6072.431667	1020.161133	62.863644
240.280851	6072.431667	1019.002930	16.195868
240.280851	6072.431667	1017.843750	-83.451927
240.280851	6072.431667	1016.684570	-143.207108
240.280851	6072.431667	1015.525391	51.724827
240.280851	6072.431667	1014.366211	-66.573502
240.280851	6072.431667	1013.207031	-18.181095
240.280851	6072.431667	1012.046875	36.710037
240.280851	6072.431667	1010.886719	-55.686966
240.280851	6072.431667	1009.726563	27.360903
240.280851	6072.431667	1008.565430	27.968204
240.280851	6072.431667	1007.404297	-99.698700
240.280851	6072.431667	1006.243164	100.874466
240.280851	6072.431667	1005.082031	145.563797
240.280851	6072.431667	1003.920898	27.109648
240.280851	6072.431667	1002.758789	138.214813
240.280851	6072.431667	1001.596680	221.266541
240.280851	6072.431667	1000.433594	135.852798
240.280851	6072.431667	999.271484	-98.385109
240.280851	6072.431667	998.108398	238.282349
240.280851	6072.431667	996.945313	925.436401
240.280851	6072.431667	995.782227	3674.999023
240.280851	6072.431667	994.618164	510.610901
240.280851	6072.431667	993.454102	56.801506
240.280851	6072.431667	992.290039	251.581772
240.280851	6072.431667	991.125977	90.339569
240.280851	6072.431667	989.960938	29.338387
240.280851	6072.431667	988.796875	41.184460
240.280851	6072.431667	987.630859	-15.686542
240.280851	6072.431667	986.465820	-29.240234
240.280851	6072.431667	985.300781	85.934349
240.280851	6072.431667	984.134766	44.045414
240.280851	6072.431667	982.968750	152.658966
240.280851	6072.431667	981.801758	-55.479717
240.280851	6072.431667	980.635742	-7.664880
240.280851	6072.431667	979.468750	-2.647391
240.280851	6072.431667	978.301758	-12.594031
240.280851	6072.431667	977.133789	242.725708
240.280851	6072.431667	975.966797	72.630157
240.280851	6072.431667	974.798828	126.627487
240.280851	6072.431667	973.630859	3.263444
240.280851	6072.431667	972.461914	-0.792107
240.280851	6072.431667	971.293945	-164.155182
240.280851	6072.431667	970.125000	-1.405714
240.280851	6072.431667	968.956055	83.146217
240.280851	6072.431667	967.786133	-50.808151
240.280851	6072.431667	966.617188	-204.469559
240.280851	6072.431667	965.447266	-31.082706
240.280851	6072.431667	964.276367	-36.161617
240.280851	6072.431667	963.106445	92.356804
240.280851	6072.431667	961.935547	28.877113
240.280851	6072.431667	960.764648	41.995201
240.280851	6072.431667	959.593750	74.259613
240.280851	6072.431667	958.422852	63.840504
240.280851	6072.431667	957.250977	36.137386
240.280851	6072.431667	956.079102	201.034332
240.280851	6072.431667	954.907227	-59.290691
240.280851	6072.431667	953.734375	-181.300537
240.280851	6072.431667	952.562500	-27.483414
240.280851	6072.431667	951.389648	21.068727
240.280851	6072.431667	950.215820	-85.436935
240.280851	6072.431667	949.042969	-56.400543
240.280851	6072.431667	947.869141	-207.584625
240.280851	6072.431667	946.695313	-23.746504
240.280851	6072.431667	945.521484	-71.746284
240.280851	6072.431667	944.346680	-10.829726
240.280851	6072.431667	943.172852	34.429447
240.280851	6072.431667	941.998047	39.840244
240.280851	6072.431667	940.822266	-53.302238
240.280851	6072.431667	939.647461	167.290237
240.280851	6072.431667	938.471680	-112.214584
240.280851	6072.431667	937.295898	55.206474
240.280851	6072.431667	936.119141	68.230835
240.280851	6072.431667	934.943359	261.908630
240.280851	6072.431667	933.766602	110.237053
240.280851	6072.431667	932.589844	179.020584
240.280851	6072.431667	931.413086	157.432816
240.280851	6072.431667	930.235352	90.666214
240.280851	6072.431667	929.057617	116.825127
240.280851	6072.431667	927.879883	190.727692
240.280851	6072.431667	926.702148	28.411743
240.280851	6072.431667	925.523438	-17.111986
240.280851	6072.431667	924.344727	107.195534
240.280851	6072.431667	923.166016	43.049877
240.280851	6072.431667	921.987305	-2.508182
240.280851	6072.431667	920.807617	89.837189
240.280851	6072.431667	919.627930	93.553314
240.280851	6072.431667	919.497070	134.808914
240.280851	6072.431667	918.331055	12.268775
240.280851	6072.431667	917.165039	-203.011368
240.280851	6072.431667	915.999023	-81.678757
240.280851	6072.431667	914.833008	-37.250237
240.280851	6072.431667	913.666016	46.875053
240.280851	6072.431667	912.499023	-110.055664
240.280851	6072.431667	911.332031	-150.438644
240.280851	6072.431667	910.165039	134.789352
240.280851	6072.431667	908.997070	-93.583908
240.280851	6072.431667	907.830078	0.949684
240.280851	6072.431667	906.661133	-60.663502
240.280851	6072.431667	905.493164	-82.597412
240.280851	6072.431667	904.325195	-228.837708
240.280851	6072.431667	903.156250	-171.442871
240.280851	6072.431667	901.987305	-61.220207
240.280851	6072.431667	900.818359	-22.421444
240.280851	6072.431667	899.648438	13.702987
240.280851	6072.431667	898.478516	113.199829
240.280851	6072.431667	897.308594	101.700645
240.280851	6072.431667	896.138672	24.168070
240.280851	6072.431667	894.968750	-174.803452
240.280851	6072.431667	893.797852	43.370052
240.280851	6072.431667	892.626953	26.548376
240.280851	6072.431667	891.456055	-61.527538
240.280851	6072.431667	890.284180	151.164200
240.280851	6072.431667	889.113281	258.245972
240.280851	6072.431667	887.941406	164.855042
240.280851	6072.431667	886.768555	295.591217
240.280851	6072.431667	885.596680	20.315723
240.280851	6072.431667	884.423828	-17.671648
240.280851	6072.431667	883.250977	228.908936
240.280851	6072.431667	882.078125	48.607502
240.280851	6072.431667	880.905273	57.999424
240.280851	6072.431667	879.731445	175.338898
240.280851	6072.431667	878.557617	74.098167
240.280851	6072.431667	877.383789	-6.058501
240.280851	6072.431667	876.209961	-38.827694
240.280851	6072.431667	875.035156	-245.249237
240.280851	6072.431667	873.860352	24.535408
240.280851	6072.431667	872.685547	54.860893
240.280851	6072.431667	871.510742	166.674667
240.280851	6072.431667	870.334961	62.855309
240.280851	6072.431667	869.159180	61.574379
240.280851	6072.431667	867.983398	28.745142
240.280851	6072.431667	866.807617	-43.494053
240.280851	6072.431667	865.630859	-8.015166
240.280851	6072.431667	864.454102	-88.120239
240.280851	6072.431667	863.277344	-115.690445
240.280851	6072.431667	862.100586	95.631310
240.280851	6072.431667	860.922852	99.507668
240.280851	6072.431667	859.745117	145.355865
240.280851	6072.431667	858.567383	122.960243
240.280851	6072.431667	857.389648	-96.167824
240.280851	6072.431667	856.210938	-60.831554
240.280851	6072.431667	855.032227	-153.998459
240.280851	6072.431667	853.853516	-176.360260
240.280851	6072.431667	852.674805	71.227676
240.280851	6072.431667	851.495117	1.641298
240.280851	6072.431667	850.315430	-128.183548
240.280851	6072.431667	849.135742	-163.672043
240.280851	6072.431667	847.956055	20.817085
240.280851	6072.431667	846.775391	-61.834946
240.280851	6072.431667	845.595703	98.976448
240.280851	6072.431667	844.415039	29.406191
240.280851	6072.431667	843.233398	-121.258530
240.280851	6072.431667	842.052734	-127.991203
240.280851	6072.431667	840.871094	-126.882599
240.280851	6072.431667	839.689453	4.963659
240.280851	6072.431667	838.506836	42.627934
240.280851	6072.431667	837.325195	35.827709
240.280851	6072.431667	836.142578	-91.191925
240.280851	6072.431667	834.959961	84.918060
240.280851	6072.431667	833.777344	-94.325653
240.280851	6072.431667	832.593750	99.977074
240.280851	6072.431667	831.410156	-84.435562
240.280851	6072.431667	830.226563	-62.539082
240.280851	6072.431667	829.042969	82.015236
240.280851	6072.431667	827.858398	28.172873
240.280851	6072.431667	826.673828	55.224297
240.280851	6072.431667	825.489258	-6.434920
240.280851	6072.431667	824.304688	-141.101593
240.280851	6072.431667	823.120117	188.403030
240.280851	6072.431667	821.934570	-115.714371
240.280851	6072.431667	820.749023	-39.185291
240.280851	6072.431667	819.562500	60.756973
240.280851	6072.431667	818.376953	173.673859
240.280851	6072.431667	817.190430	28.665123
240.280851	6072.431667	816.003906	45.169212
240.280851	6072.431667	814.817383	-71.130737
240.280851	6072.431667	813.629883	-39.010574
240.280851	6072.431667	812.442383	6.100502
240.280851	6072.431667	811.254883	74.601913
240.280851	6072.431667	810.067383	-91.071754
240.280851	6072.431667	808.878906	-25.195904
240.280851	6072.431667	807.690430	142.061508
240.280851	6072.431667	806.501953	124.646271
240.280851	6072.431667	805.313477	0.654574
240.280851	6072.431667	804.124023	58.625919
240.280851	6072.431667	802.934570	-34.137917
240.280851	6072.431667	801.745117	80.948982
240.280851	6072.431667	800.555664	50.534061
240.280851	6072.431667	799.365234	-68.163055
240.280851	6072.431667	798.175781	-49.226238
240.280851	6072.431667	796.985352	203.300873
240.280851	6072.431667	795.793945	-73.680435
240.280851	6072.431667	794.603516	15.271907
240.280851	6072.431667	793.412109	5.607831
240.280851	6072.431667	792.220703	24.466064
240.280851	6072.431667	791.028320	-125.231216
240.280851	6072.431667	789.836914	75.094315
240.280851	6072.431667	788.644531	31.694771
240.280851	6072.431667	787.452148	89.364647
240.280851	6072.431667	786.258789	-99.121376
240.280851	6072.431667	785.066406	-57.009644
240.280851	6072.431667	783.873047	-66.717560
240.280851	6072.431667	782.679688	-1.345612
240.280851	6072.431667	781.485352	-3.314018
240.280851	6072.431667	780.291992	12.822845
240.280851	6072.431667	779.097656	5.656759
240.280851	6072.431667	777.903320	-11.865391
240.280851	6072.431667	776.708008	-44.908001
240.280851	6072.431667	775.512695	48.763905
240.280851	6072.431667	774.318359	-30.838293
240.280851	6072.431667	773.122070	52.431992
240.280851	6072.431667	771.926758	-9.068140
240.280851	6072.431667	770.730469	-31.794914
240.280851	6072.431667	769.534180	265.800140
240.280851	6072.431667	768.337891	111.283829
240.280851	6072.431667	767.141602	191.798569
240.280851	6072.431667	765.944336	50.248222
240.280851	6072.431667	764.747070	146.207169
240.280851	6072.431667	763.549805	22.765099
240.280851	6072.431667	762.351563	74.806305
240.280851	6072.431667	761.154297	199.037872
240.280851	6072.431667	759.956055	122.047798
240.280851	6072.431667	758.757813	-122.520638
240.280851	6072.431667	757.558594	58.352997
240.280851	6072.431667	756.359375	164.395004
240.280851	6072.431667	755.160156	64.234116
240.280851	6072.431667	753.960938	80.034721
240.280851	6072.431667	752.761719	21.117943
240.280851	6072.431667	751.561523	-45.511467
240.280851	6072.431667	750.361328	70.674088
240.280851	6072.431667	749.160156	179.076294
240.280851	6072.431667	747.959961	-52.297249
240.280851	6072.431667	746.758789	300.496643
240.280851	6072.431667	745.557617	-8.009011
240.280851	6072.431667	744.356445	216.000031
240.280851	6072.431667	743.154297	7.898556
240.280851	6072.431667	741.952148	154.654144
240.280851	6072.431667	740.750000	131.688492
240.280851	6072.431667	739.547852	59.889561
240.280851	6072.431667	738.344727	116.571030
240.280851	6072.431667	737.142578	242.567841
240.280851	6072.431667	735.939453	3.808781
240.280851	6072.431667	734.735352	114.340469
240.280851	6072.431667	733.532227	70.778191
240.280851	6072.431667	732.328125	186.348984
240.280851	6072.431667	731.124023	-39.435028
240.280851	6072.431667	729.918945	168.436005
240.280851	6072.431667	728.714844	-3.420076
240.280851	6072.431667	727.509766	9.421381
240.280851	6072.431667	726.303711	114.541656
240.280851	6072.431667	725.098633	170.894119
240.280851	6072.431667	723.892578	40.116230
240.280851	6072.431667	722.686523	137.421371
240.280851	6072.431667	721.480469	101.452888
240.280851	6072.431667	720.274414	55.235435
240.280851	6072.431667	719.067383	-78.045509
240.280851	6072.431667	717.860352	106.171646
240.280851	6072.431667	716.653320	11.290471
240.280851	6072.431667	715.445313	-27.270212
240.280851	6072.431667	714.238281	64.650749
240.280851	6072.431667	713.030273	0.473237
240.280851	6072.431667	711.821289	5.354677
240.280851	6072.431667	710.613281	12.768336
240.280851	6072.431667	709.404297	163.318558
240.280851	6072.431667	708.195313	272.889343
240.280851	6072.431667	706.986328	-67.350639
240.280851	6072.431667	705.776367	57.507542
240.280851	6072.431667	704.566406	31.587662
240.280851	6072.431667	703.356445	-55.633957
240.280851	6072.431667	702.146484	-56.033043
240.280851	6072.431667	700.935547	-18.164637
240.280851	6072.431667	699.724609	-95.182228
240.280851	6072.431667	698.513672	82.969124
240.280851	6072.431667	697.302734	123.263298
240.280851	6072.431667	696.090820	35.990391
240.280851	6072.431667	694.878906	152.728928
240.280851	6072.431667	693.666992	210.756012
240.280851	6072.431667	692.455078	233.047974
240.280851	6072.431667	691.242188	61.628223
240.280851	6072.431667	690.029297	2.360046
240.280851	6072.431667	688.816406	14.416050
240.280851	6072.431667	687.602539	18.800558
240.280851	6072.431667	686.389648	12.971006
240.280851	6072.431667	685.175781	200.591522
240.280851	6072.431667	683.960938	-49.663383
240.280851	6072.431667	682.747070	206.542282
240.280851	6072.431667	681.532227	228.555618
240.280851	6072.431667	680.317383	181.855316
240.280851	6072.431667	679.102539	5.451401
240.280851	6072.431667	677.886719	258.776764
240.280851	6072.431667	676.670898	120.503967
240.280851	6072.431667	675.455078	76.293472
240.280851	6072.431667	674.239258	52.399944
240.280851	6072.431667	673.022461	64.052551
240.280851	6072.431667	671.805664	9.634940
240.280851	6072.431667	670.588867	290.396423
240.280851	6072.431667	669.372070	15.023293
240.280851	6072.431667	668.154297	24.016150
240.280851	6072.431667	666.936523	-17.778376
240.280851	6072.431667	665.718750	1.305051
240.280851	6072.431667	664.500977	-101.407585
240.280851	6072.431667	663.282227	123.045624
240.280851	6072.431667	662.063477	134.387894
240.280851	6072.431667	660.844727	176.113663
240.280851	6072.431667	659.625000	4.894769
240.280851	6072.431667	658.405273	-100.401466
240.280851	6072.431667	657.185547	-46.080872
240.280851	6072.431667	655.965820	-27.275932
240.280851	6072.431667	654.745117	-51.561020
240.280851	6072.431667	653.525391	-25.232721
240.280851	6072.431667	652.303711	6.114039
240.280851	6072.431667	651.083008	7.046058
240.280851	6072.431667	649.861328	13.004976
240.280851	6072.431667	648.640625	26.516701
240.280851	6072.431667	647.417969	-96.583328
240.280851	6072.431667	646.196289	215.251511
240.280851	6072.431667	644.973633	-46.946503
240.280851	6072.431667	643.750977	-20.930767
240.280851	6072.431667	642.528320	12.620390
240.280851	6072.431667	641.305664	116.863602
240.280851	6072.431667	640.082031	54.318470
240.280851	6072.431667	638.858398	-5.709662
240.280851	6072.431667	637.634766	20.097475
240.280851	6072.431667	636.410156	33.236965
240.280851	6072.431667	635.185547	114.478104
240.280851	6072.431667	633.960938	190.603546
240.280851	6072.431667	632.736328	97.640076
240.280851	6072.431667	631.510742	110.612030
240.280851	6072.431667	630.285156	32.764439
240.280851	6072.431667	629.059570	-229.125900
240.280851	6072.431667	627.833984	146.762283
240.280851	6072.431667	626.607422	106.650002
240.280851	6072.431667	625.380859	119.428909
240.280851	6072.431667	624.154297	81.787453
240.280851	6072.431667	622.927734	-149.792435
240.280851	6072.431667	621.700195	-119.449181
240.280851	6072.431667	620.472656	97.129883
240.280851	6072.431667	619.245117	79.516548
240.280851	6072.431667	618.016602	76.972237
240.280851	6072.431667	616.788086	-109.257164
240.280851	6072.431667	615.559570	-31.344488
240.280851	6072.431667	614.331055	-6.309222
240.280851	6072.431667	613.101563	48.848740
240.280851	6072.431667	611.872070	-1.624086
240.280851	6072.431667	610.642578	5.689347
240.280851	6072.431667	609.413086	-117.687943
240.280851	6072.431667	608.182617	85.512619
240.280851	6072.431667	606.952148	27.397076
240.280851	6072.431667	605.721680	27.022636
240.280851	6072.431667	604.491211	-164.178482
240.280851	6072.431667	603.259766	-34.070076
240.280851	6072.431667	602.028320	-205.173431
240.280851	6072.431667	600.796875	-97.760902
240.280851	6072.431667	599.564453	167.591248
240.280851	6072.431667	598.332031	-31.137655
240.280851	6072.431667	597.099609	-11.688691
240.280851	6072.431667	595.867188	-69.989929
240.280851	6072.431667	594.633789	69.683060
240.280851	6072.431667	593.400391	1.296551
240.280851	6072.431667	592.166992	-154.772812
240.280851	6072.431667	590.933594	-55.346149
240.280851	6072.431667	589.699219	-3.573117
240.280851	6072.431667	588.464844	-51.995117
240.280851	6072.431667	587.230469	54.752308
240.280851	6072.431667	585.995117	31.293858
240.280851	6072.431667	584.760742	-32.215916
240.280851	6072.431667	583.525391	84.363754
240.280851	6072.431667	582.289063	-69.228691
240.280851	6072.431667	581.053711	39.742538
240.280851	6072.431667	579.817383	163.632431
240.280851	6072.431667	578.581055	20.020945
240.280851	6072.431667	577.343750	-1.127016
240.280851	6072.431667	576.107422	-12.303468
240.280851	6072.431667	574.870117	-6.024675
240.280851	6072.431667	573.631836	60.148056
240.280851	6072.431667	572.394531	-6.053008
240.280851	6072.431667	571.156250	10.110144
240.280851	6072.431667	569.917969	213.397369
240.280851	6072.431667	568.679688	37.334869
240.280851	6072.431667	567.440430	55.881069
240.280851	6072.431667	566.202148	49.453064
240.280851	6072.431667	564.961914	28.034826
240.280851	6072.431667	563.722656	39.005363
240.280851	6072.431667	562.482422	22.525764
240.280851	6072.431667	561.243164	65.829231
240.280851	6072.431667	560.001953	24.380964
240.280851	6072.431667	558.761719	-12.094065
240.280851	6072.431667	557.520508	-28.660980
240.280851	6072.431667	556.279297	114.088814
240.280851	6072.431667	555.038086	107.405212
240.280851	6072.431667	553.795898	33.505276
240.280851	6072.431667	552.554688	31.766069
240.280851	6072.431667	551.311523	62.336002
240.280851	6072.431667	550.069336	38.156326
240.280851	6072.431667	548.826172	210.388718
240.280851	6072.431667	547.583984	-97.253159
240.280851	6072.431667	546.339844	-7.132819
240.280851	6072.431667	545.096680	23.291800
240.280851	6072.431667	543.852539	153.050415
240.280851	6072.431667	542.608398	88.996689
240.280851	6072.431667	541.364258	-7.333809
240.280851	6072.431667	540.119141	5.591742
240.280851	6072.431667	538.875000	13.528267
240.280851	6072.431667	537.628906	-110.091202
240.280851	6072.431667	536.383789	-62.479149
240.280851	6072.431667	535.137695	9.895405
240.280851	6072.431667	533.892578	-198.023529
240.280851	6072.431667	532.645508	94.984482
240.280851	6072.431667	531.399414	-73.240601
240.280851	6072.431667	530.152344	-97.664513
240.280851	6072.431667	528.905273	-94.838699
240.280851	6072.431667	527.658203	108.636162
240.280851	6072.431667	526.410156	113.855728
240.280851	6072.431667	525.163086	-185.530273
240.280851	6072.431667	523.914063	-54.020912
240.280851	6072.431667	522.666016	-68.622192
240.280851	6072.431667	521.416992	-23.842531
240.280851	6072.431667	520.167969	-117.652748
240.280851	6072.431667	518.918945	1.298109
240.280851	6072.431667	517.669922	-55.410500
240.280851	6072.431667	516.419922	-119.529259
240.280851	6072.431667	515.169922	36.380196
240.280851	6072.431667	513.919922	-148.864899
240.280851	6072.431667	512.668945	-111.654945
240.280851	6072.431667	511.417969	-72.003708
240.280851	6072.431667	510.166992	-148.470474
240.280851	6072.431667	508.916016	-103.915291
240.280851	6072.431667	507.664063	-24.829720
240.280851	6072.431667	506.412109	-27.246592
240.280851	6072.431667	505.160156	-64.223770
240.280851	6072.431667	503.907227	-81.460869
240.280851	6072.431667	502.655273	-54.298229
240.280851	6072.431667	501.402344	61.623920
240.280851	6072.431667	500.148438	-41.965744
240.280851	6072.431667	498.895508	-123.332855
240.280851	6072.431667	497.641602	-98.698326
240.280851	6072.431667	496.387695	51.584137
240.280851	6072.431667	495.132813	63.828392
240.280851	6072.431667	493.878906	-15.073994
240.280851	6072.431667	492.624023	-12.692213
240.280851	6072.431667	491.368164	-170.354874
240.280851	6072.431667	490.113281	92.953575
240.280851	6072.431667	488.857422	4.220947
240.280851	6072.431667	487.601563	90.205215
240.280851	6072.431667	486.344727	185.977829
240.280851	6072.431667	485.088867	21.010818
240.280851	6072.431667	483.832031	-40.628582
240.280851	6072.431667	482.575195	15.744740
240.280851	6072.431667	481.317383	172.847092
240.280851	6072.431667	480.059570	-85.400612
240.280851	6072.431667	478.801758	-51.202301
240.280851	6072.431667	477.543945	-98.084656
240.280851	6072.431667	476.285156	7.286602
240.280851	6072.431667	475.027344	-10.152789
240.280851	6072.431667	473.767578	-79.150307
240.280851	6072.431667	472.508789	28.562052
240.280851	6072.431667	471.249023	-23.268364
240.280851	6072.431667	469.989258	94.164810
240.280851	6072.431667	468.729492	25.144148
240.280851	6072.431667	467.469727	103.251953
240.280851	6072.431667	466.208984	-98.153023
240.280851	6072.431667	464.948242	31.377506
240.280851	6072.431667	463.686523	-5.792970
240.280851	6072.431667	462.425781	25.630369
240.280851	6072.431667	461.164063	49.668671
240.280851	6072.431667	459.901367	41.836975
240.280851	6072.431667	458.639648	178.434402
240.280851	6072.431667	457.376953	251.305069
240.280851	6072.431667	456.114258	69.613251
240.280851	6072.431667	454.851563	98.384010
240.280851	6072.431667	453.587891	100.203835
240.280851	6072.431667	452.324219	192.479507
240.280851	6072.431667	451.060547	32.843819
240.280851	6072.431667	449.796875	110.362549
240.280851	6072.431667	448.532227	-54.144814
240.280851	6072.431667	447.267578	-6.035868
240.280851	6072.431667	446.002930	64.000069
240.280851	6072.431667	444.737305	124.193268
240.280851	6072.431667	443.471680	111.061447
240.280851	6072.431667	442.206055	193.103989
240.280851	6072.431667	440.940430	199.399277
240.280851	6072.431667	439.673828	181.236160
240.280851	6072.431667	438.407227	97.156540
240.280851	6072.431667	437.140625	-35.725849
240.280851	6072.431667	435.873047	126.474098
240.280851	6072.431667	434.605469	237.343002
240.280851	6072.431667	433.337891	97.023087
240.280851	6072.431667	432.070313	332.016846
240.280851	6072.431667	430.801758	186.727768
240.280851	6072.431667	429.533203	48.738827
240.280851	6072.431667	428.264648	139.676147
240.280851	6072.431667	426.996094	254.846420
240.280851	6072.431667	425.726563	187.295547
240.280851	6072.431667	424.457031	209.744843
240.280851	6072.431667	423.186523	190.723175
240.280851	6072.431667	421.916992	276.236542
240.280851	6072.431667	420.646484	86.752365
240.280851	6072.431667	419.375977	164.753403
240.280851	6072.431667	418.104492	211.003021
240.280851	6072.431667	416.833008	206.076111
240.280851	6072.431667	415.561523	237.490524
240.280851	6072.431667	414.290039	54.954418
240.280851	6072.431667	413.017578	144.440170
240.280851	6072.431667	411.746094	58.896725
240.280851	6072.431667	410.472656	55.802677
240.280851	6072.431667	409.200195	224.936890
240.280851	6072.431667	407.926758	97.739044
240.280851	6072.431667	406.653320	-141.178955
240.280851	6072.431667	405.379883	148.728729
240.280851	6072.431667	404.105469	115.745468
240.280851	6072.431667	402.831055	121.405312
240.280851	6072.431667	401.556641	301.447845
240.280851	6072.431667	400.282227	23.100807
240.280851	6072.431667	399.006836	59.722874
240.280851	6072.431667	397.731445	277.846832
240.280851	6072.431667	396.456055	272.812592
240.280851	6072.431667	395.179688	153.733109
240.280851	6072.431667	393.903320	114.387077
240.280851	6072.431667	392.626953	283.016541
240.280851	6072.431667	391.350586	49.569866
240.280851	6072.431667	390.073242	237.006104
240.280851	6072.431667	388.795898	153.152496
240.280851	6072.431667	387.518555	192.423996
240.280851	6072.431667	386.240234	8.925290
240.280851	6072.431667	384.961914	-87.742134
240.280851	6072.431667	383.683594	-37.218285
240.280851	6072.431667	382.405273	157.975235
240.280851	6072.431667	381.125977	-33.807877
240.280851	6072.431667	379.846680	-15.682134
240.280851	6072.431667	378.567383	-31.709517
240.280851	6072.431667	377.287109	241.650558
240.280851	6072.431667	376.006836	12.430414
240.280851	6072.431667	374.726563	101.512024
240.280851	6072.431667	373.446289	-63.183380
240.280851	6072.431667	372.165039	63.685192
240.280851	6072.431667	370.883789	-7.681611
240.280851	6072.431667	369.602539	-16.744350
240.280851	6072.431667	368.320313	-108.216690
240.280851	6072.431667	367.039063	-60.290436
240.280851	6072.431667	365.755859	-171.915527
240.280851	6072.431667	364.473633	-105.674362
240.280851	6072.431667	363.190430	-35.149288
240.280851	6072.431667	361.907227	119.123413
240.280851	6072.431667	360.624023	29.632444
240.280851	6072.431667	359.340820	-74.801811
240.280851	6072.431667	358.056641	68.120651
240.280851	6072.431667	356.772461	-66.292160
240.280851	6072.431667	355.487305	-16.022657
240.280851	6072.431667	354.202148	144.248428
240.280851	6072.431667	352.916992	-13.571149
240.280851	6072.431667	351.631836	39.584675
240.280851	6072.431667	350.346680	101.669235
240.280851	6072.431667	349.060547	196.668304
240.280851	6072.431667	347.774414	48.279781
240.280851	6072.431667	346.487305	33.720860
240.280851	6072.431667	345.200195	220.139755
240.280851	6072.431667	343.913086	-14.435268
240.280851	6072.431667	342.625977	7.141757
240.280851	6072.431667	341.338867	83.096428
240.280851	6072.431667	340.050781	215.748047
240.280851	6072.431667	338.762695	-5.127717
240.280851	6072.431667	337.473633	-116.489273
240.280851	6072.431667	336.184570	-65.660378
240.280851	6072.431667	334.895508	70.517586
240.280851	6072.431667	333.606445	21.141199
240.280851	6072.431667	332.317383	-254.426880
240.280851	6072.431667	331.027344	-46.991100
240.280851	6072.431667	329.736328	92.231644
240.280851	6072.431667	328.446289	91.478241
240.280851	6072.431667	327.155273	-161.765472
240.280851	6072.431667	325.864258	-85.708672
240.280851	6072.431667	324.573242	-120.908119
240.280851	6072.431667	323.281250	-186.008759
240.280851	6072.431667	321.989258	10.827764
240.280851	6072.431667	320.697266	-44.759899
240.280851	6072.431667	319.405273	-82.463791
240.280851	6072.431667	318.112305	62.570728
240.280851	6072.431667	316.819336	-11.271028
240.280851	6072.431667	315.526367	-45.831516
240.280851	6072.431667	314.232422	78.232956
240.280851	6072.431667	312.938477	-2.203121
240.280851	6072.431667	311.644531	-81.691299
240.280851	6072.431667	310.349609	305.201416
240.280851	6072.431667	309.054688	155.746033
240.280851	6072.431667	307.759766	171.801926
240.280851	6072.431667	306.464844	176.679886
240.280851	6072.431667	305.168945	430.283630
240.280851	6072.431667	303.873047	348.217834
240.280851	6072.431667	302.577148	285.893494
240.280851	6072.431667	301.281250	622.248230
240.280851	6072.431667	299.984375	441.824738
