#X		#Y		#Wave		#Intensity
69.163298	5991.636667	1999.946289	63.601177
69.163298	5991.636667	1998.981445	104.369186
69.163298	5991.636667	1998.017578	15.514111
69.163298	5991.636667	1997.052734	204.399902
69.163298	5991.636667	1996.088867	-47.639961
69.163298	5991.636667	1995.124023	-116.123528
69.163298	5991.636667	1994.159180	-45.732121
69.163298	5991.636667	1993.193359	64.396362
69.163298	5991.636667	1992.228516	-6.100412
69.163298	5991.636667	1991.262695	0.300598
69.163298	5991.636667	1990.296875	36.534428
69.163298	5991.636667	1989.331055	72.887764
69.163298	5991.636667	1988.365234	99.461807
69.163298	5991.636667	1987.398438	69.255653
69.163298	5991.636667	1986.432617	-59.734909
69.163298	5991.636667	1985.465820	11.717357
69.163298	5991.636667	1984.499023	18.982616
69.163298	5991.636667	1983.532227	88.149719
69.163298	5991.636667	1982.565430	26.424761
69.163298	5991.636667	1981.597656	147.660950
69.163298	5991.636667	1980.629883	-25.012508
69.163298	5991.636667	1979.662109	123.557953
69.163298	5991.636667	1978.694336	-63.667416
69.163298	5991.636667	1977.726563	-53.216095
69.163298	5991.636667	1976.758789	6.691136
69.163298	5991.636667	1975.790039	59.256069
69.163298	5991.636667	1974.821289	-33.699451
69.163298	5991.636667	1973.852539	11.618133
69.163298	5991.636667	1972.883789	22.465317
69.163298	5991.636667	1971.915039	43.249538
69.163298	5991.636667	1970.945313	-12.340896
69.163298	5991.636667	1969.975586	186.083588
69.163298	5991.636667	1969.005859	44.358799
69.163298	5991.636667	1968.036133	-144.069519
69.163298	5991.636667	1967.066406	42.147720
69.163298	5991.636667	1966.096680	38.672199
69.163298	5991.636667	1965.125977	27.866262
69.163298	5991.636667	1964.155273	105.771706
69.163298	5991.636667	1963.184570	166.468307
69.163298	5991.636667	1962.213867	-60.813236
69.163298	5991.636667	1961.242188	7.375777
69.163298	5991.636667	1960.271484	48.522675
69.163298	5991.636667	1959.299805	101.999329
69.163298	5991.636667	1958.328125	148.120911
69.163298	5991.636667	1957.356445	132.784363
69.163298	5991.636667	1956.384766	28.975571
69.163298	5991.636667	1955.412109	-30.507139
69.163298	5991.636667	1954.439453	-57.977982
69.163298	5991.636667	1953.467773	-55.911442
69.163298	5991.636667	1952.495117	17.439259
69.163298	5991.636667	1951.521484	41.661362
69.163298	5991.636667	1950.548828	14.327260
69.163298	5991.636667	1949.575195	1.763635
69.163298	5991.636667	1948.601563	89.894577
69.163298	5991.636667	1947.627930	16.004641
69.163298	5991.636667	1946.654297	-35.745586
69.163298	5991.636667	1945.680664	-116.900566
69.163298	5991.636667	1944.706055	-28.723209
69.163298	5991.636667	1943.732422	20.195690
69.163298	5991.636667	1942.757813	32.325512
69.163298	5991.636667	1941.783203	32.207119
69.163298	5991.636667	1940.807617	147.325378
69.163298	5991.636667	1939.833008	-41.519413
69.163298	5991.636667	1938.857422	-48.935719
69.163298	5991.636667	1937.881836	78.422562
69.163298	5991.636667	1936.906250	44.062054
69.163298	5991.636667	1935.930664	14.621749
69.163298	5991.636667	1934.955078	-171.523499
69.163298	5991.636667	1933.978516	75.765274
69.163298	5991.636667	1933.001953	-68.695999
69.163298	5991.636667	1932.025391	48.777683
69.163298	5991.636667	1931.048828	48.756611
69.163298	5991.636667	1930.072266	-80.928162
69.163298	5991.636667	1929.094727	48.719933
69.163298	5991.636667	1928.118164	38.922256
69.163298	5991.636667	1927.140625	144.049377
69.163298	5991.636667	1926.163086	26.668388
69.163298	5991.636667	1925.184570	-5.123485
69.163298	5991.636667	1924.207031	11.972385
69.163298	5991.636667	1923.228516	114.573746
69.163298	5991.636667	1922.250000	90.103241
69.163298	5991.636667	1921.271484	-71.139099
69.163298	5991.636667	1920.292969	-17.432785
69.163298	5991.636667	1919.314453	-22.348824
69.163298	5991.636667	1918.334961	146.044174
69.163298	5991.636667	1917.355469	87.390152
69.163298	5991.636667	1916.375977	-34.693340
69.163298	5991.636667	1915.396484	50.633923
69.163298	5991.636667	1914.416992	-5.555394
69.163298	5991.636667	1913.436523	108.979721
69.163298	5991.636667	1912.457031	-8.178011
69.163298	5991.636667	1911.476563	13.654710
69.163298	5991.636667	1910.496094	115.902809
69.163298	5991.636667	1909.515625	30.454966
69.163298	5991.636667	1908.534180	1.064457
69.163298	5991.636667	1907.552734	52.062050
69.163298	5991.636667	1906.572266	39.703876
69.163298	5991.636667	1905.590820	110.130249
69.163298	5991.636667	1904.608398	143.994080
69.163298	5991.636667	1903.626953	22.041517
69.163298	5991.636667	1902.644531	33.975857
69.163298	5991.636667	1901.663086	79.959366
69.163298	5991.636667	1900.680664	-27.362310
69.163298	5991.636667	1899.698242	101.284706
69.163298	5991.636667	1898.714844	-23.057713
69.163298	5991.636667	1897.732422	-20.929741
69.163298	5991.636667	1896.749023	-89.321541
69.163298	5991.636667	1895.765625	51.326530
69.163298	5991.636667	1894.782227	123.861412
69.163298	5991.636667	1893.798828	94.305344
69.163298	5991.636667	1892.814453	-32.428692
69.163298	5991.636667	1891.831055	42.457760
69.163298	5991.636667	1890.846680	-42.973320
69.163298	5991.636667	1889.862305	97.401848
69.163298	5991.636667	1888.877930	109.053345
69.163298	5991.636667	1887.892578	-44.352974
69.163298	5991.636667	1886.908203	-18.157076
69.163298	5991.636667	1885.922852	-11.400116
69.163298	5991.636667	1884.937500	-58.027020
69.163298	5991.636667	1883.952148	50.553436
69.163298	5991.636667	1882.965820	28.139416
69.163298	5991.636667	1881.980469	12.989806
69.163298	5991.636667	1880.994141	36.604832
69.163298	5991.636667	1880.007813	101.388832
69.163298	5991.636667	1879.021484	30.448215
69.163298	5991.636667	1878.035156	121.817131
69.163298	5991.636667	1877.047852	7.262928
69.163298	5991.636667	1876.061523	-53.991360
69.163298	5991.636667	1875.074219	107.492813
69.163298	5991.636667	1874.086914	43.781067
69.163298	5991.636667	1873.098633	96.238884
69.163298	5991.636667	1872.111328	34.934177
69.163298	5991.636667	1871.123047	75.238983
69.163298	5991.636667	1870.135742	125.187134
69.163298	5991.636667	1869.147461	138.820038
69.163298	5991.636667	1868.158203	55.710922
69.163298	5991.636667	1867.169922	107.991905
69.163298	5991.636667	1866.180664	143.313675
69.163298	5991.636667	1865.192383	110.942223
69.163298	5991.636667	1864.203125	-44.657864
69.163298	5991.636667	1863.213867	-74.606216
69.163298	5991.636667	1862.223633	-17.618546
69.163298	5991.636667	1861.234375	-42.768551
69.163298	5991.636667	1860.244141	-2.745557
69.163298	5991.636667	1859.253906	-13.446453
69.163298	5991.636667	1858.263672	36.172329
69.163298	5991.636667	1857.273438	117.122131
69.163298	5991.636667	1856.282227	55.686203
69.163298	5991.636667	1855.291992	-164.934021
69.163298	5991.636667	1854.300781	-11.702938
69.163298	5991.636667	1853.309570	47.420185
69.163298	5991.636667	1852.317383	75.162399
69.163298	5991.636667	1851.326172	-94.755676
69.163298	5991.636667	1850.333984	-50.164268
69.163298	5991.636667	1849.342773	16.079193
69.163298	5991.636667	1848.350586	7.604373
69.163298	5991.636667	1847.357422	-32.196041
69.163298	5991.636667	1846.365234	74.887527
69.163298	5991.636667	1845.372070	3.758580
69.163298	5991.636667	1844.379883	40.958309
69.163298	5991.636667	1843.386719	-34.983860
69.163298	5991.636667	1842.393555	88.793335
69.163298	5991.636667	1841.399414	32.080769
69.163298	5991.636667	1840.406250	40.316727
69.163298	5991.636667	1839.412109	29.293228
69.163298	5991.636667	1838.417969	27.875019
69.163298	5991.636667	1837.423828	139.422638
69.163298	5991.636667	1836.429688	-145.646271
69.163298	5991.636667	1835.434570	25.931776
69.163298	5991.636667	1834.440430	132.565933
69.163298	5991.636667	1833.445313	-15.472940
69.163298	5991.636667	1832.450195	40.663895
69.163298	5991.636667	1831.454102	115.970802
69.163298	5991.636667	1830.458984	30.392708
69.163298	5991.636667	1829.462891	16.836603
69.163298	5991.636667	1828.466797	120.860260
69.163298	5991.636667	1827.470703	124.059578
69.163298	5991.636667	1826.474609	4.902030
69.163298	5991.636667	1825.478516	20.087519
69.163298	5991.636667	1824.481445	159.944809
69.163298	5991.636667	1823.484375	-11.939957
69.163298	5991.636667	1822.487305	0.800618
69.163298	5991.636667	1821.490234	102.197975
69.163298	5991.636667	1820.493164	47.795269
69.163298	5991.636667	1819.495117	-11.394210
69.163298	5991.636667	1818.498047	-3.503384
69.163298	5991.636667	1817.500000	69.029251
69.163298	5991.636667	1816.500977	-47.633530
69.163298	5991.636667	1815.502930	32.038486
69.163298	5991.636667	1814.504883	-48.691433
69.163298	5991.636667	1813.505859	40.497055
69.163298	5991.636667	1812.506836	17.191200
69.163298	5991.636667	1811.507813	-94.623459
69.163298	5991.636667	1810.508789	-67.691353
69.163298	5991.636667	1809.508789	133.772659
69.163298	5991.636667	1808.508789	139.110748
69.163298	5991.636667	1807.508789	-77.859512
69.163298	5991.636667	1806.508789	8.750739
69.163298	5991.636667	1805.508789	80.982208
69.163298	5991.636667	1804.508789	17.007938
69.163298	5991.636667	1803.507813	129.792221
69.163298	5991.636667	1802.506836	15.663113
69.163298	5991.636667	1801.505859	-115.144836
69.163298	5991.636667	1800.504883	64.412987
69.163298	5991.636667	1799.502930	103.077705
69.163298	5991.636667	1798.501953	-1.450261
69.163298	5991.636667	1797.500000	77.753517
69.163298	5991.636667	1796.498047	97.286171
69.163298	5991.636667	1795.496094	59.566818
69.163298	5991.636667	1794.493164	36.157333
69.163298	5991.636667	1793.491211	43.743549
69.163298	5991.636667	1792.488281	156.190750
69.163298	5991.636667	1791.485352	66.028206
69.163298	5991.636667	1790.482422	-19.342062
69.163298	5991.636667	1789.478516	-23.697071
69.163298	5991.636667	1788.475586	93.412239
69.163298	5991.636667	1787.471680	134.267578
69.163298	5991.636667	1786.467773	-15.362485
69.163298	5991.636667	1785.463867	-12.600850
69.163298	5991.636667	1784.459961	61.550686
69.163298	5991.636667	1783.455078	102.352654
69.163298	5991.636667	1782.450195	-49.565041
69.163298	5991.636667	1781.445313	48.315319
69.163298	5991.636667	1780.440430	-53.606216
69.163298	5991.636667	1779.435547	63.247643
69.163298	5991.636667	1778.429688	-52.915325
69.163298	5991.636667	1777.424805	123.302246
69.163298	5991.636667	1776.418945	23.795254
69.163298	5991.636667	1775.413086	76.374748
69.163298	5991.636667	1774.406250	155.054642
69.163298	5991.636667	1773.400391	-153.409775
69.163298	5991.636667	1772.393555	143.726959
69.163298	5991.636667	1771.386719	32.413574
69.163298	5991.636667	1770.379883	92.035469
69.163298	5991.636667	1769.373047	11.616191
69.163298	5991.636667	1768.365234	177.978699
69.163298	5991.636667	1767.358398	69.098549
69.163298	5991.636667	1766.350586	119.161537
69.163298	5991.636667	1765.342773	17.437241
69.163298	5991.636667	1764.334961	-41.576675
69.163298	5991.636667	1763.326172	1.353372
69.163298	5991.636667	1762.318359	-180.880081
69.163298	5991.636667	1761.309570	-40.796814
69.163298	5991.636667	1760.300781	75.539734
69.163298	5991.636667	1759.291016	-14.244291
69.163298	5991.636667	1758.282227	-16.372080
69.163298	5991.636667	1757.272461	90.410011
69.163298	5991.636667	1756.262695	78.784637
69.163298	5991.636667	1755.252930	29.292402
69.163298	5991.636667	1754.243164	114.699028
69.163298	5991.636667	1753.233398	77.042679
69.163298	5991.636667	1752.222656	-31.569073
69.163298	5991.636667	1751.211914	-5.335918
69.163298	5991.636667	1750.201172	70.540558
69.163298	5991.636667	1749.190430	-45.107529
69.163298	5991.636667	1748.179688	14.197430
69.163298	5991.636667	1747.167969	42.752438
69.163298	5991.636667	1746.156250	-1.951285
69.163298	5991.636667	1745.144531	57.301666
69.163298	5991.636667	1744.132813	168.491333
69.163298	5991.636667	1743.121094	24.604115
69.163298	5991.636667	1742.108398	79.086891
69.163298	5991.636667	1741.095703	6.079816
69.163298	5991.636667	1740.083008	-76.341377
69.163298	5991.636667	1739.070313	48.913204
69.163298	5991.636667	1738.057617	82.110710
69.163298	5991.636667	1737.043945	39.811790
69.163298	5991.636667	1736.030273	-89.727707
69.163298	5991.636667	1735.016602	-122.549721
69.163298	5991.636667	1734.002930	-42.206947
69.163298	5991.636667	1732.989258	47.531124
69.163298	5991.636667	1731.974609	-15.939416
69.163298	5991.636667	1730.959961	-77.030693
69.163298	5991.636667	1729.945313	69.188484
69.163298	5991.636667	1728.930664	-112.008911
69.163298	5991.636667	1727.916016	-189.533966
69.163298	5991.636667	1726.900391	-88.113670
69.163298	5991.636667	1725.885742	22.684536
69.163298	5991.636667	1724.870117	133.436462
69.163298	5991.636667	1723.853516	-92.317345
69.163298	5991.636667	1722.837891	-141.552063
69.163298	5991.636667	1721.822266	63.242138
69.163298	5991.636667	1720.805664	75.130280
69.163298	5991.636667	1719.789063	-72.858864
69.163298	5991.636667	1718.772461	-72.704781
69.163298	5991.636667	1717.754883	44.952961
69.163298	5991.636667	1716.738281	-20.708998
69.163298	5991.636667	1715.720703	42.858795
69.163298	5991.636667	1714.703125	10.100132
69.163298	5991.636667	1713.685547	83.029175
69.163298	5991.636667	1712.667969	24.446230
69.163298	5991.636667	1711.649414	-62.287804
69.163298	5991.636667	1710.630859	-87.967422
69.163298	5991.636667	1709.612305	52.966942
69.163298	5991.636667	1708.593750	-36.072113
69.163298	5991.636667	1707.575195	-54.708126
69.163298	5991.636667	1706.555664	6.395876
69.163298	5991.636667	1705.536133	137.817459
69.163298	5991.636667	1704.516602	-127.000031
69.163298	5991.636667	1703.497070	105.181190
69.163298	5991.636667	1702.477539	81.840599
69.163298	5991.636667	1701.457031	-82.073494
69.163298	5991.636667	1700.437500	-37.438698
69.163298	5991.636667	1699.416992	86.804695
69.163298	5991.636667	1698.395508	28.350019
69.163298	5991.636667	1697.375000	-137.773102
69.163298	5991.636667	1696.354492	16.843594
69.163298	5991.636667	1695.333008	-41.567425
69.163298	5991.636667	1694.311523	-36.782135
69.163298	5991.636667	1693.290039	131.755112
69.163298	5991.636667	1692.267578	-74.002998
69.163298	5991.636667	1691.246094	10.289537
69.163298	5991.636667	1690.223633	15.052780
69.163298	5991.636667	1689.201172	85.264648
69.163298	5991.636667	1688.178711	-29.184265
69.163298	5991.636667	1687.155273	99.419472
69.163298	5991.636667	1686.132813	-31.344255
69.163298	5991.636667	1685.109375	150.929962
69.163298	5991.636667	1684.085938	59.900684
69.163298	5991.636667	1683.062500	71.638695
69.163298	5991.636667	1682.039063	-14.674408
69.163298	5991.636667	1681.014648	116.099121
69.163298	5991.636667	1679.990234	97.476250
69.163298	5991.636667	1678.965820	99.855873
69.163298	5991.636667	1677.941406	137.222321
69.163298	5991.636667	1676.916992	34.642448
69.163298	5991.636667	1675.891602	127.961517
69.163298	5991.636667	1674.866211	183.942093
69.163298	5991.636667	1673.840820	97.719406
69.163298	5991.636667	1672.815430	130.376892
69.163298	5991.636667	1671.790039	139.720673
69.163298	5991.636667	1670.763672	72.182899
69.163298	5991.636667	1669.737305	6.997844
69.163298	5991.636667	1668.710938	81.550705
69.163298	5991.636667	1667.684570	72.259888
69.163298	5991.636667	1666.658203	51.331909
69.163298	5991.636667	1665.630859	97.896179
69.163298	5991.636667	1664.603516	37.408154
69.163298	5991.636667	1663.576172	149.089935
69.163298	5991.636667	1662.548828	53.722755
69.163298	5991.636667	1661.520508	67.681618
69.163298	5991.636667	1660.493164	158.360382
69.163298	5991.636667	1659.464844	151.367538
69.163298	5991.636667	1658.436523	93.245453
69.163298	5991.636667	1657.408203	155.972092
69.163298	5991.636667	1656.378906	9.581681
69.163298	5991.636667	1655.350586	76.940224
69.163298	5991.636667	1654.321289	121.043907
69.163298	5991.636667	1653.291992	30.460976
69.163298	5991.636667	1652.261719	42.047894
69.163298	5991.636667	1651.232422	74.518829
69.163298	5991.636667	1650.202148	134.817230
69.163298	5991.636667	1649.171875	178.848740
69.163298	5991.636667	1648.141602	246.056168
69.163298	5991.636667	1647.111328	102.192429
69.163298	5991.636667	1646.080078	234.301941
69.163298	5991.636667	1645.049805	153.082291
69.163298	5991.636667	1644.018555	132.150253
69.163298	5991.636667	1642.987305	196.964218
69.163298	5991.636667	1641.955078	-27.864975
69.163298	5991.636667	1640.923828	25.366137
69.163298	5991.636667	1639.891602	328.697144
69.163298	5991.636667	1638.859375	101.647034
69.163298	5991.636667	1637.827148	314.549683
69.163298	5991.636667	1636.794922	133.875809
69.163298	5991.636667	1635.761719	177.742554
69.163298	5991.636667	1634.729492	258.611694
69.163298	5991.636667	1633.696289	135.871979
69.163298	5991.636667	1632.662109	103.373421
69.163298	5991.636667	1631.628906	269.754578
69.163298	5991.636667	1630.594727	227.987167
69.163298	5991.636667	1629.561523	105.332787
69.163298	5991.636667	1628.527344	243.868118
69.163298	5991.636667	1627.493164	199.807449
69.163298	5991.636667	1626.458008	377.532104
69.163298	5991.636667	1625.423828	333.454071
69.163298	5991.636667	1624.388672	157.757477
69.163298	5991.636667	1623.353516	363.079956
69.163298	5991.636667	1622.318359	309.780792
69.163298	5991.636667	1621.282227	194.180817
69.163298	5991.636667	1620.247070	286.297516
69.163298	5991.636667	1619.210938	258.404785
69.163298	5991.636667	1618.174805	306.635895
69.163298	5991.636667	1617.137695	281.044037
69.163298	5991.636667	1616.101563	283.129120
69.163298	5991.636667	1615.064453	285.205658
69.163298	5991.636667	1614.027344	227.352127
69.163298	5991.636667	1612.990234	303.167664
69.163298	5991.636667	1611.953125	296.009674
69.163298	5991.636667	1610.916016	275.028473
69.163298	5991.636667	1609.877930	392.226471
69.163298	5991.636667	1608.839844	387.339996
69.163298	5991.636667	1607.801758	410.075043
69.163298	5991.636667	1606.763672	379.858826
69.163298	5991.636667	1605.724609	234.587326
69.163298	5991.636667	1604.685547	478.191650
69.163298	5991.636667	1603.646484	335.247467
69.163298	5991.636667	1602.607422	316.545288
69.163298	5991.636667	1601.568359	449.605591
69.163298	5991.636667	1600.528320	359.608002
69.163298	5991.636667	1599.489258	430.537903
69.163298	5991.636667	1598.449219	283.117859
69.163298	5991.636667	1597.408203	340.232635
69.163298	5991.636667	1596.368164	351.380310
69.163298	5991.636667	1595.327148	511.800537
69.163298	5991.636667	1594.287109	552.751709
69.163298	5991.636667	1593.246094	577.607178
69.163298	5991.636667	1592.204102	549.651184
69.163298	5991.636667	1591.163086	634.154297
69.163298	5991.636667	1590.121094	500.642731
69.163298	5991.636667	1589.079102	543.816223
69.163298	5991.636667	1588.037109	586.967834
69.163298	5991.636667	1586.995117	524.614075
69.163298	5991.636667	1585.953125	496.668976
69.163298	5991.636667	1584.910156	464.141785
69.163298	5991.636667	1583.867188	525.584290
69.163298	5991.636667	1582.824219	502.218689
69.163298	5991.636667	1581.781250	451.366211
69.163298	5991.636667	1580.737305	505.884735
69.163298	5991.636667	1579.693359	567.245972
69.163298	5991.636667	1578.649414	488.916748
69.163298	5991.636667	1577.605469	467.839447
69.163298	5991.636667	1576.561523	467.363159
69.163298	5991.636667	1575.516602	402.808624
69.163298	5991.636667	1574.472656	265.070557
69.163298	5991.636667	1573.427734	385.840149
69.163298	5991.636667	1572.381836	479.111572
69.163298	5991.636667	1571.336914	300.264435
69.163298	5991.636667	1570.291016	274.636383
69.163298	5991.636667	1569.246094	310.725281
69.163298	5991.636667	1568.200195	344.505463
69.163298	5991.636667	1567.153320	243.473007
69.163298	5991.636667	1566.107422	281.810852
69.163298	5991.636667	1565.060547	352.096344
69.163298	5991.636667	1564.013672	410.933167
69.163298	5991.636667	1562.966797	360.166565
69.163298	5991.636667	1561.919922	400.709137
69.163298	5991.636667	1560.872070	354.514343
69.163298	5991.636667	1559.825195	367.654327
69.163298	5991.636667	1558.777344	332.878784
69.163298	5991.636667	1557.729492	462.311920
69.163298	5991.636667	1556.680664	372.794891
69.163298	5991.636667	1555.632813	153.370544
69.163298	5991.636667	1554.583984	159.666016
69.163298	5991.636667	1553.535156	186.462753
69.163298	5991.636667	1552.486328	384.117706
69.163298	5991.636667	1551.436523	369.844116
69.163298	5991.636667	1550.387695	173.381622
69.163298	5991.636667	1549.337891	291.209412
69.163298	5991.636667	1548.288086	301.989777
69.163298	5991.636667	1547.238281	264.963013
69.163298	5991.636667	1546.187500	259.801331
69.163298	5991.636667	1545.136719	215.958557
69.163298	5991.636667	1544.086914	242.648331
69.163298	5991.636667	1543.035156	326.172791
69.163298	5991.636667	1541.984375	398.294342
69.163298	5991.636667	1540.933594	327.159302
69.163298	5991.636667	1539.881836	353.780182
69.163298	5991.636667	1538.830078	203.131393
69.163298	5991.636667	1537.778320	325.183167
69.163298	5991.636667	1536.725586	524.412415
69.163298	5991.636667	1535.673828	346.552002
69.163298	5991.636667	1534.621094	304.995605
69.163298	5991.636667	1533.568359	206.695190
69.163298	5991.636667	1532.515625	342.218658
69.163298	5991.636667	1531.461914	250.745010
69.163298	5991.636667	1530.409180	186.534073
69.163298	5991.636667	1529.355469	308.354462
69.163298	5991.636667	1528.301758	185.177216
69.163298	5991.636667	1527.247070	286.529938
69.163298	5991.636667	1526.193359	290.356049
69.163298	5991.636667	1525.138672	108.306541
69.163298	5991.636667	1524.083984	291.186371
69.163298	5991.636667	1523.029297	199.832016
69.163298	5991.636667	1521.974609	183.265060
69.163298	5991.636667	1520.918945	139.519485
69.163298	5991.636667	1519.863281	165.984772
69.163298	5991.636667	1518.807617	88.292839
69.163298	5991.636667	1517.751953	135.122452
69.163298	5991.636667	1516.696289	46.145092
69.163298	5991.636667	1515.639648	156.308319
69.163298	5991.636667	1514.583008	164.625641
69.163298	5991.636667	1513.526367	48.541477
69.163298	5991.636667	1512.469727	-33.580811
69.163298	5991.636667	1511.412109	71.972946
69.163298	5991.636667	1510.355469	73.507072
69.163298	5991.636667	1509.297852	178.992310
69.163298	5991.636667	1508.240234	124.008095
69.163298	5991.636667	1507.181641	100.666077
69.163298	5991.636667	1506.124023	-35.595634
69.163298	5991.636667	1505.065430	35.940781
69.163298	5991.636667	1504.006836	-14.469934
69.163298	5991.636667	1502.948242	113.460396
69.163298	5991.636667	1501.888672	130.750641
69.163298	5991.636667	1500.830078	32.960983
69.163298	5991.636667	1499.770508	43.487965
69.163298	5991.636667	1498.710938	-61.019623
69.163298	5991.636667	1497.650391	26.185120
69.163298	5991.636667	1496.590820	-204.537323
69.163298	5991.636667	1495.530273	72.004517
69.163298	5991.636667	1494.469727	64.471642
69.163298	5991.636667	1493.409180	147.069214
69.163298	5991.636667	1492.348633	218.369141
69.163298	5991.636667	1491.287109	111.700813
69.163298	5991.636667	1490.225586	25.340981
69.163298	5991.636667	1489.164063	218.192566
69.163298	5991.636667	1488.102539	-50.486496
69.163298	5991.636667	1487.041016	83.787277
69.163298	5991.636667	1485.978516	33.495667
69.163298	5991.636667	1484.916016	-39.219845
69.163298	5991.636667	1483.853516	13.944553
69.163298	5991.636667	1482.791016	71.643761
69.163298	5991.636667	1481.727539	104.589043
69.163298	5991.636667	1480.664063	-67.011696
69.163298	5991.636667	1479.600586	73.805984
69.163298	5991.636667	1478.537109	-1.079373
69.163298	5991.636667	1477.473633	36.329407
69.163298	5991.636667	1476.409180	136.645477
69.163298	5991.636667	1475.344727	7.947795
69.163298	5991.636667	1474.280273	-87.063805
69.163298	5991.636667	1473.215820	40.107365
69.163298	5991.636667	1472.151367	21.509270
69.163298	5991.636667	1471.085938	117.241402
69.163298	5991.636667	1470.020508	-98.797447
69.163298	5991.636667	1468.955078	-52.433338
69.163298	5991.636667	1467.888672	-66.378777
69.163298	5991.636667	1466.823242	-100.687889
69.163298	5991.636667	1465.756836	53.104332
69.163298	5991.636667	1464.690430	-93.227364
69.163298	5991.636667	1463.624023	40.514908
69.163298	5991.636667	1462.556641	28.665033
69.163298	5991.636667	1461.490234	14.905188
69.163298	5991.636667	1460.422852	13.971903
69.163298	5991.636667	1459.355469	2.238550
69.163298	5991.636667	1458.287109	-138.946304
69.163298	5991.636667	1457.219727	-34.828747
69.163298	5991.636667	1456.151367	29.219393
69.163298	5991.636667	1455.083008	-56.343079
69.163298	5991.636667	1454.014648	150.523514
69.163298	5991.636667	1452.945313	20.567656
69.163298	5991.636667	1451.876953	44.610611
69.163298	5991.636667	1450.807617	-0.471848
69.163298	5991.636667	1449.738281	14.736583
69.163298	5991.636667	1448.668945	87.185738
69.163298	5991.636667	1447.598633	6.295510
69.163298	5991.636667	1446.528320	-7.447485
69.163298	5991.636667	1445.458008	22.238611
69.163298	5991.636667	1444.387695	8.152266
69.163298	5991.636667	1443.317383	-65.503761
69.163298	5991.636667	1442.246094	124.273956
69.163298	5991.636667	1441.174805	114.153152
69.163298	5991.636667	1440.103516	81.284348
69.163298	5991.636667	1439.032227	85.683281
69.163298	5991.636667	1437.960938	-26.642586
69.163298	5991.636667	1436.888672	91.155418
69.163298	5991.636667	1435.816406	45.141964
69.163298	5991.636667	1434.744141	72.936325
69.163298	5991.636667	1433.670898	141.449692
69.163298	5991.636667	1432.598633	-69.373833
69.163298	5991.636667	1431.525391	48.940865
69.163298	5991.636667	1430.452148	-68.169510
69.163298	5991.636667	1429.378906	41.490005
69.163298	5991.636667	1428.304688	161.049377
69.163298	5991.636667	1427.231445	98.336441
69.163298	5991.636667	1426.157227	-20.612600
69.163298	5991.636667	1425.083008	-58.519268
69.163298	5991.636667	1424.007813	-95.233536
69.163298	5991.636667	1422.933594	-100.537979
69.163298	5991.636667	1421.858398	-84.064308
69.163298	5991.636667	1420.783203	-144.213760
69.163298	5991.636667	1419.708008	46.669544
69.163298	5991.636667	1418.631836	-103.733070
69.163298	5991.636667	1417.555664	106.929085
69.163298	5991.636667	1416.479492	2.041386
69.163298	5991.636667	1415.403320	2.847610
69.163298	5991.636667	1414.327148	-124.102318
69.163298	5991.636667	1413.250000	48.737717
69.163298	5991.636667	1412.173828	-14.860355
69.163298	5991.636667	1411.096680	14.124272
69.163298	5991.636667	1410.018555	15.286964
69.163298	5991.636667	1408.941406	-94.391891
69.163298	5991.636667	1407.863281	-31.634123
69.163298	5991.636667	1406.785156	167.512924
69.163298	5991.636667	1405.707031	138.093323
69.163298	5991.636667	1404.628906	115.813728
69.163298	5991.636667	1403.549805	-17.710825
69.163298	5991.636667	1402.470703	66.122177
69.163298	5991.636667	1401.391602	90.935905
69.163298	5991.636667	1400.312500	37.218754
69.163298	5991.636667	1399.233398	-21.153181
69.163298	5991.636667	1398.153320	92.154907
69.163298	5991.636667	1397.073242	-20.895630
69.163298	5991.636667	1395.993164	73.771004
69.163298	5991.636667	1394.913086	94.385406
69.163298	5991.636667	1393.832031	72.315117
69.163298	5991.636667	1392.750977	-45.611843
69.163298	5991.636667	1391.669922	37.717430
69.163298	5991.636667	1390.588867	80.428047
69.163298	5991.636667	1389.506836	24.966717
69.163298	5991.636667	1388.425781	42.372509
69.163298	5991.636667	1387.343750	0.805816
69.163298	5991.636667	1386.261719	37.646820
69.163298	5991.636667	1385.178711	26.779284
69.163298	5991.636667	1384.096680	50.866203
69.163298	5991.636667	1383.013672	-5.943164
69.163298	5991.636667	1381.930664	7.983264
69.163298	5991.636667	1380.846680	-74.647469
69.163298	5991.636667	1379.763672	12.457923
69.163298	5991.636667	1378.679688	8.453169
69.163298	5991.636667	1377.595703	123.568451
69.163298	5991.636667	1376.511719	158.643234
69.163298	5991.636667	1375.427734	56.641968
69.163298	5991.636667	1374.342773	-30.552444
69.163298	5991.636667	1373.257813	49.726646
69.163298	5991.636667	1372.172852	-35.652493
69.163298	5991.636667	1371.087891	171.019226
69.163298	5991.636667	1370.001953	3.288791
69.163298	5991.636667	1368.916992	-64.515602
69.163298	5991.636667	1367.831055	105.385506
69.163298	5991.636667	1366.744141	-19.313416
69.163298	5991.636667	1365.658203	-3.459070
69.163298	5991.636667	1364.571289	43.300838
69.163298	5991.636667	1363.484375	-3.260718
69.163298	5991.636667	1362.397461	67.055084
69.163298	5991.636667	1361.310547	188.076950
69.163298	5991.636667	1360.222656	174.904251
69.163298	5991.636667	1359.135742	98.403465
69.163298	5991.636667	1358.047852	210.702454
69.163298	5991.636667	1356.958984	264.633881
69.163298	5991.636667	1355.871094	-10.293780
69.163298	5991.636667	1354.782227	168.147522
69.163298	5991.636667	1353.693359	228.535782
69.163298	5991.636667	1352.604492	83.043938
69.163298	5991.636667	1351.515625	161.032440
69.163298	5991.636667	1350.425781	237.447922
69.163298	5991.636667	1349.335938	163.115906
69.163298	5991.636667	1348.246094	-22.883451
69.163298	5991.636667	1347.156250	196.192108
69.163298	5991.636667	1346.066406	139.083878
69.163298	5991.636667	1344.975586	118.334274
69.163298	5991.636667	1343.884766	147.866882
69.163298	5991.636667	1342.793945	121.006470
69.163298	5991.636667	1341.702148	-184.832428
69.163298	5991.636667	1340.611328	120.511124
69.163298	5991.636667	1339.519531	0.067760
69.163298	5991.636667	1338.427734	101.568123
69.163298	5991.636667	1337.334961	133.286652
69.163298	5991.636667	1336.243164	20.005249
69.163298	5991.636667	1335.150391	95.551064
69.163298	5991.636667	1334.057617	-27.895147
69.163298	5991.636667	1332.964844	115.841492
69.163298	5991.636667	1331.871094	47.653175
69.163298	5991.636667	1330.778320	21.411951
69.163298	5991.636667	1329.684570	-15.568533
69.163298	5991.636667	1328.590820	21.318666
69.163298	5991.636667	1327.496094	63.394028
69.163298	5991.636667	1326.402344	106.411789
69.163298	5991.636667	1325.307617	71.752625
69.163298	5991.636667	1324.212891	108.765091
69.163298	5991.636667	1323.117188	64.695030
69.163298	5991.636667	1322.022461	110.576828
69.163298	5991.636667	1320.926758	144.717041
69.163298	5991.636667	1319.831055	52.270332
69.163298	5991.636667	1318.735352	-40.522533
69.163298	5991.636667	1317.638672	95.328972
69.163298	5991.636667	1316.542969	7.110056
69.163298	5991.636667	1315.446289	51.386215
69.163298	5991.636667	1314.349609	137.884293
69.163298	5991.636667	1313.251953	13.338031
69.163298	5991.636667	1312.155273	175.900665
69.163298	5991.636667	1311.057617	-41.714222
69.163298	5991.636667	1309.959961	-32.724205
69.163298	5991.636667	1308.862305	26.199362
69.163298	5991.636667	1307.763672	118.691673
69.163298	5991.636667	1306.665039	34.108360
69.163298	5991.636667	1305.566406	-24.657494
69.163298	5991.636667	1304.467773	112.952736
69.163298	5991.636667	1303.369141	36.242298
69.163298	5991.636667	1302.269531	-51.258511
69.163298	5991.636667	1301.169922	157.771652
69.163298	5991.636667	1300.070313	3.181451
69.163298	5991.636667	1298.970703	-4.328418
69.163298	5991.636667	1297.870117	-74.345276
69.163298	5991.636667	1296.769531	37.143082
69.163298	5991.636667	1295.668945	48.128853
69.163298	5991.636667	1294.568359	-3.458264
69.163298	5991.636667	1293.466797	106.639206
69.163298	5991.636667	1292.366211	184.585083
69.163298	5991.636667	1291.264648	67.776642
69.163298	5991.636667	1290.162109	118.080635
69.163298	5991.636667	1289.060547	16.174950
69.163298	5991.636667	1287.958008	77.681061
69.163298	5991.636667	1286.855469	147.523605
69.163298	5991.636667	1285.752930	146.020447
69.163298	5991.636667	1284.650391	23.623743
69.163298	5991.636667	1283.546875	102.025185
69.163298	5991.636667	1282.444336	108.461037
69.163298	5991.636667	1281.339844	72.119698
69.163298	5991.636667	1280.236328	120.046165
69.163298	5991.636667	1279.132813	96.391129
69.163298	5991.636667	1278.028320	133.329254
69.163298	5991.636667	1276.923828	60.075542
69.163298	5991.636667	1275.819336	30.275494
69.163298	5991.636667	1274.713867	26.650215
69.163298	5991.636667	1273.608398	26.262299
69.163298	5991.636667	1272.503906	91.468224
69.163298	5991.636667	1271.397461	-89.668182
69.163298	5991.636667	1270.291992	-52.841644
69.163298	5991.636667	1269.185547	-15.201611
69.163298	5991.636667	1268.080078	2.690853
69.163298	5991.636667	1266.972656	-54.425415
69.163298	5991.636667	1265.866211	26.021748
69.163298	5991.636667	1264.759766	48.312126
69.163298	5991.636667	1263.652344	80.957031
69.163298	5991.636667	1262.544922	47.418774
69.163298	5991.636667	1261.436523	23.247263
69.163298	5991.636667	1260.329102	4.284028
69.163298	5991.636667	1259.220703	-113.344215
69.163298	5991.636667	1258.112305	54.973206
69.163298	5991.636667	1257.003906	-104.941467
69.163298	5991.636667	1255.895508	-105.288460
69.163298	5991.636667	1254.786133	-13.362990
69.163298	5991.636667	1253.676758	-133.267822
69.163298	5991.636667	1252.567383	-73.295975
69.163298	5991.636667	1251.458008	-42.774124
69.163298	5991.636667	1250.347656	-167.205444
69.163298	5991.636667	1249.237305	-13.983292
69.163298	5991.636667	1248.126953	54.396675
69.163298	5991.636667	1247.016602	-56.175926
69.163298	5991.636667	1245.905273	-23.913189
69.163298	5991.636667	1244.793945	35.852005
69.163298	5991.636667	1243.682617	121.751930
69.163298	5991.636667	1242.571289	93.383705
69.163298	5991.636667	1241.459961	48.339573
69.163298	5991.636667	1240.347656	15.263486
69.163298	5991.636667	1239.235352	-4.531544
69.163298	5991.636667	1238.123047	92.730804
69.163298	5991.636667	1237.009766	0.655942
69.163298	5991.636667	1235.897461	119.004578
69.163298	5991.636667	1234.784180	125.183907
69.163298	5991.636667	1233.670898	27.747093
69.163298	5991.636667	1232.556641	88.757133
69.163298	5991.636667	1231.443359	61.355949
69.163298	5991.636667	1230.329102	31.388351
69.163298	5991.636667	1229.214844	88.647675
69.163298	5991.636667	1228.099609	137.316605
69.163298	5991.636667	1226.985352	-5.689134
69.163298	5991.636667	1225.870117	37.261517
69.163298	5991.636667	1224.754883	30.447178
69.163298	5991.636667	1223.639648	69.930779
69.163298	5991.636667	1222.523438	26.347218
69.163298	5991.636667	1221.408203	6.854244
69.163298	5991.636667	1220.291992	-68.014580
69.163298	5991.636667	1219.174805	46.240730
69.163298	5991.636667	1218.058594	-4.809101
69.163298	5991.636667	1216.941406	106.820267
69.163298	5991.636667	1215.824219	55.933205
69.163298	5991.636667	1214.707031	112.840187
69.163298	5991.636667	1213.589844	-45.417358
69.163298	5991.636667	1212.471680	-25.902145
69.163298	5991.636667	1211.353516	14.442084
69.163298	5991.636667	1210.235352	-16.906717
69.163298	5991.636667	1209.117188	65.866806
69.163298	5991.636667	1207.998047	151.263474
69.163298	5991.636667	1206.878906	73.022087
69.163298	5991.636667	1205.759766	75.922356
69.163298	5991.636667	1204.640625	142.091171
69.163298	5991.636667	1203.520508	16.667570
69.163298	5991.636667	1202.401367	42.587593
69.163298	5991.636667	1201.281250	58.581093
69.163298	5991.636667	1200.160156	18.186125
69.163298	5991.636667	1199.040039	-74.547119
69.163298	5991.636667	1197.918945	4.415512
69.163298	5991.636667	1196.797852	25.663759
69.163298	5991.636667	1195.676758	-63.391811
69.163298	5991.636667	1194.555664	-86.711243
69.163298	5991.636667	1193.433594	-51.164143
69.163298	5991.636667	1192.311523	11.418760
69.163298	5991.636667	1191.189453	-7.876674
69.163298	5991.636667	1190.066406	-10.790138
69.163298	5991.636667	1188.944336	-73.633018
69.163298	5991.636667	1187.821289	-62.295235
69.163298	5991.636667	1186.698242	32.074055
69.163298	5991.636667	1185.574219	46.812359
69.163298	5991.636667	1184.451172	-25.853724
69.163298	5991.636667	1183.327148	22.130316
69.163298	5991.636667	1182.203125	-19.908163
69.163298	5991.636667	1181.078125	-1.343028
69.163298	5991.636667	1179.954102	-24.406286
69.163298	5991.636667	1178.829102	48.831676
69.163298	5991.636667	1177.704102	-63.771072
69.163298	5991.636667	1176.579102	60.367901
69.163298	5991.636667	1175.453125	4.465119
69.163298	5991.636667	1174.327148	-68.377731
69.163298	5991.636667	1173.201172	9.424706
69.163298	5991.636667	1172.075195	-66.884979
69.163298	5991.636667	1170.949219	-36.523182
69.163298	5991.636667	1169.822266	-8.597536
69.163298	5991.636667	1168.695313	18.652271
69.163298	5991.636667	1167.568359	-45.355881
69.163298	5991.636667	1166.440430	77.287994
69.163298	5991.636667	1165.313477	-43.411629
69.163298	5991.636667	1164.185547	-4.964746
69.163298	5991.636667	1163.057617	64.006561
69.163298	5991.636667	1161.928711	95.029510
69.163298	5991.636667	1160.800781	41.670990
69.163298	5991.636667	1159.671875	-15.826958
69.163298	5991.636667	1158.541992	-34.553741
69.163298	5991.636667	1157.413086	-3.662761
69.163298	5991.636667	1156.283203	-48.267372
69.163298	5991.636667	1155.154297	12.778783
69.163298	5991.636667	1154.023438	159.711075
69.163298	5991.636667	1152.893555	66.893570
69.163298	5991.636667	1151.763672	-62.503380
69.163298	5991.636667	1150.632813	112.964561
69.163298	5991.636667	1149.501953	36.124878
69.163298	5991.636667	1148.370117	36.279835
69.163298	5991.636667	1147.239258	2.712354
69.163298	5991.636667	1146.107422	83.602737
69.163298	5991.636667	1144.975586	54.451782
69.163298	5991.636667	1143.843750	-20.170784
69.163298	5991.636667	1142.710938	90.766365
69.163298	5991.636667	1141.578125	37.266907
69.163298	5991.636667	1140.445313	94.568077
69.163298	5991.636667	1139.312500	74.960304
69.163298	5991.636667	1138.178711	60.359722
69.163298	5991.636667	1137.045898	55.512939
69.163298	5991.636667	1135.912109	-31.316549
69.163298	5991.636667	1134.777344	-54.591194
69.163298	5991.636667	1133.643555	-31.053707
69.163298	5991.636667	1132.508789	-9.173923
69.163298	5991.636667	1131.374023	-113.110352
69.163298	5991.636667	1130.239258	4.257529
69.163298	5991.636667	1129.104492	20.681107
69.163298	5991.636667	1127.968750	26.171816
69.163298	5991.636667	1126.833008	-49.871273
69.163298	5991.636667	1125.697266	-40.633781
69.163298	5991.636667	1124.560547	6.404049
69.163298	5991.636667	1123.424805	50.465652
69.163298	5991.636667	1122.288086	-95.410324
69.163298	5991.636667	1121.151367	-90.949867
69.163298	5991.636667	1120.013672	2.500633
69.163298	5991.636667	1118.876953	11.173314
69.163298	5991.636667	1117.739258	79.896454
69.163298	5991.636667	1116.601563	35.197941
69.163298	5991.636667	1115.462891	-90.722687
69.163298	5991.636667	1114.324219	-4.691060
69.163298	5991.636667	1113.186523	-69.221817
69.163298	5991.636667	1112.046875	-138.244476
69.163298	5991.636667	1110.908203	-2.963940
69.163298	5991.636667	1109.769531	67.836449
69.163298	5991.636667	1108.629883	72.752266
69.163298	5991.636667	1107.490234	184.834793
69.163298	5991.636667	1106.349609	108.328545
69.163298	5991.636667	1105.209961	103.520164
69.163298	5991.636667	1104.069336	15.411489
69.163298	5991.636667	1102.928711	-83.292442
69.163298	5991.636667	1101.787109	71.482536
69.163298	5991.636667	1100.646484	70.481476
69.163298	5991.636667	1099.504883	125.723389
69.163298	5991.636667	1098.363281	49.920113
69.163298	5991.636667	1097.221680	183.275696
69.163298	5991.636667	1096.079102	141.035736
69.163298	5991.636667	1094.936523	218.893997
69.163298	5991.636667	1093.793945	139.368011
69.163298	5991.636667	1092.651367	-21.141411
69.163298	5991.636667	1091.507813	51.769566
69.163298	5991.636667	1090.364258	216.601807
69.163298	5991.636667	1089.220703	66.295708
69.163298	5991.636667	1088.077148	52.470348
69.163298	5991.636667	1086.933594	75.296097
69.163298	5991.636667	1085.789063	44.739315
69.163298	5991.636667	1084.644531	4.987377
69.163298	5991.636667	1083.499023	124.171707
69.163298	5991.636667	1082.354492	-5.464821
69.163298	5991.636667	1081.208984	-54.167103
69.163298	5991.636667	1080.063477	147.677002
69.163298	5991.636667	1078.917969	78.626534
69.163298	5991.636667	1077.771484	136.405258
69.163298	5991.636667	1076.625977	122.162224
69.163298	5991.636667	1075.479492	10.456815
69.163298	5991.636667	1074.332031	-72.284706
69.163298	5991.636667	1073.185547	-98.585205
69.163298	5991.636667	1072.038086	-45.381824
69.163298	5991.636667	1070.890625	61.482933
69.163298	5991.636667	1069.743164	-103.681885
69.163298	5991.636667	1068.594727	-0.535260
69.163298	5991.636667	1067.447266	-17.420425
69.163298	5991.636667	1066.298828	46.761677
69.163298	5991.636667	1065.149414	0.907037
69.163298	5991.636667	1064.000977	5.185571
69.163298	5991.636667	1062.851563	74.758881
69.163298	5991.636667	1061.702148	37.614986
69.163298	5991.636667	1060.552734	-82.367226
69.163298	5991.636667	1059.402344	9.902848
69.163298	5991.636667	1058.252930	34.936840
69.163298	5991.636667	1057.102539	-85.073288
69.163298	5991.636667	1055.951172	45.225010
69.163298	5991.636667	1054.800781	31.899494
69.163298	5991.636667	1053.649414	36.092850
69.163298	5991.636667	1052.498047	-0.621503
69.163298	5991.636667	1051.346680	-19.220615
69.163298	5991.636667	1050.194336	168.314880
69.163298	5991.636667	1049.042969	14.959423
69.163298	5991.636667	1047.890625	8.664854
69.163298	5991.636667	1046.738281	-3.029122
69.163298	5991.636667	1045.584961	-71.559151
69.163298	5991.636667	1044.431641	-77.494919
69.163298	5991.636667	1043.278320	-2.302721
69.163298	5991.636667	1042.125000	43.327499
69.163298	5991.636667	1040.971680	78.881096
69.163298	5991.636667	1039.817383	-65.366608
69.163298	5991.636667	1038.663086	-78.780739
69.163298	5991.636667	1037.508789	50.221714
69.163298	5991.636667	1036.353516	-18.697670
69.163298	5991.636667	1035.198242	-148.680893
69.163298	5991.636667	1034.042969	113.299896
69.163298	5991.636667	1032.887695	30.154875
69.163298	5991.636667	1031.732422	102.915794
69.163298	5991.636667	1030.576172	69.292610
69.163298	5991.636667	1029.419922	-7.011492
69.163298	5991.636667	1028.263672	65.242287
69.163298	5991.636667	1027.106445	95.932861
69.163298	5991.636667	1025.949219	-27.906013
69.163298	5991.636667	1024.792969	-73.489655
69.163298	5991.636667	1023.634766	-69.846344
69.163298	5991.636667	1022.477539	-6.811018
69.163298	5991.636667	1021.319336	106.608086
69.163298	5991.636667	1020.161133	74.843117
69.163298	5991.636667	1019.002930	12.823304
69.163298	5991.636667	1017.843750	-69.948814
69.163298	5991.636667	1016.684570	-57.575298
69.163298	5991.636667	1015.525391	-94.978943
69.163298	5991.636667	1014.366211	151.859802
69.163298	5991.636667	1013.207031	-21.477938
69.163298	5991.636667	1012.046875	-8.040393
69.163298	5991.636667	1010.886719	-43.388618
69.163298	5991.636667	1009.726563	107.003799
69.163298	5991.636667	1008.565430	-106.372749
69.163298	5991.636667	1007.404297	3.373788
69.163298	5991.636667	1006.243164	-45.207230
69.163298	5991.636667	1005.082031	149.462875
69.163298	5991.636667	1003.920898	48.965191
69.163298	5991.636667	1002.758789	15.396622
69.163298	5991.636667	1001.596680	40.349854
69.163298	5991.636667	1000.433594	-56.380451
69.163298	5991.636667	999.271484	89.053589
69.163298	5991.636667	998.108398	-40.610821
69.163298	5991.636667	996.945313	54.380135
69.163298	5991.636667	995.782227	93.369774
69.163298	5991.636667	994.618164	-32.512718
69.163298	5991.636667	993.454102	52.169537
69.163298	5991.636667	992.290039	46.974716
69.163298	5991.636667	991.125977	56.532772
69.163298	5991.636667	989.960938	23.481218
69.163298	5991.636667	988.796875	142.916824
69.163298	5991.636667	987.630859	99.072342
69.163298	5991.636667	986.465820	65.783524
69.163298	5991.636667	985.300781	-25.331635
69.163298	5991.636667	984.134766	-43.912907
69.163298	5991.636667	982.968750	47.604950
69.163298	5991.636667	981.801758	-29.657082
69.163298	5991.636667	980.635742	171.077332
69.163298	5991.636667	979.468750	-56.922058
69.163298	5991.636667	978.301758	174.048126
69.163298	5991.636667	977.133789	38.921913
69.163298	5991.636667	975.966797	74.989723
69.163298	5991.636667	974.798828	50.883675
69.163298	5991.636667	973.630859	99.339363
69.163298	5991.636667	972.461914	118.860664
69.163298	5991.636667	971.293945	-17.585306
69.163298	5991.636667	970.125000	-118.539192
69.163298	5991.636667	968.956055	46.506031
69.163298	5991.636667	967.786133	21.340918
69.163298	5991.636667	966.617188	34.923229
69.163298	5991.636667	965.447266	-24.896486
69.163298	5991.636667	964.276367	168.757874
69.163298	5991.636667	963.106445	18.953377
69.163298	5991.636667	961.935547	92.663208
69.163298	5991.636667	960.764648	140.520294
69.163298	5991.636667	959.593750	66.494492
69.163298	5991.636667	958.422852	173.442307
69.163298	5991.636667	957.250977	-88.676155
69.163298	5991.636667	956.079102	83.385292
69.163298	5991.636667	954.907227	-84.924042
69.163298	5991.636667	953.734375	70.972672
69.163298	5991.636667	952.562500	86.082253
69.163298	5991.636667	951.389648	-86.128746
69.163298	5991.636667	950.215820	123.673286
69.163298	5991.636667	949.042969	278.513702
69.163298	5991.636667	947.869141	-28.385572
69.163298	5991.636667	946.695313	-47.717350
69.163298	5991.636667	945.521484	48.406155
69.163298	5991.636667	944.346680	155.626785
69.163298	5991.636667	943.172852	29.697313
69.163298	5991.636667	941.998047	77.926239
69.163298	5991.636667	940.822266	89.171623
69.163298	5991.636667	939.647461	58.931744
69.163298	5991.636667	938.471680	126.899475
69.163298	5991.636667	937.295898	92.627472
69.163298	5991.636667	936.119141	-41.664680
69.163298	5991.636667	934.943359	-60.823040
69.163298	5991.636667	933.766602	-8.036475
69.163298	5991.636667	932.589844	255.729568
69.163298	5991.636667	931.413086	104.020592
69.163298	5991.636667	930.235352	15.555267
69.163298	5991.636667	929.057617	218.389587
69.163298	5991.636667	927.879883	-57.074478
69.163298	5991.636667	926.702148	8.838949
69.163298	5991.636667	925.523438	66.068802
69.163298	5991.636667	924.344727	125.510384
69.163298	5991.636667	923.166016	191.442108
69.163298	5991.636667	921.987305	14.087247
69.163298	5991.636667	920.807617	45.319340
69.163298	5991.636667	919.627930	47.576115
69.163298	5991.636667	919.497070	-40.438217
69.163298	5991.636667	918.331055	160.147781
69.163298	5991.636667	917.165039	134.936996
69.163298	5991.636667	915.999023	185.704956
69.163298	5991.636667	914.833008	132.327728
69.163298	5991.636667	913.666016	74.652557
69.163298	5991.636667	912.499023	45.211826
69.163298	5991.636667	911.332031	-57.922104
69.163298	5991.636667	910.165039	12.431534
69.163298	5991.636667	908.997070	41.594669
69.163298	5991.636667	907.830078	31.756275
69.163298	5991.636667	906.661133	65.274559
69.163298	5991.636667	905.493164	155.112808
69.163298	5991.636667	904.325195	67.349304
69.163298	5991.636667	903.156250	-44.175880
69.163298	5991.636667	901.987305	-51.728371
69.163298	5991.636667	900.818359	53.284698
69.163298	5991.636667	899.648438	-49.457203
69.163298	5991.636667	898.478516	-111.033218
69.163298	5991.636667	897.308594	-133.631729
69.163298	5991.636667	896.138672	42.753201
69.163298	5991.636667	894.968750	46.115334
69.163298	5991.636667	893.797852	101.377365
69.163298	5991.636667	892.626953	122.056267
69.163298	5991.636667	891.456055	-17.153053
69.163298	5991.636667	890.284180	-5.059784
69.163298	5991.636667	889.113281	86.962547
69.163298	5991.636667	887.941406	114.185143
69.163298	5991.636667	886.768555	279.595917
69.163298	5991.636667	885.596680	142.753860
69.163298	5991.636667	884.423828	68.575783
69.163298	5991.636667	883.250977	106.648819
69.163298	5991.636667	882.078125	39.020416
69.163298	5991.636667	880.905273	57.712135
69.163298	5991.636667	879.731445	-42.182243
69.163298	5991.636667	878.557617	58.486855
69.163298	5991.636667	877.383789	-8.993875
69.163298	5991.636667	876.209961	78.737953
69.163298	5991.636667	875.035156	95.353806
69.163298	5991.636667	873.860352	12.891368
69.163298	5991.636667	872.685547	14.479137
69.163298	5991.636667	871.510742	52.692863
69.163298	5991.636667	870.334961	-89.925804
69.163298	5991.636667	869.159180	-60.271870
69.163298	5991.636667	867.983398	-58.585007
69.163298	5991.636667	866.807617	-33.210377
69.163298	5991.636667	865.630859	-40.089172
69.163298	5991.636667	864.454102	69.191147
69.163298	5991.636667	863.277344	77.387955
69.163298	5991.636667	862.100586	72.703957
69.163298	5991.636667	860.922852	53.001232
69.163298	5991.636667	859.745117	29.029650
69.163298	5991.636667	858.567383	56.652538
69.163298	5991.636667	857.389648	131.541336
69.163298	5991.636667	856.210938	77.570396
69.163298	5991.636667	855.032227	10.760013
69.163298	5991.636667	853.853516	21.279669
69.163298	5991.636667	852.674805	66.156746
69.163298	5991.636667	851.495117	-109.977509
69.163298	5991.636667	850.315430	-11.411466
69.163298	5991.636667	849.135742	119.310478
69.163298	5991.636667	847.956055	-0.903932
69.163298	5991.636667	846.775391	153.393509
69.163298	5991.636667	845.595703	106.147789
69.163298	5991.636667	844.415039	56.803661
69.163298	5991.636667	843.233398	125.354836
69.163298	5991.636667	842.052734	-26.758186
69.163298	5991.636667	840.871094	5.415283
69.163298	5991.636667	839.689453	5.476345
69.163298	5991.636667	838.506836	-22.269754
69.163298	5991.636667	837.325195	-11.455428
69.163298	5991.636667	836.142578	-96.923798
69.163298	5991.636667	834.959961	50.886112
69.163298	5991.636667	833.777344	31.799994
69.163298	5991.636667	832.593750	46.967403
69.163298	5991.636667	831.410156	-57.594685
69.163298	5991.636667	830.226563	8.938918
69.163298	5991.636667	829.042969	-14.304845
69.163298	5991.636667	827.858398	-75.979088
69.163298	5991.636667	826.673828	-99.147484
69.163298	5991.636667	825.489258	-36.839355
69.163298	5991.636667	824.304688	59.636204
69.163298	5991.636667	823.120117	49.332878
69.163298	5991.636667	821.934570	-24.983913
69.163298	5991.636667	820.749023	1.066870
69.163298	5991.636667	819.562500	5.793159
69.163298	5991.636667	818.376953	-187.876053
69.163298	5991.636667	817.190430	-63.617859
69.163298	5991.636667	816.003906	-54.548347
69.163298	5991.636667	814.817383	-30.535240
69.163298	5991.636667	813.629883	89.420380
69.163298	5991.636667	812.442383	85.735046
69.163298	5991.636667	811.254883	24.541538
69.163298	5991.636667	810.067383	-11.040095
69.163298	5991.636667	808.878906	-29.541643
69.163298	5991.636667	807.690430	45.684807
69.163298	5991.636667	806.501953	59.159698
69.163298	5991.636667	805.313477	-23.137548
69.163298	5991.636667	804.124023	-109.631737
69.163298	5991.636667	802.934570	-25.848368
69.163298	5991.636667	801.745117	47.285713
69.163298	5991.636667	800.555664	-32.722740
69.163298	5991.636667	799.365234	-23.363415
69.163298	5991.636667	798.175781	126.325729
69.163298	5991.636667	796.985352	-4.594540
69.163298	5991.636667	795.793945	74.950432
69.163298	5991.636667	794.603516	-38.864544
69.163298	5991.636667	793.412109	47.069736
69.163298	5991.636667	792.220703	-43.284142
69.163298	5991.636667	791.028320	15.058342
69.163298	5991.636667	789.836914	64.902237
69.163298	5991.636667	788.644531	-59.292072
69.163298	5991.636667	787.452148	-113.387276
69.163298	5991.636667	786.258789	-57.112663
69.163298	5991.636667	785.066406	-58.115482
69.163298	5991.636667	783.873047	-33.645683
69.163298	5991.636667	782.679688	-57.931267
69.163298	5991.636667	781.485352	-31.306944
69.163298	5991.636667	780.291992	75.859688
69.163298	5991.636667	779.097656	32.559994
69.163298	5991.636667	777.903320	124.882790
69.163298	5991.636667	776.708008	92.225349
69.163298	5991.636667	775.512695	10.895206
69.163298	5991.636667	774.318359	27.005003
69.163298	5991.636667	773.122070	72.769875
69.163298	5991.636667	771.926758	76.205307
69.163298	5991.636667	770.730469	-72.680534
69.163298	5991.636667	769.534180	-50.135883
69.163298	5991.636667	768.337891	71.821999
69.163298	5991.636667	767.141602	73.219292
69.163298	5991.636667	765.944336	42.926025
69.163298	5991.636667	764.747070	40.141651
69.163298	5991.636667	763.549805	47.942646
69.163298	5991.636667	762.351563	100.131180
69.163298	5991.636667	761.154297	135.412384
69.163298	5991.636667	759.956055	124.238472
69.163298	5991.636667	758.757813	-68.499771
69.163298	5991.636667	757.558594	6.964216
69.163298	5991.636667	756.359375	130.957230
69.163298	5991.636667	755.160156	229.593292
69.163298	5991.636667	753.960938	24.406378
69.163298	5991.636667	752.761719	-24.592018
69.163298	5991.636667	751.561523	198.488739
69.163298	5991.636667	750.361328	37.765392
69.163298	5991.636667	749.160156	115.327324
69.163298	5991.636667	747.959961	55.879845
69.163298	5991.636667	746.758789	116.579979
69.163298	5991.636667	745.557617	103.537094
69.163298	5991.636667	744.356445	-0.051798
69.163298	5991.636667	743.154297	71.199112
69.163298	5991.636667	741.952148	70.853729
69.163298	5991.636667	740.750000	196.814621
69.163298	5991.636667	739.547852	61.787106
69.163298	5991.636667	738.344727	34.137482
69.163298	5991.636667	737.142578	73.821808
69.163298	5991.636667	735.939453	102.991417
69.163298	5991.636667	734.735352	-44.458916
69.163298	5991.636667	733.532227	-128.772415
69.163298	5991.636667	732.328125	-17.566746
69.163298	5991.636667	731.124023	83.097366
69.163298	5991.636667	729.918945	-125.100266
69.163298	5991.636667	728.714844	173.012589
69.163298	5991.636667	727.509766	-47.694382
69.163298	5991.636667	726.303711	27.750229
69.163298	5991.636667	725.098633	-64.763634
69.163298	5991.636667	723.892578	-90.064972
69.163298	5991.636667	722.686523	-10.431388
69.163298	5991.636667	721.480469	62.884373
69.163298	5991.636667	720.274414	64.867348
69.163298	5991.636667	719.067383	-27.500847
69.163298	5991.636667	717.860352	-25.477831
69.163298	5991.636667	716.653320	45.723679
69.163298	5991.636667	715.445313	64.516449
69.163298	5991.636667	714.238281	77.019295
69.163298	5991.636667	713.030273	60.202126
69.163298	5991.636667	711.821289	-2.672197
69.163298	5991.636667	710.613281	58.021946
69.163298	5991.636667	709.404297	-36.213787
69.163298	5991.636667	708.195313	-75.985703
69.163298	5991.636667	706.986328	-122.012894
69.163298	5991.636667	705.776367	-40.390392
69.163298	5991.636667	704.566406	-13.181059
69.163298	5991.636667	703.356445	99.763191
69.163298	5991.636667	702.146484	66.307251
69.163298	5991.636667	700.935547	-119.723991
69.163298	5991.636667	699.724609	-73.689812
69.163298	5991.636667	698.513672	-48.566631
69.163298	5991.636667	697.302734	103.982101
69.163298	5991.636667	696.090820	43.434116
69.163298	5991.636667	694.878906	-12.910215
69.163298	5991.636667	693.666992	1.755390
69.163298	5991.636667	692.455078	-58.727142
69.163298	5991.636667	691.242188	49.857693
69.163298	5991.636667	690.029297	-2.257118
69.163298	5991.636667	688.816406	72.896324
69.163298	5991.636667	687.602539	118.825020
69.163298	5991.636667	686.389648	39.622753
69.163298	5991.636667	685.175781	-77.066711
69.163298	5991.636667	683.960938	81.415901
69.163298	5991.636667	682.747070	68.954933
69.163298	5991.636667	681.532227	25.251236
69.163298	5991.636667	680.317383	4.475800
69.163298	5991.636667	679.102539	129.480789
69.163298	5991.636667	677.886719	56.640842
69.163298	5991.636667	676.670898	-47.396000
69.163298	5991.636667	675.455078	27.587666
69.163298	5991.636667	674.239258	-38.953465
69.163298	5991.636667	673.022461	-84.663803
69.163298	5991.636667	671.805664	15.230668
69.163298	5991.636667	670.588867	23.583096
69.163298	5991.636667	669.372070	2.821326
69.163298	5991.636667	668.154297	-47.032581
69.163298	5991.636667	666.936523	25.735853
69.163298	5991.636667	665.718750	2.894805
69.163298	5991.636667	664.500977	119.230034
69.163298	5991.636667	663.282227	71.447655
69.163298	5991.636667	662.063477	71.433556
69.163298	5991.636667	660.844727	-167.318481
69.163298	5991.636667	659.625000	-26.162449
69.163298	5991.636667	658.405273	-86.353035
69.163298	5991.636667	657.185547	-26.201166
69.163298	5991.636667	655.965820	50.509094
69.163298	5991.636667	654.745117	4.831949
69.163298	5991.636667	653.525391	-132.065277
69.163298	5991.636667	652.303711	35.801067
69.163298	5991.636667	651.083008	104.105774
69.163298	5991.636667	649.861328	151.654846
69.163298	5991.636667	648.640625	89.376434
69.163298	5991.636667	647.417969	-24.656584
69.163298	5991.636667	646.196289	72.548111
69.163298	5991.636667	644.973633	14.437065
69.163298	5991.636667	643.750977	26.709311
69.163298	5991.636667	642.528320	57.586658
69.163298	5991.636667	641.305664	177.399811
69.163298	5991.636667	640.082031	38.593979
69.163298	5991.636667	638.858398	-46.399338
69.163298	5991.636667	637.634766	-59.006256
69.163298	5991.636667	636.410156	73.081177
69.163298	5991.636667	635.185547	97.628021
69.163298	5991.636667	633.960938	25.032864
69.163298	5991.636667	632.736328	-59.942909
69.163298	5991.636667	631.510742	76.101875
69.163298	5991.636667	630.285156	94.369347
69.163298	5991.636667	629.059570	25.900698
69.163298	5991.636667	627.833984	48.263466
69.163298	5991.636667	626.607422	29.329483
69.163298	5991.636667	625.380859	37.206230
69.163298	5991.636667	624.154297	-113.772614
69.163298	5991.636667	622.927734	52.893127
69.163298	5991.636667	621.700195	85.449249
69.163298	5991.636667	620.472656	-30.454197
69.163298	5991.636667	619.245117	-4.117803
69.163298	5991.636667	618.016602	81.947845
69.163298	5991.636667	616.788086	-66.900604
69.163298	5991.636667	615.559570	91.189590
69.163298	5991.636667	614.331055	181.234772
69.163298	5991.636667	613.101563	28.281391
69.163298	5991.636667	611.872070	93.561707
69.163298	5991.636667	610.642578	10.617921
69.163298	5991.636667	609.413086	7.930738
69.163298	5991.636667	608.182617	-91.457809
69.163298	5991.636667	606.952148	0.441436
69.163298	5991.636667	605.721680	38.816711
69.163298	5991.636667	604.491211	-23.581242
69.163298	5991.636667	603.259766	41.458004
69.163298	5991.636667	602.028320	-29.177851
69.163298	5991.636667	600.796875	-5.302990
69.163298	5991.636667	599.564453	125.350594
69.163298	5991.636667	598.332031	-0.775619
69.163298	5991.636667	597.099609	-11.896177
69.163298	5991.636667	595.867188	-37.406788
69.163298	5991.636667	594.633789	-21.882769
69.163298	5991.636667	593.400391	5.919727
69.163298	5991.636667	592.166992	-134.530731
69.163298	5991.636667	590.933594	8.086492
69.163298	5991.636667	589.699219	-35.978790
69.163298	5991.636667	588.464844	-55.450390
69.163298	5991.636667	587.230469	91.082184
69.163298	5991.636667	585.995117	34.655815
69.163298	5991.636667	584.760742	0.759287
69.163298	5991.636667	583.525391	26.256046
69.163298	5991.636667	582.289063	35.334381
69.163298	5991.636667	581.053711	130.372391
69.163298	5991.636667	579.817383	-141.074692
69.163298	5991.636667	578.581055	50.098656
69.163298	5991.636667	577.343750	-86.221191
69.163298	5991.636667	576.107422	-1.574848
69.163298	5991.636667	574.870117	70.739235
69.163298	5991.636667	573.631836	5.991430
69.163298	5991.636667	572.394531	67.994301
69.163298	5991.636667	571.156250	-4.957448
69.163298	5991.636667	569.917969	-16.599871
69.163298	5991.636667	568.679688	41.200302
69.163298	5991.636667	567.440430	19.285873
69.163298	5991.636667	566.202148	48.405228
69.163298	5991.636667	564.961914	71.364609
69.163298	5991.636667	563.722656	-28.199858
69.163298	5991.636667	562.482422	-37.945869
69.163298	5991.636667	561.243164	66.548019
69.163298	5991.636667	560.001953	20.010176
69.163298	5991.636667	558.761719	-81.608505
69.163298	5991.636667	557.520508	128.785599
69.163298	5991.636667	556.279297	8.783907
69.163298	5991.636667	555.038086	-19.470430
69.163298	5991.636667	553.795898	1.170401
69.163298	5991.636667	552.554688	40.108715
69.163298	5991.636667	551.311523	3.637882
69.163298	5991.636667	550.069336	38.432007
69.163298	5991.636667	548.826172	185.172821
69.163298	5991.636667	547.583984	34.608543
69.163298	5991.636667	546.339844	158.846771
69.163298	5991.636667	545.096680	93.762131
69.163298	5991.636667	543.852539	175.156296
69.163298	5991.636667	542.608398	61.228500
69.163298	5991.636667	541.364258	83.568268
69.163298	5991.636667	540.119141	-56.773411
69.163298	5991.636667	538.875000	38.703060
69.163298	5991.636667	537.628906	-42.686153
69.163298	5991.636667	536.383789	58.790539
69.163298	5991.636667	535.137695	-85.593239
69.163298	5991.636667	533.892578	-59.347443
69.163298	5991.636667	532.645508	-45.316784
69.163298	5991.636667	531.399414	70.181320
69.163298	5991.636667	530.152344	-5.176324
69.163298	5991.636667	528.905273	-74.439178
69.163298	5991.636667	527.658203	164.669403
69.163298	5991.636667	526.410156	123.748116
69.163298	5991.636667	525.163086	107.151634
69.163298	5991.636667	523.914063	74.322487
69.163298	5991.636667	522.666016	-9.192990
69.163298	5991.636667	521.416992	-3.526305
69.163298	5991.636667	520.167969	48.715672
69.163298	5991.636667	518.918945	125.219788
69.163298	5991.636667	517.669922	68.002014
69.163298	5991.636667	516.419922	65.457863
69.163298	5991.636667	515.169922	121.600189
69.163298	5991.636667	513.919922	193.887375
69.163298	5991.636667	512.668945	73.891174
69.163298	5991.636667	511.417969	-44.051746
69.163298	5991.636667	510.166992	131.317795
69.163298	5991.636667	508.916016	150.882034
69.163298	5991.636667	507.664063	-17.605196
69.163298	5991.636667	506.412109	-6.140605
69.163298	5991.636667	505.160156	41.676121
69.163298	5991.636667	503.907227	0.554861
69.163298	5991.636667	502.655273	187.694305
69.163298	5991.636667	501.402344	-67.554573
69.163298	5991.636667	500.148438	-15.796354
69.163298	5991.636667	498.895508	106.575958
69.163298	5991.636667	497.641602	83.563179
69.163298	5991.636667	496.387695	38.347950
69.163298	5991.636667	495.132813	89.974571
69.163298	5991.636667	493.878906	70.967171
69.163298	5991.636667	492.624023	53.971481
69.163298	5991.636667	491.368164	97.453766
69.163298	5991.636667	490.113281	26.007584
69.163298	5991.636667	488.857422	-49.449909
69.163298	5991.636667	487.601563	-110.784279
69.163298	5991.636667	486.344727	-65.340431
69.163298	5991.636667	485.088867	38.474289
69.163298	5991.636667	483.832031	103.978355
69.163298	5991.636667	482.575195	-51.996971
69.163298	5991.636667	481.317383	-93.192139
69.163298	5991.636667	480.059570	-76.025871
69.163298	5991.636667	478.801758	-0.534271
69.163298	5991.636667	477.543945	68.881302
69.163298	5991.636667	476.285156	3.528721
69.163298	5991.636667	475.027344	8.561342
69.163298	5991.636667	473.767578	-117.065559
69.163298	5991.636667	472.508789	-19.579683
69.163298	5991.636667	471.249023	29.639040
69.163298	5991.636667	469.989258	90.882889
69.163298	5991.636667	468.729492	-0.537100
69.163298	5991.636667	467.469727	-55.781067
69.163298	5991.636667	466.208984	-22.676464
69.163298	5991.636667	464.948242	94.704735
69.163298	5991.636667	463.686523	65.552155
69.163298	5991.636667	462.425781	20.358585
69.163298	5991.636667	461.164063	-46.879055
69.163298	5991.636667	459.901367	-49.920071
69.163298	5991.636667	458.639648	39.260540
69.163298	5991.636667	457.376953	22.168457
69.163298	5991.636667	456.114258	49.170643
69.163298	5991.636667	454.851563	-38.041557
69.163298	5991.636667	453.587891	-93.164825
69.163298	5991.636667	452.324219	118.093079
69.163298	5991.636667	451.060547	0.891235
69.163298	5991.636667	449.796875	-128.269485
69.163298	5991.636667	448.532227	60.848763
69.163298	5991.636667	447.267578	149.839432
69.163298	5991.636667	446.002930	-71.286407
69.163298	5991.636667	444.737305	-92.304123
69.163298	5991.636667	443.471680	8.668737
69.163298	5991.636667	442.206055	57.621727
69.163298	5991.636667	440.940430	-35.356991
69.163298	5991.636667	439.673828	-8.389055
69.163298	5991.636667	438.407227	66.521194
69.163298	5991.636667	437.140625	77.483826
69.163298	5991.636667	435.873047	26.538782
69.163298	5991.636667	434.605469	127.363274
69.163298	5991.636667	433.337891	110.373466
69.163298	5991.636667	432.070313	31.527470
69.163298	5991.636667	430.801758	38.521385
69.163298	5991.636667	429.533203	19.583099
69.163298	5991.636667	428.264648	-15.297613
69.163298	5991.636667	426.996094	67.489601
69.163298	5991.636667	425.726563	92.432716
69.163298	5991.636667	424.457031	-95.898720
69.163298	5991.636667	423.186523	-23.093925
69.163298	5991.636667	421.916992	21.790356
69.163298	5991.636667	420.646484	60.685070
69.163298	5991.636667	419.375977	15.927193
69.163298	5991.636667	418.104492	32.915634
69.163298	5991.636667	416.833008	-13.798368
69.163298	5991.636667	415.561523	-4.764462
69.163298	5991.636667	414.290039	-31.546009
69.163298	5991.636667	413.017578	69.001831
69.163298	5991.636667	411.746094	189.395203
69.163298	5991.636667	410.472656	124.818405
69.163298	5991.636667	409.200195	28.461542
69.163298	5991.636667	407.926758	-81.764862
69.163298	5991.636667	406.653320	112.086510
69.163298	5991.636667	405.379883	27.716116
69.163298	5991.636667	404.105469	30.777710
69.163298	5991.636667	402.831055	87.452339
69.163298	5991.636667	401.556641	-10.761878
69.163298	5991.636667	400.282227	20.085276
69.163298	5991.636667	399.006836	-36.404953
69.163298	5991.636667	397.731445	-13.512691
69.163298	5991.636667	396.456055	-111.641937
69.163298	5991.636667	395.179688	105.599358
69.163298	5991.636667	393.903320	-14.341592
69.163298	5991.636667	392.626953	-112.436378
69.163298	5991.636667	391.350586	31.296452
69.163298	5991.636667	390.073242	-41.031662
69.163298	5991.636667	388.795898	-16.271635
69.163298	5991.636667	387.518555	6.479139
69.163298	5991.636667	386.240234	72.767342
69.163298	5991.636667	384.961914	55.853176
69.163298	5991.636667	383.683594	-34.314140
69.163298	5991.636667	382.405273	-3.752275
69.163298	5991.636667	381.125977	82.168030
69.163298	5991.636667	379.846680	96.810173
69.163298	5991.636667	378.567383	58.017044
69.163298	5991.636667	377.287109	60.728554
69.163298	5991.636667	376.006836	-63.112534
69.163298	5991.636667	374.726563	42.317303
69.163298	5991.636667	373.446289	-16.343571
69.163298	5991.636667	372.165039	-90.827194
69.163298	5991.636667	370.883789	28.228786
69.163298	5991.636667	369.602539	87.941879
69.163298	5991.636667	368.320313	27.148905
69.163298	5991.636667	367.039063	-55.389259
69.163298	5991.636667	365.755859	77.143204
69.163298	5991.636667	364.473633	-62.711349
69.163298	5991.636667	363.190430	32.152367
69.163298	5991.636667	361.907227	128.872971
69.163298	5991.636667	360.624023	44.084641
69.163298	5991.636667	359.340820	51.897480
69.163298	5991.636667	358.056641	45.825996
69.163298	5991.636667	356.772461	-7.621445
69.163298	5991.636667	355.487305	62.963741
69.163298	5991.636667	354.202148	72.364159
69.163298	5991.636667	352.916992	-22.704889
69.163298	5991.636667	351.631836	-46.972111
69.163298	5991.636667	350.346680	70.365364
69.163298	5991.636667	349.060547	154.078629
69.163298	5991.636667	347.774414	-49.601879
69.163298	5991.636667	346.487305	57.443974
69.163298	5991.636667	345.200195	-28.410021
69.163298	5991.636667	343.913086	105.825119
69.163298	5991.636667	342.625977	-23.541983
69.163298	5991.636667	341.338867	-60.647724
69.163298	5991.636667	340.050781	29.807178
69.163298	5991.636667	338.762695	31.655565
69.163298	5991.636667	337.473633	-19.702890
69.163298	5991.636667	336.184570	111.377457
69.163298	5991.636667	334.895508	30.196669
69.163298	5991.636667	333.606445	-88.440529
69.163298	5991.636667	332.317383	36.074581
69.163298	5991.636667	331.027344	-73.134613
69.163298	5991.636667	329.736328	-58.961849
69.163298	5991.636667	328.446289	0.070655
69.163298	5991.636667	327.155273	49.026688
69.163298	5991.636667	325.864258	1.664063
69.163298	5991.636667	324.573242	114.746284
69.163298	5991.636667	323.281250	125.623116
69.163298	5991.636667	321.989258	42.189846
69.163298	5991.636667	320.697266	-100.252724
69.163298	5991.636667	319.405273	40.957256
69.163298	5991.636667	318.112305	-6.133228
69.163298	5991.636667	316.819336	24.750256
69.163298	5991.636667	315.526367	-91.467133
69.163298	5991.636667	314.232422	108.913734
69.163298	5991.636667	312.938477	-54.931019
69.163298	5991.636667	311.644531	19.470226
69.163298	5991.636667	310.349609	95.398788
69.163298	5991.636667	309.054688	-24.558210
69.163298	5991.636667	307.759766	-12.003373
69.163298	5991.636667	306.464844	-50.679756
69.163298	5991.636667	305.168945	-25.334997
69.163298	5991.636667	303.873047	-8.272253
69.163298	5991.636667	302.577148	66.879128
69.163298	5991.636667	301.281250	100.516785
69.163298	5991.636667	299.984375	125.820389
