#X		#Y		#Wave		#Intensity
464.420745	6309.920000	1999.946289	0.629520
464.420745	6309.920000	1998.981445	121.052971
464.420745	6309.920000	1998.017578	59.406158
464.420745	6309.920000	1997.052734	-12.154801
464.420745	6309.920000	1996.088867	126.883873
464.420745	6309.920000	1995.124023	25.558580
464.420745	6309.920000	1994.159180	90.185295
464.420745	6309.920000	1993.193359	-105.245941
464.420745	6309.920000	1992.228516	43.506416
464.420745	6309.920000	1991.262695	-35.554134
464.420745	6309.920000	1990.296875	78.430023
464.420745	6309.920000	1989.331055	58.725502
464.420745	6309.920000	1988.365234	-59.956749
464.420745	6309.920000	1987.398438	-215.723022
464.420745	6309.920000	1986.432617	-47.488617
464.420745	6309.920000	1985.465820	11.864402
464.420745	6309.920000	1984.499023	-74.687988
464.420745	6309.920000	1983.532227	-30.235100
464.420745	6309.920000	1982.565430	-22.893593
464.420745	6309.920000	1981.597656	51.130993
464.420745	6309.920000	1980.629883	-0.884468
464.420745	6309.920000	1979.662109	-13.389132
464.420745	6309.920000	1978.694336	82.738152
464.420745	6309.920000	1977.726563	38.074593
464.420745	6309.920000	1976.758789	94.608543
464.420745	6309.920000	1975.790039	-14.260694
464.420745	6309.920000	1974.821289	37.275677
464.420745	6309.920000	1973.852539	91.234337
464.420745	6309.920000	1972.883789	-44.784538
464.420745	6309.920000	1971.915039	60.907612
464.420745	6309.920000	1970.945313	30.920424
464.420745	6309.920000	1969.975586	0.918310
464.420745	6309.920000	1969.005859	44.846676
464.420745	6309.920000	1968.036133	7.409224
464.420745	6309.920000	1967.066406	-135.987213
464.420745	6309.920000	1966.096680	77.842537
464.420745	6309.920000	1965.125977	18.177385
464.420745	6309.920000	1964.155273	-100.591515
464.420745	6309.920000	1963.184570	-130.706741
464.420745	6309.920000	1962.213867	73.016869
464.420745	6309.920000	1961.242188	-58.076405
464.420745	6309.920000	1960.271484	-14.436530
464.420745	6309.920000	1959.299805	-47.105080
464.420745	6309.920000	1958.328125	-13.371898
464.420745	6309.920000	1957.356445	89.184998
464.420745	6309.920000	1956.384766	181.843552
464.420745	6309.920000	1955.412109	-18.106300
464.420745	6309.920000	1954.439453	118.732697
464.420745	6309.920000	1953.467773	68.727158
464.420745	6309.920000	1952.495117	-123.791313
464.420745	6309.920000	1951.521484	27.658308
464.420745	6309.920000	1950.548828	70.958092
464.420745	6309.920000	1949.575195	-40.488201
464.420745	6309.920000	1948.601563	152.528351
464.420745	6309.920000	1947.627930	205.528885
464.420745	6309.920000	1946.654297	111.228836
464.420745	6309.920000	1945.680664	9.579503
464.420745	6309.920000	1944.706055	-160.750534
464.420745	6309.920000	1943.732422	24.633339
464.420745	6309.920000	1942.757813	-45.131069
464.420745	6309.920000	1941.783203	-7.004096
464.420745	6309.920000	1940.807617	9.021618
464.420745	6309.920000	1939.833008	42.176323
464.420745	6309.920000	1938.857422	-34.982437
464.420745	6309.920000	1937.881836	-50.880730
464.420745	6309.920000	1936.906250	18.944454
464.420745	6309.920000	1935.930664	-58.234303
464.420745	6309.920000	1934.955078	-17.864149
464.420745	6309.920000	1933.978516	49.400978
464.420745	6309.920000	1933.001953	185.160034
464.420745	6309.920000	1932.025391	164.210007
464.420745	6309.920000	1931.048828	35.578831
464.420745	6309.920000	1930.072266	119.821815
464.420745	6309.920000	1929.094727	101.276123
464.420745	6309.920000	1928.118164	75.379547
464.420745	6309.920000	1927.140625	-16.549177
464.420745	6309.920000	1926.163086	28.439138
464.420745	6309.920000	1925.184570	36.725033
464.420745	6309.920000	1924.207031	176.952042
464.420745	6309.920000	1923.228516	-37.178967
464.420745	6309.920000	1922.250000	78.538124
464.420745	6309.920000	1921.271484	37.875397
464.420745	6309.920000	1920.292969	2.091250
464.420745	6309.920000	1919.314453	76.168213
464.420745	6309.920000	1918.334961	69.640961
464.420745	6309.920000	1917.355469	172.923233
464.420745	6309.920000	1916.375977	83.373993
464.420745	6309.920000	1915.396484	62.149612
464.420745	6309.920000	1914.416992	218.977219
464.420745	6309.920000	1913.436523	12.346004
464.420745	6309.920000	1912.457031	-72.310501
464.420745	6309.920000	1911.476563	242.855560
464.420745	6309.920000	1910.496094	114.272682
464.420745	6309.920000	1909.515625	-53.272903
464.420745	6309.920000	1908.534180	-18.546532
464.420745	6309.920000	1907.552734	116.025368
464.420745	6309.920000	1906.572266	36.195656
464.420745	6309.920000	1905.590820	14.818274
464.420745	6309.920000	1904.608398	-74.742485
464.420745	6309.920000	1903.626953	-8.497567
464.420745	6309.920000	1902.644531	-0.708365
464.420745	6309.920000	1901.663086	128.725586
464.420745	6309.920000	1900.680664	31.833815
464.420745	6309.920000	1899.698242	119.822861
464.420745	6309.920000	1898.714844	15.634211
464.420745	6309.920000	1897.732422	-56.924492
464.420745	6309.920000	1896.749023	50.421745
464.420745	6309.920000	1895.765625	162.569931
464.420745	6309.920000	1894.782227	51.084126
464.420745	6309.920000	1893.798828	82.973167
464.420745	6309.920000	1892.814453	136.693085
464.420745	6309.920000	1891.831055	-23.357462
464.420745	6309.920000	1890.846680	-1.243542
464.420745	6309.920000	1889.862305	-39.853680
464.420745	6309.920000	1888.877930	47.757984
464.420745	6309.920000	1887.892578	18.822771
464.420745	6309.920000	1886.908203	4.440202
464.420745	6309.920000	1885.922852	106.493736
464.420745	6309.920000	1884.937500	155.127167
464.420745	6309.920000	1883.952148	9.712135
464.420745	6309.920000	1882.965820	109.225945
464.420745	6309.920000	1881.980469	114.140366
464.420745	6309.920000	1880.994141	-50.632034
464.420745	6309.920000	1880.007813	-82.077751
464.420745	6309.920000	1879.021484	-120.798790
464.420745	6309.920000	1878.035156	-11.755568
464.420745	6309.920000	1877.047852	-67.466965
464.420745	6309.920000	1876.061523	-67.479088
464.420745	6309.920000	1875.074219	106.804993
464.420745	6309.920000	1874.086914	101.881294
464.420745	6309.920000	1873.098633	50.956432
464.420745	6309.920000	1872.111328	-135.469177
464.420745	6309.920000	1871.123047	-24.277260
464.420745	6309.920000	1870.135742	-70.364807
464.420745	6309.920000	1869.147461	72.175453
464.420745	6309.920000	1868.158203	-82.757088
464.420745	6309.920000	1867.169922	-87.767334
464.420745	6309.920000	1866.180664	-15.452029
464.420745	6309.920000	1865.192383	-27.758774
464.420745	6309.920000	1864.203125	-6.255092
464.420745	6309.920000	1863.213867	85.274933
464.420745	6309.920000	1862.223633	2.859496
464.420745	6309.920000	1861.234375	89.488144
464.420745	6309.920000	1860.244141	127.779236
464.420745	6309.920000	1859.253906	88.796425
464.420745	6309.920000	1858.263672	-15.350427
464.420745	6309.920000	1857.273438	27.710772
464.420745	6309.920000	1856.282227	3.187799
464.420745	6309.920000	1855.291992	171.616776
464.420745	6309.920000	1854.300781	79.516747
464.420745	6309.920000	1853.309570	132.098404
464.420745	6309.920000	1852.317383	37.591446
464.420745	6309.920000	1851.326172	-37.614380
464.420745	6309.920000	1850.333984	10.084316
464.420745	6309.920000	1849.342773	108.343475
464.420745	6309.920000	1848.350586	124.645798
464.420745	6309.920000	1847.357422	63.854527
464.420745	6309.920000	1846.365234	142.728729
464.420745	6309.920000	1845.372070	-11.970201
464.420745	6309.920000	1844.379883	105.364548
464.420745	6309.920000	1843.386719	114.340012
464.420745	6309.920000	1842.393555	2.988844
464.420745	6309.920000	1841.399414	-16.925293
464.420745	6309.920000	1840.406250	114.678650
464.420745	6309.920000	1839.412109	49.024269
464.420745	6309.920000	1838.417969	-105.582764
464.420745	6309.920000	1837.423828	6.676395
464.420745	6309.920000	1836.429688	-119.060081
464.420745	6309.920000	1835.434570	146.908875
464.420745	6309.920000	1834.440430	4.339311
464.420745	6309.920000	1833.445313	22.739288
464.420745	6309.920000	1832.450195	-2.114238
464.420745	6309.920000	1831.454102	-99.012947
464.420745	6309.920000	1830.458984	56.179214
464.420745	6309.920000	1829.462891	-28.729525
464.420745	6309.920000	1828.466797	119.153091
464.420745	6309.920000	1827.470703	19.831442
464.420745	6309.920000	1826.474609	229.982773
464.420745	6309.920000	1825.478516	166.617310
464.420745	6309.920000	1824.481445	-4.653411
464.420745	6309.920000	1823.484375	78.257759
464.420745	6309.920000	1822.487305	125.163315
464.420745	6309.920000	1821.490234	42.615971
464.420745	6309.920000	1820.493164	166.150391
464.420745	6309.920000	1819.495117	-33.802170
464.420745	6309.920000	1818.498047	72.895729
464.420745	6309.920000	1817.500000	43.029434
464.420745	6309.920000	1816.500977	142.447525
464.420745	6309.920000	1815.502930	201.115662
464.420745	6309.920000	1814.504883	-65.764923
464.420745	6309.920000	1813.505859	-64.551147
464.420745	6309.920000	1812.506836	34.737392
464.420745	6309.920000	1811.507813	11.973246
464.420745	6309.920000	1810.508789	-22.759617
464.420745	6309.920000	1809.508789	76.405922
464.420745	6309.920000	1808.508789	79.885406
464.420745	6309.920000	1807.508789	40.319931
464.420745	6309.920000	1806.508789	-30.317366
464.420745	6309.920000	1805.508789	-31.654913
464.420745	6309.920000	1804.508789	-97.512054
464.420745	6309.920000	1803.507813	-24.834768
464.420745	6309.920000	1802.506836	179.137329
464.420745	6309.920000	1801.505859	43.978420
464.420745	6309.920000	1800.504883	49.691456
464.420745	6309.920000	1799.502930	131.753723
464.420745	6309.920000	1798.501953	132.637329
464.420745	6309.920000	1797.500000	45.225590
464.420745	6309.920000	1796.498047	62.781418
464.420745	6309.920000	1795.496094	80.311157
464.420745	6309.920000	1794.493164	93.043480
464.420745	6309.920000	1793.491211	-101.649406
464.420745	6309.920000	1792.488281	-117.527939
464.420745	6309.920000	1791.485352	193.058594
464.420745	6309.920000	1790.482422	93.700523
464.420745	6309.920000	1789.478516	163.490692
464.420745	6309.920000	1788.475586	61.755592
464.420745	6309.920000	1787.471680	-25.675547
464.420745	6309.920000	1786.467773	-3.576238
464.420745	6309.920000	1785.463867	20.875296
464.420745	6309.920000	1784.459961	2.460304
464.420745	6309.920000	1783.455078	12.583065
464.420745	6309.920000	1782.450195	-101.024986
464.420745	6309.920000	1781.445313	-24.326252
464.420745	6309.920000	1780.440430	-178.350510
464.420745	6309.920000	1779.435547	119.415421
464.420745	6309.920000	1778.429688	91.371353
464.420745	6309.920000	1777.424805	117.986237
464.420745	6309.920000	1776.418945	85.161209
464.420745	6309.920000	1775.413086	0.061433
464.420745	6309.920000	1774.406250	85.998260
464.420745	6309.920000	1773.400391	43.640011
464.420745	6309.920000	1772.393555	101.003418
464.420745	6309.920000	1771.386719	103.722939
464.420745	6309.920000	1770.379883	149.146255
464.420745	6309.920000	1769.373047	11.801693
464.420745	6309.920000	1768.365234	33.456573
464.420745	6309.920000	1767.358398	-8.963733
464.420745	6309.920000	1766.350586	81.428879
464.420745	6309.920000	1765.342773	46.087837
464.420745	6309.920000	1764.334961	-5.855486
464.420745	6309.920000	1763.326172	-57.801830
464.420745	6309.920000	1762.318359	53.783245
464.420745	6309.920000	1761.309570	-140.365158
464.420745	6309.920000	1760.300781	82.497513
464.420745	6309.920000	1759.291016	21.018295
464.420745	6309.920000	1758.282227	-28.612953
464.420745	6309.920000	1757.272461	-2.481077
464.420745	6309.920000	1756.262695	-68.701820
464.420745	6309.920000	1755.252930	104.131599
464.420745	6309.920000	1754.243164	-49.678062
464.420745	6309.920000	1753.233398	-4.712300
464.420745	6309.920000	1752.222656	-28.384233
464.420745	6309.920000	1751.211914	2.328184
464.420745	6309.920000	1750.201172	-92.311821
464.420745	6309.920000	1749.190430	106.215324
464.420745	6309.920000	1748.179688	-16.810543
464.420745	6309.920000	1747.167969	209.942978
464.420745	6309.920000	1746.156250	-104.481445
464.420745	6309.920000	1745.144531	-121.154099
464.420745	6309.920000	1744.132813	-118.944061
464.420745	6309.920000	1743.121094	24.930462
464.420745	6309.920000	1742.108398	-8.344190
464.420745	6309.920000	1741.095703	-39.264828
464.420745	6309.920000	1740.083008	139.852692
464.420745	6309.920000	1739.070313	59.326286
464.420745	6309.920000	1738.057617	33.072533
464.420745	6309.920000	1737.043945	9.164909
464.420745	6309.920000	1736.030273	20.621828
464.420745	6309.920000	1735.016602	55.633297
464.420745	6309.920000	1734.002930	38.751629
464.420745	6309.920000	1732.989258	10.073087
464.420745	6309.920000	1731.974609	-28.042789
464.420745	6309.920000	1730.959961	32.790180
464.420745	6309.920000	1729.945313	-68.952339
464.420745	6309.920000	1728.930664	119.004135
464.420745	6309.920000	1727.916016	45.503929
464.420745	6309.920000	1726.900391	85.011490
464.420745	6309.920000	1725.885742	-52.041988
464.420745	6309.920000	1724.870117	-21.980145
464.420745	6309.920000	1723.853516	8.048630
464.420745	6309.920000	1722.837891	-100.740196
464.420745	6309.920000	1721.822266	86.840950
464.420745	6309.920000	1720.805664	60.341881
464.420745	6309.920000	1719.789063	36.186581
464.420745	6309.920000	1718.772461	7.321911
464.420745	6309.920000	1717.754883	-7.452342
464.420745	6309.920000	1716.738281	31.808487
464.420745	6309.920000	1715.720703	71.033440
464.420745	6309.920000	1714.703125	79.691978
464.420745	6309.920000	1713.685547	-31.436497
464.420745	6309.920000	1712.667969	-48.622868
464.420745	6309.920000	1711.649414	-61.128952
464.420745	6309.920000	1710.630859	-57.218136
464.420745	6309.920000	1709.612305	24.111164
464.420745	6309.920000	1708.593750	-75.257149
464.420745	6309.920000	1707.575195	-5.717001
464.420745	6309.920000	1706.555664	-44.103512
464.420745	6309.920000	1705.536133	15.987988
464.420745	6309.920000	1704.516602	-36.486320
464.420745	6309.920000	1703.497070	-63.173779
464.420745	6309.920000	1702.477539	-14.877967
464.420745	6309.920000	1701.457031	-86.111794
464.420745	6309.920000	1700.437500	-131.561966
464.420745	6309.920000	1699.416992	5.665994
464.420745	6309.920000	1698.395508	93.647842
464.420745	6309.920000	1697.375000	-66.577919
464.420745	6309.920000	1696.354492	-23.116024
464.420745	6309.920000	1695.333008	78.816460
464.420745	6309.920000	1694.311523	28.607759
464.420745	6309.920000	1693.290039	88.352753
464.420745	6309.920000	1692.267578	-57.767723
464.420745	6309.920000	1691.246094	30.003244
464.420745	6309.920000	1690.223633	-36.586586
464.420745	6309.920000	1689.201172	88.515160
464.420745	6309.920000	1688.178711	-38.853481
464.420745	6309.920000	1687.155273	-7.298821
464.420745	6309.920000	1686.132813	-73.886093
464.420745	6309.920000	1685.109375	83.767136
464.420745	6309.920000	1684.085938	91.886139
464.420745	6309.920000	1683.062500	125.672264
464.420745	6309.920000	1682.039063	21.701345
464.420745	6309.920000	1681.014648	50.789394
464.420745	6309.920000	1679.990234	-20.487675
464.420745	6309.920000	1678.965820	-14.759082
464.420745	6309.920000	1677.941406	179.896729
464.420745	6309.920000	1676.916992	122.591278
464.420745	6309.920000	1675.891602	48.969116
464.420745	6309.920000	1674.866211	54.626251
464.420745	6309.920000	1673.840820	-42.286251
464.420745	6309.920000	1672.815430	61.238132
464.420745	6309.920000	1671.790039	120.442757
464.420745	6309.920000	1670.763672	63.135239
464.420745	6309.920000	1669.737305	292.308624
464.420745	6309.920000	1668.710938	113.882011
464.420745	6309.920000	1667.684570	-143.642914
464.420745	6309.920000	1666.658203	197.133957
464.420745	6309.920000	1665.630859	-39.388023
464.420745	6309.920000	1664.603516	54.573311
464.420745	6309.920000	1663.576172	76.372154
464.420745	6309.920000	1662.548828	33.028244
464.420745	6309.920000	1661.520508	108.283722
464.420745	6309.920000	1660.493164	248.604614
464.420745	6309.920000	1659.464844	198.245972
464.420745	6309.920000	1658.436523	54.934364
464.420745	6309.920000	1657.408203	120.796440
464.420745	6309.920000	1656.378906	200.558701
464.420745	6309.920000	1655.350586	266.349854
464.420745	6309.920000	1654.321289	248.500580
464.420745	6309.920000	1653.291992	167.960602
464.420745	6309.920000	1652.261719	305.649261
464.420745	6309.920000	1651.232422	336.519073
464.420745	6309.920000	1650.202148	341.839630
464.420745	6309.920000	1649.171875	258.988892
464.420745	6309.920000	1648.141602	424.359711
464.420745	6309.920000	1647.111328	332.235474
464.420745	6309.920000	1646.080078	400.124878
464.420745	6309.920000	1645.049805	335.846680
464.420745	6309.920000	1644.018555	475.548859
464.420745	6309.920000	1642.987305	462.245697
464.420745	6309.920000	1641.955078	606.486877
464.420745	6309.920000	1640.923828	352.242493
464.420745	6309.920000	1639.891602	420.010223
464.420745	6309.920000	1638.859375	464.591370
464.420745	6309.920000	1637.827148	661.947144
464.420745	6309.920000	1636.794922	514.338989
464.420745	6309.920000	1635.761719	544.972900
464.420745	6309.920000	1634.729492	520.065063
464.420745	6309.920000	1633.696289	384.120483
464.420745	6309.920000	1632.662109	472.567078
464.420745	6309.920000	1631.628906	593.354553
464.420745	6309.920000	1630.594727	406.596649
464.420745	6309.920000	1629.561523	446.441895
464.420745	6309.920000	1628.527344	615.683167
464.420745	6309.920000	1627.493164	438.265045
464.420745	6309.920000	1626.458008	542.748840
464.420745	6309.920000	1625.423828	494.753754
464.420745	6309.920000	1624.388672	449.080536
464.420745	6309.920000	1623.353516	454.218140
464.420745	6309.920000	1622.318359	560.920227
464.420745	6309.920000	1621.282227	554.487915
464.420745	6309.920000	1620.247070	626.515991
464.420745	6309.920000	1619.210938	626.993713
464.420745	6309.920000	1618.174805	689.748352
464.420745	6309.920000	1617.137695	743.250061
464.420745	6309.920000	1616.101563	702.203430
464.420745	6309.920000	1615.064453	728.020142
464.420745	6309.920000	1614.027344	760.742737
464.420745	6309.920000	1612.990234	694.367615
464.420745	6309.920000	1611.953125	616.500488
464.420745	6309.920000	1610.916016	831.201233
464.420745	6309.920000	1609.877930	661.218323
464.420745	6309.920000	1608.839844	758.397095
464.420745	6309.920000	1607.801758	731.228943
464.420745	6309.920000	1606.763672	754.709839
464.420745	6309.920000	1605.724609	718.349426
464.420745	6309.920000	1604.685547	638.292480
464.420745	6309.920000	1603.646484	804.401917
464.420745	6309.920000	1602.607422	731.266907
464.420745	6309.920000	1601.568359	738.643616
464.420745	6309.920000	1600.528320	718.429993
464.420745	6309.920000	1599.489258	702.830933
464.420745	6309.920000	1598.449219	691.834534
464.420745	6309.920000	1597.408203	687.735901
464.420745	6309.920000	1596.368164	697.432373
464.420745	6309.920000	1595.327148	842.631714
464.420745	6309.920000	1594.287109	664.013916
464.420745	6309.920000	1593.246094	643.878052
464.420745	6309.920000	1592.204102	704.089722
464.420745	6309.920000	1591.163086	771.174438
464.420745	6309.920000	1590.121094	503.244965
464.420745	6309.920000	1589.079102	737.815918
464.420745	6309.920000	1588.037109	531.939270
464.420745	6309.920000	1586.995117	582.980591
464.420745	6309.920000	1585.953125	439.133545
464.420745	6309.920000	1584.910156	607.088623
464.420745	6309.920000	1583.867188	502.267242
464.420745	6309.920000	1582.824219	658.706238
464.420745	6309.920000	1581.781250	563.097839
464.420745	6309.920000	1580.737305	446.918732
464.420745	6309.920000	1579.693359	438.424225
464.420745	6309.920000	1578.649414	326.915405
464.420745	6309.920000	1577.605469	533.642029
464.420745	6309.920000	1576.561523	593.827026
464.420745	6309.920000	1575.516602	489.246521
464.420745	6309.920000	1574.472656	512.836426
464.420745	6309.920000	1573.427734	451.794769
464.420745	6309.920000	1572.381836	399.932373
464.420745	6309.920000	1571.336914	341.248505
464.420745	6309.920000	1570.291016	490.616058
464.420745	6309.920000	1569.246094	153.133392
464.420745	6309.920000	1568.200195	133.413193
464.420745	6309.920000	1567.153320	385.576874
464.420745	6309.920000	1566.107422	272.196320
464.420745	6309.920000	1565.060547	163.438492
464.420745	6309.920000	1564.013672	328.726929
464.420745	6309.920000	1562.966797	288.514069
464.420745	6309.920000	1561.919922	225.508179
464.420745	6309.920000	1560.872070	119.182381
464.420745	6309.920000	1559.825195	188.590286
464.420745	6309.920000	1558.777344	388.000153
464.420745	6309.920000	1557.729492	160.883743
464.420745	6309.920000	1556.680664	82.076546
464.420745	6309.920000	1555.632813	137.820999
464.420745	6309.920000	1554.583984	350.822510
464.420745	6309.920000	1553.535156	133.070831
464.420745	6309.920000	1552.486328	216.160965
464.420745	6309.920000	1551.436523	194.449951
464.420745	6309.920000	1550.387695	266.144440
464.420745	6309.920000	1549.337891	142.005646
464.420745	6309.920000	1548.288086	193.226868
464.420745	6309.920000	1547.238281	255.827377
464.420745	6309.920000	1546.187500	345.726379
464.420745	6309.920000	1545.136719	374.180054
464.420745	6309.920000	1544.086914	61.436241
464.420745	6309.920000	1543.035156	85.422432
464.420745	6309.920000	1541.984375	179.912811
464.420745	6309.920000	1540.933594	160.717224
464.420745	6309.920000	1539.881836	134.727112
464.420745	6309.920000	1538.830078	183.761536
464.420745	6309.920000	1537.778320	114.651817
464.420745	6309.920000	1536.725586	179.611740
464.420745	6309.920000	1535.673828	249.114395
464.420745	6309.920000	1534.621094	484.368896
464.420745	6309.920000	1533.568359	258.692719
464.420745	6309.920000	1532.515625	223.792130
464.420745	6309.920000	1531.461914	175.308792
464.420745	6309.920000	1530.409180	208.552490
464.420745	6309.920000	1529.355469	257.682220
464.420745	6309.920000	1528.301758	195.684326
464.420745	6309.920000	1527.247070	174.547653
464.420745	6309.920000	1526.193359	67.297630
464.420745	6309.920000	1525.138672	198.110550
464.420745	6309.920000	1524.083984	170.262161
464.420745	6309.920000	1523.029297	196.828384
464.420745	6309.920000	1521.974609	44.449593
464.420745	6309.920000	1520.918945	175.262772
464.420745	6309.920000	1519.863281	124.896095
464.420745	6309.920000	1518.807617	171.926941
464.420745	6309.920000	1517.751953	44.673431
464.420745	6309.920000	1516.696289	-44.029758
464.420745	6309.920000	1515.639648	202.195694
464.420745	6309.920000	1514.583008	-35.756523
464.420745	6309.920000	1513.526367	131.263687
464.420745	6309.920000	1512.469727	29.152563
464.420745	6309.920000	1511.412109	-190.457092
464.420745	6309.920000	1510.355469	5.964694
464.420745	6309.920000	1509.297852	-55.300522
464.420745	6309.920000	1508.240234	10.020144
464.420745	6309.920000	1507.181641	55.008835
464.420745	6309.920000	1506.124023	106.788063
464.420745	6309.920000	1505.065430	90.829048
464.420745	6309.920000	1504.006836	-65.072487
464.420745	6309.920000	1502.948242	77.076820
464.420745	6309.920000	1501.888672	-69.675423
464.420745	6309.920000	1500.830078	43.146030
464.420745	6309.920000	1499.770508	-56.105488
464.420745	6309.920000	1498.710938	-87.623177
464.420745	6309.920000	1497.650391	-26.643503
464.420745	6309.920000	1496.590820	-35.546455
464.420745	6309.920000	1495.530273	-197.697205
464.420745	6309.920000	1494.469727	-91.563995
464.420745	6309.920000	1493.409180	-59.797520
464.420745	6309.920000	1492.348633	-19.000624
464.420745	6309.920000	1491.287109	51.090408
464.420745	6309.920000	1490.225586	-187.322388
464.420745	6309.920000	1489.164063	-108.154854
464.420745	6309.920000	1488.102539	-1.973706
464.420745	6309.920000	1487.041016	88.444366
464.420745	6309.920000	1485.978516	-199.158752
464.420745	6309.920000	1484.916016	15.045286
464.420745	6309.920000	1483.853516	-11.441416
464.420745	6309.920000	1482.791016	-76.126015
464.420745	6309.920000	1481.727539	-35.082424
464.420745	6309.920000	1480.664063	127.350563
464.420745	6309.920000	1479.600586	-31.599846
464.420745	6309.920000	1478.537109	43.229580
464.420745	6309.920000	1477.473633	-12.224487
464.420745	6309.920000	1476.409180	-4.721831
464.420745	6309.920000	1475.344727	-109.512566
464.420745	6309.920000	1474.280273	-27.895372
464.420745	6309.920000	1473.215820	6.716308
464.420745	6309.920000	1472.151367	-104.579247
464.420745	6309.920000	1471.085938	118.211273
464.420745	6309.920000	1470.020508	-1.932450
464.420745	6309.920000	1468.955078	8.032679
464.420745	6309.920000	1467.888672	31.381794
464.420745	6309.920000	1466.823242	12.280372
464.420745	6309.920000	1465.756836	31.135511
464.420745	6309.920000	1464.690430	72.688438
464.420745	6309.920000	1463.624023	-0.102234
464.420745	6309.920000	1462.556641	59.277554
464.420745	6309.920000	1461.490234	62.847404
464.420745	6309.920000	1460.422852	-60.833874
464.420745	6309.920000	1459.355469	-41.401711
464.420745	6309.920000	1458.287109	111.483772
464.420745	6309.920000	1457.219727	177.566986
464.420745	6309.920000	1456.151367	34.021252
464.420745	6309.920000	1455.083008	142.464905
464.420745	6309.920000	1454.014648	74.753021
464.420745	6309.920000	1452.945313	116.437546
464.420745	6309.920000	1451.876953	218.597961
464.420745	6309.920000	1450.807617	59.535889
464.420745	6309.920000	1449.738281	216.507141
464.420745	6309.920000	1448.668945	81.492767
464.420745	6309.920000	1447.598633	132.491165
464.420745	6309.920000	1446.528320	219.167709
464.420745	6309.920000	1445.458008	21.715830
464.420745	6309.920000	1444.387695	115.952972
464.420745	6309.920000	1443.317383	366.533997
464.420745	6309.920000	1442.246094	228.787033
464.420745	6309.920000	1441.174805	354.958344
464.420745	6309.920000	1440.103516	146.020142
464.420745	6309.920000	1439.032227	136.149734
464.420745	6309.920000	1437.960938	146.611786
464.420745	6309.920000	1436.888672	200.216599
464.420745	6309.920000	1435.816406	247.267807
464.420745	6309.920000	1434.744141	273.126282
464.420745	6309.920000	1433.670898	74.150276
464.420745	6309.920000	1432.598633	192.976456
464.420745	6309.920000	1431.525391	146.029800
464.420745	6309.920000	1430.452148	101.107407
464.420745	6309.920000	1429.378906	115.292297
464.420745	6309.920000	1428.304688	167.610352
464.420745	6309.920000	1427.231445	137.448853
464.420745	6309.920000	1426.157227	149.126190
464.420745	6309.920000	1425.083008	-93.687698
464.420745	6309.920000	1424.007813	69.107918
464.420745	6309.920000	1422.933594	168.141220
464.420745	6309.920000	1421.858398	0.612229
464.420745	6309.920000	1420.783203	136.753220
464.420745	6309.920000	1419.708008	189.094955
464.420745	6309.920000	1418.631836	173.681671
464.420745	6309.920000	1417.555664	186.041443
464.420745	6309.920000	1416.479492	175.377380
464.420745	6309.920000	1415.403320	161.145996
464.420745	6309.920000	1414.327148	144.828232
464.420745	6309.920000	1413.250000	92.184341
464.420745	6309.920000	1412.173828	133.617111
464.420745	6309.920000	1411.096680	-112.833870
464.420745	6309.920000	1410.018555	20.652781
464.420745	6309.920000	1408.941406	1.290658
464.420745	6309.920000	1407.863281	81.708923
464.420745	6309.920000	1406.785156	40.371269
464.420745	6309.920000	1405.707031	11.831849
464.420745	6309.920000	1404.628906	159.108185
464.420745	6309.920000	1403.549805	172.175674
464.420745	6309.920000	1402.470703	134.000290
464.420745	6309.920000	1401.391602	70.406189
464.420745	6309.920000	1400.312500	5.614983
464.420745	6309.920000	1399.233398	149.448883
464.420745	6309.920000	1398.153320	272.350708
464.420745	6309.920000	1397.073242	189.769180
464.420745	6309.920000	1395.993164	52.928806
464.420745	6309.920000	1394.913086	239.608322
464.420745	6309.920000	1393.832031	128.467499
464.420745	6309.920000	1392.750977	192.423630
464.420745	6309.920000	1391.669922	75.886757
464.420745	6309.920000	1390.588867	102.387573
464.420745	6309.920000	1389.506836	163.030792
464.420745	6309.920000	1388.425781	250.480728
464.420745	6309.920000	1387.343750	211.469925
464.420745	6309.920000	1386.261719	183.809464
464.420745	6309.920000	1385.178711	190.909378
464.420745	6309.920000	1384.096680	191.873123
464.420745	6309.920000	1383.013672	99.117119
464.420745	6309.920000	1381.930664	154.014786
464.420745	6309.920000	1380.846680	138.127670
464.420745	6309.920000	1379.763672	176.520828
464.420745	6309.920000	1378.679688	233.931274
464.420745	6309.920000	1377.595703	173.810883
464.420745	6309.920000	1376.511719	123.315277
464.420745	6309.920000	1375.427734	133.837402
464.420745	6309.920000	1374.342773	195.491226
464.420745	6309.920000	1373.257813	63.056122
464.420745	6309.920000	1372.172852	179.735077
464.420745	6309.920000	1371.087891	216.701752
464.420745	6309.920000	1370.001953	60.328575
464.420745	6309.920000	1368.916992	78.203804
464.420745	6309.920000	1367.831055	124.283363
464.420745	6309.920000	1366.744141	86.492004
464.420745	6309.920000	1365.658203	151.271790
464.420745	6309.920000	1364.571289	123.461647
464.420745	6309.920000	1363.484375	111.793739
464.420745	6309.920000	1362.397461	259.637512
464.420745	6309.920000	1361.310547	183.264786
464.420745	6309.920000	1360.222656	298.592651
464.420745	6309.920000	1359.135742	190.083282
464.420745	6309.920000	1358.047852	221.378235
464.420745	6309.920000	1356.958984	197.634628
464.420745	6309.920000	1355.871094	225.594711
464.420745	6309.920000	1354.782227	247.275696
464.420745	6309.920000	1353.693359	119.490005
464.420745	6309.920000	1352.604492	211.898071
464.420745	6309.920000	1351.515625	168.152054
464.420745	6309.920000	1350.425781	226.975464
464.420745	6309.920000	1349.335938	77.313889
464.420745	6309.920000	1348.246094	214.942017
464.420745	6309.920000	1347.156250	143.896744
464.420745	6309.920000	1346.066406	177.089981
464.420745	6309.920000	1344.975586	112.705345
464.420745	6309.920000	1343.884766	92.891861
464.420745	6309.920000	1342.793945	199.290421
464.420745	6309.920000	1341.702148	65.985123
464.420745	6309.920000	1340.611328	128.787109
464.420745	6309.920000	1339.519531	98.808685
464.420745	6309.920000	1338.427734	90.227013
464.420745	6309.920000	1337.334961	-25.076334
464.420745	6309.920000	1336.243164	-25.296808
464.420745	6309.920000	1335.150391	69.104393
464.420745	6309.920000	1334.057617	37.193455
464.420745	6309.920000	1332.964844	92.401794
464.420745	6309.920000	1331.871094	-60.215065
464.420745	6309.920000	1330.778320	-46.239101
464.420745	6309.920000	1329.684570	37.838478
464.420745	6309.920000	1328.590820	141.058823
464.420745	6309.920000	1327.496094	18.777363
464.420745	6309.920000	1326.402344	12.548611
464.420745	6309.920000	1325.307617	-38.316181
464.420745	6309.920000	1324.212891	-121.074333
464.420745	6309.920000	1323.117188	23.536932
464.420745	6309.920000	1322.022461	79.976173
464.420745	6309.920000	1320.926758	54.253601
464.420745	6309.920000	1319.831055	25.619577
464.420745	6309.920000	1318.735352	201.011337
464.420745	6309.920000	1317.638672	153.012100
464.420745	6309.920000	1316.542969	138.563538
464.420745	6309.920000	1315.446289	144.278168
464.420745	6309.920000	1314.349609	140.223114
464.420745	6309.920000	1313.251953	184.422089
464.420745	6309.920000	1312.155273	128.855667
464.420745	6309.920000	1311.057617	117.285934
464.420745	6309.920000	1309.959961	112.489876
464.420745	6309.920000	1308.862305	196.482346
464.420745	6309.920000	1307.763672	22.848221
464.420745	6309.920000	1306.665039	168.557266
464.420745	6309.920000	1305.566406	40.027668
464.420745	6309.920000	1304.467773	89.953461
464.420745	6309.920000	1303.369141	62.403198
464.420745	6309.920000	1302.269531	124.803650
464.420745	6309.920000	1301.169922	10.091268
464.420745	6309.920000	1300.070313	142.827774
464.420745	6309.920000	1298.970703	-25.618479
464.420745	6309.920000	1297.870117	105.760406
464.420745	6309.920000	1296.769531	168.259674
464.420745	6309.920000	1295.668945	15.259408
464.420745	6309.920000	1294.568359	71.738785
464.420745	6309.920000	1293.466797	50.688690
464.420745	6309.920000	1292.366211	3.984858
464.420745	6309.920000	1291.264648	148.720703
464.420745	6309.920000	1290.162109	64.484360
464.420745	6309.920000	1289.060547	-195.390076
464.420745	6309.920000	1287.958008	166.479507
464.420745	6309.920000	1286.855469	27.583492
464.420745	6309.920000	1285.752930	49.851234
464.420745	6309.920000	1284.650391	-90.505173
464.420745	6309.920000	1283.546875	-12.647032
464.420745	6309.920000	1282.444336	66.483177
464.420745	6309.920000	1281.339844	-65.647598
464.420745	6309.920000	1280.236328	-23.530382
464.420745	6309.920000	1279.132813	-87.406059
464.420745	6309.920000	1278.028320	-23.035952
464.420745	6309.920000	1276.923828	-105.328781
464.420745	6309.920000	1275.819336	-70.229210
464.420745	6309.920000	1274.713867	29.922865
464.420745	6309.920000	1273.608398	19.946222
464.420745	6309.920000	1272.503906	-15.085061
464.420745	6309.920000	1271.397461	-17.045902
464.420745	6309.920000	1270.291992	-113.419945
464.420745	6309.920000	1269.185547	2.546055
464.420745	6309.920000	1268.080078	-44.827610
464.420745	6309.920000	1266.972656	21.911940
464.420745	6309.920000	1265.866211	-5.497913
464.420745	6309.920000	1264.759766	-61.319839
464.420745	6309.920000	1263.652344	8.875920
464.420745	6309.920000	1262.544922	16.469030
464.420745	6309.920000	1261.436523	-93.872444
464.420745	6309.920000	1260.329102	85.291237
464.420745	6309.920000	1259.220703	23.351730
464.420745	6309.920000	1258.112305	-9.028155
464.420745	6309.920000	1257.003906	-71.227654
464.420745	6309.920000	1255.895508	-30.932650
464.420745	6309.920000	1254.786133	-81.281166
464.420745	6309.920000	1253.676758	-46.380444
464.420745	6309.920000	1252.567383	-66.670273
464.420745	6309.920000	1251.458008	-41.490829
464.420745	6309.920000	1250.347656	-14.428346
464.420745	6309.920000	1249.237305	125.211647
464.420745	6309.920000	1248.126953	-97.745491
464.420745	6309.920000	1247.016602	5.300979
464.420745	6309.920000	1245.905273	17.679892
464.420745	6309.920000	1244.793945	-38.185795
464.420745	6309.920000	1243.682617	-24.394560
464.420745	6309.920000	1242.571289	53.921432
464.420745	6309.920000	1241.459961	75.801888
464.420745	6309.920000	1240.347656	0.908693
464.420745	6309.920000	1239.235352	7.755581
464.420745	6309.920000	1238.123047	30.632265
464.420745	6309.920000	1237.009766	58.990192
464.420745	6309.920000	1235.897461	77.832710
464.420745	6309.920000	1234.784180	118.102600
464.420745	6309.920000	1233.670898	126.819923
464.420745	6309.920000	1232.556641	219.658813
464.420745	6309.920000	1231.443359	183.842285
464.420745	6309.920000	1230.329102	185.258499
464.420745	6309.920000	1229.214844	231.255127
464.420745	6309.920000	1228.099609	216.713348
464.420745	6309.920000	1226.985352	348.332245
464.420745	6309.920000	1225.870117	331.987762
464.420745	6309.920000	1224.754883	297.532440
464.420745	6309.920000	1223.639648	284.151550
464.420745	6309.920000	1222.523438	232.825867
464.420745	6309.920000	1221.408203	216.843307
464.420745	6309.920000	1220.291992	29.698528
464.420745	6309.920000	1219.174805	77.773529
464.420745	6309.920000	1218.058594	129.937302
464.420745	6309.920000	1216.941406	51.554585
464.420745	6309.920000	1215.824219	85.811928
464.420745	6309.920000	1214.707031	26.881384
464.420745	6309.920000	1213.589844	-8.015200
464.420745	6309.920000	1212.471680	36.572708
464.420745	6309.920000	1211.353516	-22.311413
464.420745	6309.920000	1210.235352	36.236423
464.420745	6309.920000	1209.117188	86.819908
464.420745	6309.920000	1207.998047	163.356857
464.420745	6309.920000	1206.878906	10.175925
464.420745	6309.920000	1205.759766	5.819761
464.420745	6309.920000	1204.640625	100.138657
464.420745	6309.920000	1203.520508	53.511841
464.420745	6309.920000	1202.401367	39.180431
464.420745	6309.920000	1201.281250	140.992065
464.420745	6309.920000	1200.160156	27.602209
464.420745	6309.920000	1199.040039	8.167028
464.420745	6309.920000	1197.918945	-68.531281
464.420745	6309.920000	1196.797852	-91.019508
464.420745	6309.920000	1195.676758	-16.365332
464.420745	6309.920000	1194.555664	-46.507019
464.420745	6309.920000	1193.433594	-12.455497
464.420745	6309.920000	1192.311523	-126.475815
464.420745	6309.920000	1191.189453	57.138294
464.420745	6309.920000	1190.066406	77.487709
464.420745	6309.920000	1188.944336	-40.990536
464.420745	6309.920000	1187.821289	-28.805819
464.420745	6309.920000	1186.698242	-41.064461
464.420745	6309.920000	1185.574219	38.788990
464.420745	6309.920000	1184.451172	-76.588150
464.420745	6309.920000	1183.327148	-49.435291
464.420745	6309.920000	1182.203125	-64.501785
464.420745	6309.920000	1181.078125	-62.069611
464.420745	6309.920000	1179.954102	-60.365650
464.420745	6309.920000	1178.829102	-86.826637
464.420745	6309.920000	1177.704102	-85.851303
464.420745	6309.920000	1176.579102	-99.294395
464.420745	6309.920000	1175.453125	-130.191330
464.420745	6309.920000	1174.327148	25.316521
464.420745	6309.920000	1173.201172	-86.676369
464.420745	6309.920000	1172.075195	-81.940254
464.420745	6309.920000	1170.949219	-18.470991
464.420745	6309.920000	1169.822266	-44.592621
464.420745	6309.920000	1168.695313	-25.574371
464.420745	6309.920000	1167.568359	-39.085430
464.420745	6309.920000	1166.440430	-122.682770
464.420745	6309.920000	1165.313477	-194.899628
464.420745	6309.920000	1164.185547	-111.171524
464.420745	6309.920000	1163.057617	-64.814476
464.420745	6309.920000	1161.928711	-43.917255
464.420745	6309.920000	1160.800781	-51.062309
464.420745	6309.920000	1159.671875	-110.122231
464.420745	6309.920000	1158.541992	-28.506458
464.420745	6309.920000	1157.413086	-33.602055
464.420745	6309.920000	1156.283203	-124.053650
464.420745	6309.920000	1155.154297	-124.783424
464.420745	6309.920000	1154.023438	-18.814196
464.420745	6309.920000	1152.893555	137.720200
464.420745	6309.920000	1151.763672	9.992691
464.420745	6309.920000	1150.632813	78.548706
464.420745	6309.920000	1149.501953	116.693466
464.420745	6309.920000	1148.370117	94.775612
464.420745	6309.920000	1147.239258	153.012329
464.420745	6309.920000	1146.107422	227.001465
464.420745	6309.920000	1144.975586	257.643036
464.420745	6309.920000	1143.843750	74.895828
464.420745	6309.920000	1142.710938	71.674843
464.420745	6309.920000	1141.578125	140.778091
464.420745	6309.920000	1140.445313	120.623863
464.420745	6309.920000	1139.312500	215.172928
464.420745	6309.920000	1138.178711	113.155159
464.420745	6309.920000	1137.045898	60.983349
464.420745	6309.920000	1135.912109	131.972382
464.420745	6309.920000	1134.777344	147.441895
464.420745	6309.920000	1133.643555	203.267654
464.420745	6309.920000	1132.508789	151.522766
464.420745	6309.920000	1131.374023	59.363827
464.420745	6309.920000	1130.239258	87.870758
464.420745	6309.920000	1129.104492	55.408165
464.420745	6309.920000	1127.968750	214.676025
464.420745	6309.920000	1126.833008	111.324165
464.420745	6309.920000	1125.697266	44.797764
464.420745	6309.920000	1124.560547	127.802620
464.420745	6309.920000	1123.424805	4.701650
464.420745	6309.920000	1122.288086	154.859680
464.420745	6309.920000	1121.151367	157.101944
464.420745	6309.920000	1120.013672	126.741089
464.420745	6309.920000	1118.876953	119.927307
464.420745	6309.920000	1117.739258	154.223557
464.420745	6309.920000	1116.601563	-52.239227
464.420745	6309.920000	1115.462891	125.694847
464.420745	6309.920000	1114.324219	170.970749
464.420745	6309.920000	1113.186523	150.204407
464.420745	6309.920000	1112.046875	78.762497
464.420745	6309.920000	1110.908203	65.320160
464.420745	6309.920000	1109.769531	91.388725
464.420745	6309.920000	1108.629883	85.450645
464.420745	6309.920000	1107.490234	175.930511
464.420745	6309.920000	1106.349609	113.991890
464.420745	6309.920000	1105.209961	39.412868
464.420745	6309.920000	1104.069336	45.005524
464.420745	6309.920000	1102.928711	87.359566
464.420745	6309.920000	1101.787109	220.040359
464.420745	6309.920000	1100.646484	62.350075
464.420745	6309.920000	1099.504883	110.492752
464.420745	6309.920000	1098.363281	172.203201
464.420745	6309.920000	1097.221680	145.151306
464.420745	6309.920000	1096.079102	215.886719
464.420745	6309.920000	1094.936523	341.544250
464.420745	6309.920000	1093.793945	379.337219
464.420745	6309.920000	1092.651367	270.371552
464.420745	6309.920000	1091.507813	236.211533
464.420745	6309.920000	1090.364258	226.563782
464.420745	6309.920000	1089.220703	371.946838
464.420745	6309.920000	1088.077148	376.158051
464.420745	6309.920000	1086.933594	365.824371
464.420745	6309.920000	1085.789063	321.353699
464.420745	6309.920000	1084.644531	191.801468
464.420745	6309.920000	1083.499023	237.587753
464.420745	6309.920000	1082.354492	286.761017
464.420745	6309.920000	1081.208984	53.078403
464.420745	6309.920000	1080.063477	165.793198
464.420745	6309.920000	1078.917969	229.014755
464.420745	6309.920000	1077.771484	142.292038
464.420745	6309.920000	1076.625977	256.822113
464.420745	6309.920000	1075.479492	108.906906
464.420745	6309.920000	1074.332031	35.890152
464.420745	6309.920000	1073.185547	186.096497
464.420745	6309.920000	1072.038086	187.382446
464.420745	6309.920000	1070.890625	147.681625
464.420745	6309.920000	1069.743164	128.260162
464.420745	6309.920000	1068.594727	201.911499
464.420745	6309.920000	1067.447266	259.283722
464.420745	6309.920000	1066.298828	329.776184
464.420745	6309.920000	1065.149414	229.176910
464.420745	6309.920000	1064.000977	199.895889
464.420745	6309.920000	1062.851563	176.326462
464.420745	6309.920000	1061.702148	113.209518
464.420745	6309.920000	1060.552734	268.354218
464.420745	6309.920000	1059.402344	276.318512
464.420745	6309.920000	1058.252930	255.850906
464.420745	6309.920000	1057.102539	251.538956
464.420745	6309.920000	1055.951172	-9.054328
464.420745	6309.920000	1054.800781	162.659988
464.420745	6309.920000	1053.649414	-16.401531
464.420745	6309.920000	1052.498047	110.229218
464.420745	6309.920000	1051.346680	214.812088
464.420745	6309.920000	1050.194336	236.960114
464.420745	6309.920000	1049.042969	-39.789818
464.420745	6309.920000	1047.890625	87.102715
464.420745	6309.920000	1046.738281	134.885223
464.420745	6309.920000	1045.584961	102.648216
464.420745	6309.920000	1044.431641	188.961029
464.420745	6309.920000	1043.278320	126.022980
464.420745	6309.920000	1042.125000	127.828339
464.420745	6309.920000	1040.971680	229.443130
464.420745	6309.920000	1039.817383	189.413361
464.420745	6309.920000	1038.663086	334.731812
464.420745	6309.920000	1037.508789	285.542145
464.420745	6309.920000	1036.353516	173.067108
464.420745	6309.920000	1035.198242	115.753616
464.420745	6309.920000	1034.042969	71.337646
464.420745	6309.920000	1032.887695	113.153816
464.420745	6309.920000	1031.732422	333.688599
464.420745	6309.920000	1030.576172	78.335999
464.420745	6309.920000	1029.419922	51.306747
464.420745	6309.920000	1028.263672	68.642990
464.420745	6309.920000	1027.106445	34.571232
464.420745	6309.920000	1025.949219	-24.083015
464.420745	6309.920000	1024.792969	-2.853553
464.420745	6309.920000	1023.634766	149.044754
464.420745	6309.920000	1022.477539	118.699150
464.420745	6309.920000	1021.319336	15.886663
464.420745	6309.920000	1020.161133	208.390884
464.420745	6309.920000	1019.002930	160.231522
464.420745	6309.920000	1017.843750	160.839096
464.420745	6309.920000	1016.684570	78.150093
464.420745	6309.920000	1015.525391	-10.881697
464.420745	6309.920000	1014.366211	106.598389
464.420745	6309.920000	1013.207031	82.738480
464.420745	6309.920000	1012.046875	44.575485
464.420745	6309.920000	1010.886719	-14.675217
464.420745	6309.920000	1009.726563	57.956287
464.420745	6309.920000	1008.565430	91.232452
464.420745	6309.920000	1007.404297	19.814516
464.420745	6309.920000	1006.243164	73.031273
464.420745	6309.920000	1005.082031	57.181755
464.420745	6309.920000	1003.920898	-8.907193
464.420745	6309.920000	1002.758789	163.507797
464.420745	6309.920000	1001.596680	28.905405
464.420745	6309.920000	1000.433594	187.640793
464.420745	6309.920000	999.271484	113.777679
464.420745	6309.920000	998.108398	235.938766
464.420745	6309.920000	996.945313	220.160889
464.420745	6309.920000	995.782227	232.133240
464.420745	6309.920000	994.618164	167.157211
464.420745	6309.920000	993.454102	53.666168
464.420745	6309.920000	992.290039	205.968430
464.420745	6309.920000	991.125977	312.707764
464.420745	6309.920000	989.960938	178.474121
464.420745	6309.920000	988.796875	166.541382
464.420745	6309.920000	987.630859	110.560234
464.420745	6309.920000	986.465820	202.894592
464.420745	6309.920000	985.300781	41.982998
464.420745	6309.920000	984.134766	152.739090
464.420745	6309.920000	982.968750	115.907875
464.420745	6309.920000	981.801758	122.270622
464.420745	6309.920000	980.635742	86.887512
464.420745	6309.920000	979.468750	91.072830
464.420745	6309.920000	978.301758	18.496912
464.420745	6309.920000	977.133789	60.455166
464.420745	6309.920000	975.966797	11.270549
464.420745	6309.920000	974.798828	73.940369
464.420745	6309.920000	973.630859	55.546631
464.420745	6309.920000	972.461914	-11.756396
464.420745	6309.920000	971.293945	-128.549011
464.420745	6309.920000	970.125000	133.889664
464.420745	6309.920000	968.956055	216.736389
464.420745	6309.920000	967.786133	136.360748
464.420745	6309.920000	966.617188	148.649307
464.420745	6309.920000	965.447266	144.190063
464.420745	6309.920000	964.276367	90.326492
464.420745	6309.920000	963.106445	16.993555
464.420745	6309.920000	961.935547	0.225017
464.420745	6309.920000	960.764648	-51.640678
464.420745	6309.920000	959.593750	30.047100
464.420745	6309.920000	958.422852	-48.602528
464.420745	6309.920000	957.250977	-54.833332
464.420745	6309.920000	956.079102	-111.164749
464.420745	6309.920000	954.907227	43.902477
464.420745	6309.920000	953.734375	21.263723
464.420745	6309.920000	952.562500	-24.826624
464.420745	6309.920000	951.389648	117.172928
464.420745	6309.920000	950.215820	-10.358505
464.420745	6309.920000	949.042969	-44.459957
464.420745	6309.920000	947.869141	122.598991
464.420745	6309.920000	946.695313	218.248657
464.420745	6309.920000	945.521484	2.501953
464.420745	6309.920000	944.346680	-95.364418
464.420745	6309.920000	943.172852	68.829758
464.420745	6309.920000	941.998047	54.417915
464.420745	6309.920000	940.822266	-39.059700
464.420745	6309.920000	939.647461	44.529804
464.420745	6309.920000	938.471680	49.179974
464.420745	6309.920000	937.295898	-53.723782
464.420745	6309.920000	936.119141	71.592758
464.420745	6309.920000	934.943359	120.558884
464.420745	6309.920000	933.766602	93.577293
464.420745	6309.920000	932.589844	189.232635
464.420745	6309.920000	931.413086	284.883514
464.420745	6309.920000	930.235352	162.351517
464.420745	6309.920000	929.057617	61.821365
464.420745	6309.920000	927.879883	-11.675461
464.420745	6309.920000	926.702148	130.495529
464.420745	6309.920000	925.523438	128.058746
464.420745	6309.920000	924.344727	86.419594
464.420745	6309.920000	923.166016	120.725784
464.420745	6309.920000	921.987305	172.155731
464.420745	6309.920000	920.807617	132.995850
464.420745	6309.920000	919.627930	134.252136
464.420745	6309.920000	919.497070	40.144478
464.420745	6309.920000	918.331055	201.666473
464.420745	6309.920000	917.165039	111.133858
464.420745	6309.920000	915.999023	79.343231
464.420745	6309.920000	914.833008	-40.471321
464.420745	6309.920000	913.666016	-30.648895
464.420745	6309.920000	912.499023	1.172452
464.420745	6309.920000	911.332031	-59.889900
464.420745	6309.920000	910.165039	-30.514471
464.420745	6309.920000	908.997070	57.485035
464.420745	6309.920000	907.830078	1.340587
464.420745	6309.920000	906.661133	-3.492805
464.420745	6309.920000	905.493164	74.689880
464.420745	6309.920000	904.325195	-49.762466
464.420745	6309.920000	903.156250	-0.881316
464.420745	6309.920000	901.987305	187.066330
464.420745	6309.920000	900.818359	-5.628830
464.420745	6309.920000	899.648438	-22.628635
464.420745	6309.920000	898.478516	1.838472
464.420745	6309.920000	897.308594	-10.271776
464.420745	6309.920000	896.138672	-19.934317
464.420745	6309.920000	894.968750	126.383232
464.420745	6309.920000	893.797852	58.229008
464.420745	6309.920000	892.626953	-9.892562
464.420745	6309.920000	891.456055	-21.962767
464.420745	6309.920000	890.284180	39.030388
464.420745	6309.920000	889.113281	141.390503
464.420745	6309.920000	887.941406	-153.039719
464.420745	6309.920000	886.768555	-92.039436
464.420745	6309.920000	885.596680	-116.217682
464.420745	6309.920000	884.423828	76.121788
464.420745	6309.920000	883.250977	-52.648006
464.420745	6309.920000	882.078125	-3.852129
464.420745	6309.920000	880.905273	-96.073463
464.420745	6309.920000	879.731445	-13.246772
464.420745	6309.920000	878.557617	147.316376
464.420745	6309.920000	877.383789	-148.945435
464.420745	6309.920000	876.209961	-68.567719
464.420745	6309.920000	875.035156	-87.787491
464.420745	6309.920000	873.860352	26.553858
464.420745	6309.920000	872.685547	-99.478622
464.420745	6309.920000	871.510742	14.832453
464.420745	6309.920000	870.334961	-84.437408
464.420745	6309.920000	869.159180	78.362549
464.420745	6309.920000	867.983398	-110.612801
464.420745	6309.920000	866.807617	-129.744217
464.420745	6309.920000	865.630859	8.743017
464.420745	6309.920000	864.454102	-34.629757
464.420745	6309.920000	863.277344	-22.232586
464.420745	6309.920000	862.100586	-51.026340
464.420745	6309.920000	860.922852	-28.923281
464.420745	6309.920000	859.745117	-62.531025
464.420745	6309.920000	858.567383	78.242775
464.420745	6309.920000	857.389648	-42.518345
464.420745	6309.920000	856.210938	-66.393616
464.420745	6309.920000	855.032227	50.118675
464.420745	6309.920000	853.853516	-65.696762
464.420745	6309.920000	852.674805	9.658644
464.420745	6309.920000	851.495117	63.224804
464.420745	6309.920000	850.315430	46.649872
464.420745	6309.920000	849.135742	-42.440147
464.420745	6309.920000	847.956055	86.061699
464.420745	6309.920000	846.775391	-2.980932
464.420745	6309.920000	845.595703	-108.893440
464.420745	6309.920000	844.415039	34.064159
464.420745	6309.920000	843.233398	51.383102
464.420745	6309.920000	842.052734	15.578273
464.420745	6309.920000	840.871094	-10.544890
464.420745	6309.920000	839.689453	-22.166456
464.420745	6309.920000	838.506836	-77.210838
464.420745	6309.920000	837.325195	31.839212
464.420745	6309.920000	836.142578	0.945428
464.420745	6309.920000	834.959961	-56.455608
464.420745	6309.920000	833.777344	-101.768707
464.420745	6309.920000	832.593750	-84.373848
464.420745	6309.920000	831.410156	-107.951653
464.420745	6309.920000	830.226563	41.990009
464.420745	6309.920000	829.042969	-82.775459
464.420745	6309.920000	827.858398	-43.685154
464.420745	6309.920000	826.673828	-14.235184
464.420745	6309.920000	825.489258	22.433767
464.420745	6309.920000	824.304688	39.838238
464.420745	6309.920000	823.120117	13.921512
464.420745	6309.920000	821.934570	31.338314
464.420745	6309.920000	820.749023	-105.213188
464.420745	6309.920000	819.562500	42.122902
464.420745	6309.920000	818.376953	45.117947
464.420745	6309.920000	817.190430	110.632248
464.420745	6309.920000	816.003906	-83.480789
464.420745	6309.920000	814.817383	-37.177803
464.420745	6309.920000	813.629883	35.546024
464.420745	6309.920000	812.442383	-62.315800
464.420745	6309.920000	811.254883	46.424603
464.420745	6309.920000	810.067383	-36.977028
464.420745	6309.920000	808.878906	-38.707756
464.420745	6309.920000	807.690430	55.581348
464.420745	6309.920000	806.501953	-97.342262
464.420745	6309.920000	805.313477	-70.247276
464.420745	6309.920000	804.124023	-141.506805
464.420745	6309.920000	802.934570	-126.391068
464.420745	6309.920000	801.745117	-65.716644
464.420745	6309.920000	800.555664	-33.828892
464.420745	6309.920000	799.365234	218.561691
464.420745	6309.920000	798.175781	20.340462
464.420745	6309.920000	796.985352	-184.978348
464.420745	6309.920000	795.793945	28.979605
464.420745	6309.920000	794.603516	27.316442
464.420745	6309.920000	793.412109	-0.676745
464.420745	6309.920000	792.220703	31.192606
464.420745	6309.920000	791.028320	24.761847
464.420745	6309.920000	789.836914	185.836655
464.420745	6309.920000	788.644531	121.968407
464.420745	6309.920000	787.452148	0.726079
464.420745	6309.920000	786.258789	51.718513
464.420745	6309.920000	785.066406	136.163940
464.420745	6309.920000	783.873047	89.108856
464.420745	6309.920000	782.679688	281.065582
464.420745	6309.920000	781.485352	93.034035
464.420745	6309.920000	780.291992	117.693382
464.420745	6309.920000	779.097656	73.083275
464.420745	6309.920000	777.903320	23.718437
464.420745	6309.920000	776.708008	134.334167
464.420745	6309.920000	775.512695	94.530624
464.420745	6309.920000	774.318359	107.244423
464.420745	6309.920000	773.122070	148.589600
464.420745	6309.920000	771.926758	27.707462
464.420745	6309.920000	770.730469	66.668915
464.420745	6309.920000	769.534180	129.459351
464.420745	6309.920000	768.337891	-34.250084
464.420745	6309.920000	767.141602	107.189743
464.420745	6309.920000	765.944336	-11.169504
464.420745	6309.920000	764.747070	230.270844
464.420745	6309.920000	763.549805	142.900177
464.420745	6309.920000	762.351563	255.608994
464.420745	6309.920000	761.154297	11.123719
464.420745	6309.920000	759.956055	57.157307
464.420745	6309.920000	758.757813	353.067200
464.420745	6309.920000	757.558594	351.419189
464.420745	6309.920000	756.359375	190.377380
464.420745	6309.920000	755.160156	331.467834
464.420745	6309.920000	753.960938	413.046661
464.420745	6309.920000	752.761719	280.613586
464.420745	6309.920000	751.561523	302.739258
464.420745	6309.920000	750.361328	258.309448
464.420745	6309.920000	749.160156	211.519272
464.420745	6309.920000	747.959961	117.232391
464.420745	6309.920000	746.758789	127.482475
464.420745	6309.920000	745.557617	35.618668
464.420745	6309.920000	744.356445	117.091812
464.420745	6309.920000	743.154297	203.273773
464.420745	6309.920000	741.952148	144.658249
464.420745	6309.920000	740.750000	249.766388
464.420745	6309.920000	739.547852	41.713581
464.420745	6309.920000	738.344727	215.561615
464.420745	6309.920000	737.142578	185.417358
464.420745	6309.920000	735.939453	186.096588
464.420745	6309.920000	734.735352	70.636070
464.420745	6309.920000	733.532227	227.714005
464.420745	6309.920000	732.328125	162.026001
464.420745	6309.920000	731.124023	98.724960
464.420745	6309.920000	729.918945	-4.814901
464.420745	6309.920000	728.714844	149.743866
464.420745	6309.920000	727.509766	136.165634
464.420745	6309.920000	726.303711	4.254252
464.420745	6309.920000	725.098633	87.701202
464.420745	6309.920000	723.892578	135.618973
464.420745	6309.920000	722.686523	81.805031
464.420745	6309.920000	721.480469	243.182373
464.420745	6309.920000	720.274414	241.354660
464.420745	6309.920000	719.067383	149.698944
464.420745	6309.920000	717.860352	258.934601
464.420745	6309.920000	716.653320	294.869415
464.420745	6309.920000	715.445313	186.685562
464.420745	6309.920000	714.238281	26.575691
464.420745	6309.920000	713.030273	192.358643
464.420745	6309.920000	711.821289	107.828949
464.420745	6309.920000	710.613281	129.525040
464.420745	6309.920000	709.404297	139.399445
464.420745	6309.920000	708.195313	109.148239
464.420745	6309.920000	706.986328	137.859924
464.420745	6309.920000	705.776367	305.677063
464.420745	6309.920000	704.566406	58.452934
464.420745	6309.920000	703.356445	6.963105
464.420745	6309.920000	702.146484	115.732124
464.420745	6309.920000	700.935547	238.575821
464.420745	6309.920000	699.724609	189.382233
464.420745	6309.920000	698.513672	102.507469
464.420745	6309.920000	697.302734	-7.897429
464.420745	6309.920000	696.090820	112.439842
464.420745	6309.920000	694.878906	84.421555
464.420745	6309.920000	693.666992	185.822769
464.420745	6309.920000	692.455078	75.414154
464.420745	6309.920000	691.242188	26.190128
464.420745	6309.920000	690.029297	24.000797
464.420745	6309.920000	688.816406	186.378555
464.420745	6309.920000	687.602539	-20.402935
464.420745	6309.920000	686.389648	71.363869
464.420745	6309.920000	685.175781	97.276428
464.420745	6309.920000	683.960938	167.792374
464.420745	6309.920000	682.747070	43.305405
464.420745	6309.920000	681.532227	69.138458
464.420745	6309.920000	680.317383	33.893764
464.420745	6309.920000	679.102539	87.837616
464.420745	6309.920000	677.886719	249.687897
464.420745	6309.920000	676.670898	221.393585
464.420745	6309.920000	675.455078	136.786407
464.420745	6309.920000	674.239258	230.433975
464.420745	6309.920000	673.022461	101.258194
464.420745	6309.920000	671.805664	91.672005
464.420745	6309.920000	670.588867	180.504715
464.420745	6309.920000	669.372070	131.015335
464.420745	6309.920000	668.154297	172.892334
464.420745	6309.920000	666.936523	81.209381
464.420745	6309.920000	665.718750	104.289467
464.420745	6309.920000	664.500977	-3.785131
464.420745	6309.920000	663.282227	370.379547
464.420745	6309.920000	662.063477	159.261566
464.420745	6309.920000	660.844727	69.878769
464.420745	6309.920000	659.625000	53.026428
464.420745	6309.920000	658.405273	181.164169
464.420745	6309.920000	657.185547	56.670170
464.420745	6309.920000	655.965820	205.735641
464.420745	6309.920000	654.745117	-30.966270
464.420745	6309.920000	653.525391	-61.948479
464.420745	6309.920000	652.303711	77.612465
464.420745	6309.920000	651.083008	-77.244949
464.420745	6309.920000	649.861328	62.199181
464.420745	6309.920000	648.640625	168.864319
464.420745	6309.920000	647.417969	35.004284
464.420745	6309.920000	646.196289	227.924515
464.420745	6309.920000	644.973633	208.386230
464.420745	6309.920000	643.750977	102.504211
464.420745	6309.920000	642.528320	138.917465
464.420745	6309.920000	641.305664	88.999420
464.420745	6309.920000	640.082031	113.678360
464.420745	6309.920000	638.858398	142.977371
464.420745	6309.920000	637.634766	65.027725
464.420745	6309.920000	636.410156	147.850403
464.420745	6309.920000	635.185547	209.639511
464.420745	6309.920000	633.960938	187.524872
464.420745	6309.920000	632.736328	156.072800
464.420745	6309.920000	631.510742	208.411179
464.420745	6309.920000	630.285156	323.537933
464.420745	6309.920000	629.059570	215.185974
464.420745	6309.920000	627.833984	202.235611
464.420745	6309.920000	626.607422	63.650105
464.420745	6309.920000	625.380859	180.903595
464.420745	6309.920000	624.154297	153.919449
464.420745	6309.920000	622.927734	131.562378
464.420745	6309.920000	621.700195	206.793640
464.420745	6309.920000	620.472656	-57.286015
464.420745	6309.920000	619.245117	1.625214
464.420745	6309.920000	618.016602	202.158432
464.420745	6309.920000	616.788086	-140.804749
464.420745	6309.920000	615.559570	85.145416
464.420745	6309.920000	614.331055	39.392792
464.420745	6309.920000	613.101563	37.718796
464.420745	6309.920000	611.872070	177.541824
464.420745	6309.920000	610.642578	110.822937
464.420745	6309.920000	609.413086	134.547073
464.420745	6309.920000	608.182617	202.283234
464.420745	6309.920000	606.952148	14.957747
464.420745	6309.920000	605.721680	68.718712
464.420745	6309.920000	604.491211	120.107780
464.420745	6309.920000	603.259766	76.457535
464.420745	6309.920000	602.028320	-11.214217
464.420745	6309.920000	600.796875	-24.777908
464.420745	6309.920000	599.564453	-84.672478
464.420745	6309.920000	598.332031	160.972031
464.420745	6309.920000	597.099609	70.915100
464.420745	6309.920000	595.867188	108.122307
464.420745	6309.920000	594.633789	-86.044098
464.420745	6309.920000	593.400391	-11.878073
464.420745	6309.920000	592.166992	-9.454064
464.420745	6309.920000	590.933594	-9.373371
464.420745	6309.920000	589.699219	-131.821625
464.420745	6309.920000	588.464844	-37.033089
464.420745	6309.920000	587.230469	62.306511
464.420745	6309.920000	585.995117	20.675558
464.420745	6309.920000	584.760742	4.436548
464.420745	6309.920000	583.525391	20.499077
464.420745	6309.920000	582.289063	-122.750343
464.420745	6309.920000	581.053711	91.750633
464.420745	6309.920000	579.817383	54.630276
464.420745	6309.920000	578.581055	-187.812225
464.420745	6309.920000	577.343750	49.545513
464.420745	6309.920000	576.107422	-61.410721
464.420745	6309.920000	574.870117	118.131287
464.420745	6309.920000	573.631836	-80.432106
464.420745	6309.920000	572.394531	-64.626091
464.420745	6309.920000	571.156250	27.176414
464.420745	6309.920000	569.917969	109.701088
464.420745	6309.920000	568.679688	-8.187362
464.420745	6309.920000	567.440430	88.075737
464.420745	6309.920000	566.202148	43.857533
464.420745	6309.920000	564.961914	57.168949
464.420745	6309.920000	563.722656	-76.807594
464.420745	6309.920000	562.482422	-3.707906
464.420745	6309.920000	561.243164	-146.857071
464.420745	6309.920000	560.001953	45.756195
464.420745	6309.920000	558.761719	-81.291443
464.420745	6309.920000	557.520508	-10.635390
464.420745	6309.920000	556.279297	-59.524780
464.420745	6309.920000	555.038086	-69.354576
464.420745	6309.920000	553.795898	-49.338009
464.420745	6309.920000	552.554688	-1.788174
464.420745	6309.920000	551.311523	-103.521202
464.420745	6309.920000	550.069336	-72.084084
464.420745	6309.920000	548.826172	35.059502
464.420745	6309.920000	547.583984	64.127831
464.420745	6309.920000	546.339844	3.696760
464.420745	6309.920000	545.096680	-22.317171
464.420745	6309.920000	543.852539	-7.059348
464.420745	6309.920000	542.608398	21.934206
464.420745	6309.920000	541.364258	-91.207481
464.420745	6309.920000	540.119141	40.888714
464.420745	6309.920000	538.875000	78.982765
464.420745	6309.920000	537.628906	-31.845264
464.420745	6309.920000	536.383789	8.515740
464.420745	6309.920000	535.137695	25.952034
464.420745	6309.920000	533.892578	-57.349602
464.420745	6309.920000	532.645508	-10.172434
464.420745	6309.920000	531.399414	11.808588
464.420745	6309.920000	530.152344	-25.708792
464.420745	6309.920000	528.905273	-74.652092
464.420745	6309.920000	527.658203	9.049631
464.420745	6309.920000	526.410156	26.408140
464.420745	6309.920000	525.163086	-100.245186
464.420745	6309.920000	523.914063	-64.598488
464.420745	6309.920000	522.666016	-60.955051
464.420745	6309.920000	521.416992	6.641601
464.420745	6309.920000	520.167969	55.937298
464.420745	6309.920000	518.918945	-6.670379
464.420745	6309.920000	517.669922	49.453457
464.420745	6309.920000	516.419922	-67.903580
464.420745	6309.920000	515.169922	-137.291580
464.420745	6309.920000	513.919922	51.140133
464.420745	6309.920000	512.668945	61.586395
464.420745	6309.920000	511.417969	19.583027
464.420745	6309.920000	510.166992	64.234108
464.420745	6309.920000	508.916016	-91.713730
464.420745	6309.920000	507.664063	5.361577
464.420745	6309.920000	506.412109	-16.075500
464.420745	6309.920000	505.160156	42.227509
464.420745	6309.920000	503.907227	-86.237740
464.420745	6309.920000	502.655273	-39.317795
464.420745	6309.920000	501.402344	30.350489
464.420745	6309.920000	500.148438	2.129895
464.420745	6309.920000	498.895508	-10.142128
464.420745	6309.920000	497.641602	-24.677637
464.420745	6309.920000	496.387695	-46.021599
464.420745	6309.920000	495.132813	-21.870413
464.420745	6309.920000	493.878906	-79.564507
464.420745	6309.920000	492.624023	-114.495636
464.420745	6309.920000	491.368164	93.754005
464.420745	6309.920000	490.113281	8.835593
464.420745	6309.920000	488.857422	12.552156
464.420745	6309.920000	487.601563	-106.358765
464.420745	6309.920000	486.344727	58.609432
464.420745	6309.920000	485.088867	-71.588554
464.420745	6309.920000	483.832031	-4.268866
464.420745	6309.920000	482.575195	-18.653112
464.420745	6309.920000	481.317383	-175.942780
464.420745	6309.920000	480.059570	59.227871
464.420745	6309.920000	478.801758	17.660105
464.420745	6309.920000	477.543945	109.881752
464.420745	6309.920000	476.285156	-110.721855
464.420745	6309.920000	475.027344	90.285469
464.420745	6309.920000	473.767578	-10.117974
464.420745	6309.920000	472.508789	129.642426
464.420745	6309.920000	471.249023	79.118523
464.420745	6309.920000	469.989258	98.816727
464.420745	6309.920000	468.729492	-19.568928
464.420745	6309.920000	467.469727	13.741467
464.420745	6309.920000	466.208984	62.884907
464.420745	6309.920000	464.948242	26.051178
464.420745	6309.920000	463.686523	120.422104
464.420745	6309.920000	462.425781	27.076775
464.420745	6309.920000	461.164063	-14.224758
464.420745	6309.920000	459.901367	129.840073
464.420745	6309.920000	458.639648	-10.883732
464.420745	6309.920000	457.376953	-90.542046
464.420745	6309.920000	456.114258	1.508562
464.420745	6309.920000	454.851563	152.239304
464.420745	6309.920000	453.587891	90.668472
464.420745	6309.920000	452.324219	38.155071
464.420745	6309.920000	451.060547	182.011429
464.420745	6309.920000	449.796875	9.912079
464.420745	6309.920000	448.532227	13.842296
464.420745	6309.920000	447.267578	85.428848
464.420745	6309.920000	446.002930	39.723976
464.420745	6309.920000	444.737305	66.171669
464.420745	6309.920000	443.471680	31.743168
464.420745	6309.920000	442.206055	80.696999
464.420745	6309.920000	440.940430	5.704189
464.420745	6309.920000	439.673828	86.149734
464.420745	6309.920000	438.407227	159.787735
464.420745	6309.920000	437.140625	138.812866
464.420745	6309.920000	435.873047	169.598541
464.420745	6309.920000	434.605469	31.558264
464.420745	6309.920000	433.337891	129.806793
464.420745	6309.920000	432.070313	63.767365
464.420745	6309.920000	430.801758	-4.524022
464.420745	6309.920000	429.533203	64.343315
464.420745	6309.920000	428.264648	-1.740451
464.420745	6309.920000	426.996094	183.896469
464.420745	6309.920000	425.726563	131.214798
464.420745	6309.920000	424.457031	60.536892
464.420745	6309.920000	423.186523	212.206924
464.420745	6309.920000	421.916992	226.775253
464.420745	6309.920000	420.646484	178.414230
464.420745	6309.920000	419.375977	192.864777
464.420745	6309.920000	418.104492	104.010353
464.420745	6309.920000	416.833008	214.815308
464.420745	6309.920000	415.561523	307.553711
464.420745	6309.920000	414.290039	346.349121
464.420745	6309.920000	413.017578	156.334579
464.420745	6309.920000	411.746094	80.647507
464.420745	6309.920000	410.472656	40.758270
464.420745	6309.920000	409.200195	61.292511
464.420745	6309.920000	407.926758	139.961365
464.420745	6309.920000	406.653320	205.049149
464.420745	6309.920000	405.379883	236.405731
464.420745	6309.920000	404.105469	240.761093
464.420745	6309.920000	402.831055	142.024719
464.420745	6309.920000	401.556641	168.520035
464.420745	6309.920000	400.282227	342.533661
464.420745	6309.920000	399.006836	236.711868
464.420745	6309.920000	397.731445	168.803543
464.420745	6309.920000	396.456055	118.653297
464.420745	6309.920000	395.179688	-155.188354
464.420745	6309.920000	393.903320	78.250336
464.420745	6309.920000	392.626953	92.428535
464.420745	6309.920000	391.350586	249.385757
464.420745	6309.920000	390.073242	86.683266
464.420745	6309.920000	388.795898	133.748932
464.420745	6309.920000	387.518555	35.464828
464.420745	6309.920000	386.240234	-2.739401
464.420745	6309.920000	384.961914	-72.401970
464.420745	6309.920000	383.683594	-21.799295
464.420745	6309.920000	382.405273	-4.929259
464.420745	6309.920000	381.125977	170.003189
464.420745	6309.920000	379.846680	201.890610
464.420745	6309.920000	378.567383	104.191338
464.420745	6309.920000	377.287109	173.383011
464.420745	6309.920000	376.006836	88.495628
464.420745	6309.920000	374.726563	226.095551
464.420745	6309.920000	373.446289	280.900665
464.420745	6309.920000	372.165039	21.367863
464.420745	6309.920000	370.883789	-26.914551
464.420745	6309.920000	369.602539	207.126343
464.420745	6309.920000	368.320313	131.367477
464.420745	6309.920000	367.039063	28.558760
464.420745	6309.920000	365.755859	-61.282562
464.420745	6309.920000	364.473633	13.062986
464.420745	6309.920000	363.190430	-15.340971
464.420745	6309.920000	361.907227	158.093948
464.420745	6309.920000	360.624023	242.092560
464.420745	6309.920000	359.340820	78.946625
464.420745	6309.920000	358.056641	55.309795
464.420745	6309.920000	356.772461	51.157032
464.420745	6309.920000	355.487305	-91.202423
464.420745	6309.920000	354.202148	36.781544
464.420745	6309.920000	352.916992	113.095520
464.420745	6309.920000	351.631836	-37.542381
464.420745	6309.920000	350.346680	70.843376
464.420745	6309.920000	349.060547	182.982056
464.420745	6309.920000	347.774414	-44.849190
464.420745	6309.920000	346.487305	88.117538
464.420745	6309.920000	345.200195	-45.642345
464.420745	6309.920000	343.913086	-38.220043
464.420745	6309.920000	342.625977	10.569167
464.420745	6309.920000	341.338867	-47.733524
464.420745	6309.920000	340.050781	-35.929756
464.420745	6309.920000	338.762695	-42.637173
464.420745	6309.920000	337.473633	-25.825668
464.420745	6309.920000	336.184570	-76.257301
464.420745	6309.920000	334.895508	-76.640030
464.420745	6309.920000	333.606445	-55.791199
464.420745	6309.920000	332.317383	-142.028198
464.420745	6309.920000	331.027344	-54.503693
464.420745	6309.920000	329.736328	-47.595478
464.420745	6309.920000	328.446289	-8.510533
464.420745	6309.920000	327.155273	7.412099
464.420745	6309.920000	325.864258	-35.167351
464.420745	6309.920000	324.573242	-52.304111
464.420745	6309.920000	323.281250	-10.947173
464.420745	6309.920000	321.989258	137.433823
464.420745	6309.920000	320.697266	-42.115211
464.420745	6309.920000	319.405273	-6.515734
464.420745	6309.920000	318.112305	78.547646
464.420745	6309.920000	316.819336	-40.642918
464.420745	6309.920000	315.526367	6.526706
464.420745	6309.920000	314.232422	103.016830
464.420745	6309.920000	312.938477	30.548847
464.420745	6309.920000	311.644531	-67.543541
464.420745	6309.920000	310.349609	-56.902016
464.420745	6309.920000	309.054688	-1.488409
464.420745	6309.920000	307.759766	184.528793
464.420745	6309.920000	306.464844	58.409084
464.420745	6309.920000	305.168945	-29.670668
464.420745	6309.920000	303.873047	107.356934
464.420745	6309.920000	302.577148	40.180191
464.420745	6309.920000	301.281250	288.125305
464.420745	6309.920000	299.984375	294.382324
