#X		#Y		#Wave		#Intensity
119.775532	5543.591667	1999.946289	40.517551
119.775532	5543.591667	1998.981445	-82.965843
119.775532	5543.591667	1998.017578	27.955568
119.775532	5543.591667	1997.052734	141.255630
119.775532	5543.591667	1996.088867	78.541435
119.775532	5543.591667	1995.124023	-51.089939
119.775532	5543.591667	1994.159180	52.084160
119.775532	5543.591667	1993.193359	-52.841156
119.775532	5543.591667	1992.228516	8.098474
119.775532	5543.591667	1991.262695	133.323364
119.775532	5543.591667	1990.296875	-45.961781
119.775532	5543.591667	1989.331055	-42.121494
119.775532	5543.591667	1988.365234	122.477699
119.775532	5543.591667	1987.398438	61.877747
119.775532	5543.591667	1986.432617	8.673386
119.775532	5543.591667	1985.465820	54.347198
119.775532	5543.591667	1984.499023	-125.005295
119.775532	5543.591667	1983.532227	51.588631
119.775532	5543.591667	1982.565430	10.606593
119.775532	5543.591667	1981.597656	-74.875664
119.775532	5543.591667	1980.629883	76.782890
119.775532	5543.591667	1979.662109	94.974358
119.775532	5543.591667	1978.694336	11.875478
119.775532	5543.591667	1977.726563	-34.195904
119.775532	5543.591667	1976.758789	33.263096
119.775532	5543.591667	1975.790039	26.620371
119.775532	5543.591667	1974.821289	-76.289551
119.775532	5543.591667	1973.852539	15.706069
119.775532	5543.591667	1972.883789	85.434273
119.775532	5543.591667	1971.915039	31.794828
119.775532	5543.591667	1970.945313	-85.965218
119.775532	5543.591667	1969.975586	-70.588409
119.775532	5543.591667	1969.005859	8.838153
119.775532	5543.591667	1968.036133	1.953927
119.775532	5543.591667	1967.066406	14.754788
119.775532	5543.591667	1966.096680	57.084259
119.775532	5543.591667	1965.125977	91.981598
119.775532	5543.591667	1964.155273	67.738533
119.775532	5543.591667	1963.184570	-106.706245
119.775532	5543.591667	1962.213867	-101.414566
119.775532	5543.591667	1961.242188	39.213245
119.775532	5543.591667	1960.271484	14.899768
119.775532	5543.591667	1959.299805	-93.076332
119.775532	5543.591667	1958.328125	-90.345146
119.775532	5543.591667	1957.356445	91.893257
119.775532	5543.591667	1956.384766	40.451488
119.775532	5543.591667	1955.412109	148.802536
119.775532	5543.591667	1954.439453	119.448654
119.775532	5543.591667	1953.467773	65.512299
119.775532	5543.591667	1952.495117	119.685318
119.775532	5543.591667	1951.521484	63.272396
119.775532	5543.591667	1950.548828	-27.522158
119.775532	5543.591667	1949.575195	78.151573
119.775532	5543.591667	1948.601563	4.539050
119.775532	5543.591667	1947.627930	-0.329941
119.775532	5543.591667	1946.654297	53.690094
119.775532	5543.591667	1945.680664	24.243662
119.775532	5543.591667	1944.706055	4.605668
119.775532	5543.591667	1943.732422	198.365326
119.775532	5543.591667	1942.757813	87.931808
119.775532	5543.591667	1941.783203	41.277191
119.775532	5543.591667	1940.807617	153.976563
119.775532	5543.591667	1939.833008	107.300362
119.775532	5543.591667	1938.857422	53.275787
119.775532	5543.591667	1937.881836	183.022369
119.775532	5543.591667	1936.906250	55.487720
119.775532	5543.591667	1935.930664	158.220062
119.775532	5543.591667	1934.955078	57.651382
119.775532	5543.591667	1933.978516	18.316101
119.775532	5543.591667	1933.001953	-16.118887
119.775532	5543.591667	1932.025391	69.372612
119.775532	5543.591667	1931.048828	115.670792
119.775532	5543.591667	1930.072266	86.099182
119.775532	5543.591667	1929.094727	29.620838
119.775532	5543.591667	1928.118164	110.110802
119.775532	5543.591667	1927.140625	112.314674
119.775532	5543.591667	1926.163086	-12.616277
119.775532	5543.591667	1925.184570	62.918140
119.775532	5543.591667	1924.207031	96.873573
119.775532	5543.591667	1923.228516	72.166412
119.775532	5543.591667	1922.250000	52.345890
119.775532	5543.591667	1921.271484	-13.880749
119.775532	5543.591667	1920.292969	-9.272567
119.775532	5543.591667	1919.314453	102.753159
119.775532	5543.591667	1918.334961	-9.848999
119.775532	5543.591667	1917.355469	14.257776
119.775532	5543.591667	1916.375977	-64.137764
119.775532	5543.591667	1915.396484	103.899139
119.775532	5543.591667	1914.416992	-111.093765
119.775532	5543.591667	1913.436523	32.486961
119.775532	5543.591667	1912.457031	-45.878063
119.775532	5543.591667	1911.476563	56.181419
119.775532	5543.591667	1910.496094	-129.418671
119.775532	5543.591667	1909.515625	-10.334466
119.775532	5543.591667	1908.534180	101.388504
119.775532	5543.591667	1907.552734	-52.465706
119.775532	5543.591667	1906.572266	-35.773655
119.775532	5543.591667	1905.590820	-45.881474
119.775532	5543.591667	1904.608398	-4.863780
119.775532	5543.591667	1903.626953	-41.760452
119.775532	5543.591667	1902.644531	47.907051
119.775532	5543.591667	1901.663086	54.804913
119.775532	5543.591667	1900.680664	-67.248520
119.775532	5543.591667	1899.698242	29.656300
119.775532	5543.591667	1898.714844	68.151955
119.775532	5543.591667	1897.732422	-109.774071
119.775532	5543.591667	1896.749023	30.828352
119.775532	5543.591667	1895.765625	13.384887
119.775532	5543.591667	1894.782227	22.674875
119.775532	5543.591667	1893.798828	148.582642
119.775532	5543.591667	1892.814453	-24.358879
119.775532	5543.591667	1891.831055	52.926174
119.775532	5543.591667	1890.846680	-20.379700
119.775532	5543.591667	1889.862305	35.014866
119.775532	5543.591667	1888.877930	44.263706
119.775532	5543.591667	1887.892578	70.491997
119.775532	5543.591667	1886.908203	159.797104
119.775532	5543.591667	1885.922852	108.351692
119.775532	5543.591667	1884.937500	71.475471
119.775532	5543.591667	1883.952148	-11.469265
119.775532	5543.591667	1882.965820	-38.620552
119.775532	5543.591667	1881.980469	-17.279455
119.775532	5543.591667	1880.994141	-88.056053
119.775532	5543.591667	1880.007813	-10.987106
119.775532	5543.591667	1879.021484	148.426880
119.775532	5543.591667	1878.035156	38.888046
119.775532	5543.591667	1877.047852	-94.835442
119.775532	5543.591667	1876.061523	74.178040
119.775532	5543.591667	1875.074219	49.437485
119.775532	5543.591667	1874.086914	-23.710075
119.775532	5543.591667	1873.098633	26.591393
119.775532	5543.591667	1872.111328	11.539400
119.775532	5543.591667	1871.123047	49.710785
119.775532	5543.591667	1870.135742	-37.912266
119.775532	5543.591667	1869.147461	-149.691895
119.775532	5543.591667	1868.158203	-75.258530
119.775532	5543.591667	1867.169922	54.745033
119.775532	5543.591667	1866.180664	-83.591225
119.775532	5543.591667	1865.192383	-74.470154
119.775532	5543.591667	1864.203125	-62.942917
119.775532	5543.591667	1863.213867	86.265274
119.775532	5543.591667	1862.223633	109.822876
119.775532	5543.591667	1861.234375	-23.588160
119.775532	5543.591667	1860.244141	188.283707
119.775532	5543.591667	1859.253906	-116.483521
119.775532	5543.591667	1858.263672	88.075920
119.775532	5543.591667	1857.273438	-4.232847
119.775532	5543.591667	1856.282227	-26.552908
119.775532	5543.591667	1855.291992	-157.407364
119.775532	5543.591667	1854.300781	18.045612
119.775532	5543.591667	1853.309570	2.951416
119.775532	5543.591667	1852.317383	240.972122
119.775532	5543.591667	1851.326172	158.345886
119.775532	5543.591667	1850.333984	61.285107
119.775532	5543.591667	1849.342773	87.130486
119.775532	5543.591667	1848.350586	79.234535
119.775532	5543.591667	1847.357422	121.910156
119.775532	5543.591667	1846.365234	51.393600
119.775532	5543.591667	1845.372070	103.676498
119.775532	5543.591667	1844.379883	110.202156
119.775532	5543.591667	1843.386719	-30.082258
119.775532	5543.591667	1842.393555	10.138140
119.775532	5543.591667	1841.399414	26.278782
119.775532	5543.591667	1840.406250	102.538857
119.775532	5543.591667	1839.412109	15.239047
119.775532	5543.591667	1838.417969	31.350979
119.775532	5543.591667	1837.423828	35.430737
119.775532	5543.591667	1836.429688	-66.246849
119.775532	5543.591667	1835.434570	65.190659
119.775532	5543.591667	1834.440430	21.192499
119.775532	5543.591667	1833.445313	104.509476
119.775532	5543.591667	1832.450195	34.087852
119.775532	5543.591667	1831.454102	50.123775
119.775532	5543.591667	1830.458984	154.974258
119.775532	5543.591667	1829.462891	77.358788
119.775532	5543.591667	1828.466797	112.554718
119.775532	5543.591667	1827.470703	-51.412621
119.775532	5543.591667	1826.474609	67.739891
119.775532	5543.591667	1825.478516	45.334457
119.775532	5543.591667	1824.481445	-53.807335
119.775532	5543.591667	1823.484375	-71.403221
119.775532	5543.591667	1822.487305	136.322617
119.775532	5543.591667	1821.490234	101.905754
119.775532	5543.591667	1820.493164	-40.332600
119.775532	5543.591667	1819.495117	92.977959
119.775532	5543.591667	1818.498047	-85.149643
119.775532	5543.591667	1817.500000	103.184113
119.775532	5543.591667	1816.500977	157.353180
119.775532	5543.591667	1815.502930	41.529682
119.775532	5543.591667	1814.504883	-16.815878
119.775532	5543.591667	1813.505859	101.931473
119.775532	5543.591667	1812.506836	201.485229
119.775532	5543.591667	1811.507813	-2.801154
119.775532	5543.591667	1810.508789	46.493656
119.775532	5543.591667	1809.508789	12.068601
119.775532	5543.591667	1808.508789	37.416016
119.775532	5543.591667	1807.508789	84.257530
119.775532	5543.591667	1806.508789	11.581362
119.775532	5543.591667	1805.508789	51.224869
119.775532	5543.591667	1804.508789	-4.712396
119.775532	5543.591667	1803.507813	-27.200468
119.775532	5543.591667	1802.506836	36.279404
119.775532	5543.591667	1801.505859	104.501099
119.775532	5543.591667	1800.504883	50.945526
119.775532	5543.591667	1799.502930	-21.694290
119.775532	5543.591667	1798.501953	-44.202976
119.775532	5543.591667	1797.500000	-45.242786
119.775532	5543.591667	1796.498047	-105.924309
119.775532	5543.591667	1795.496094	43.275852
119.775532	5543.591667	1794.493164	211.482819
119.775532	5543.591667	1793.491211	2.954532
119.775532	5543.591667	1792.488281	-83.947411
119.775532	5543.591667	1791.485352	200.929626
119.775532	5543.591667	1790.482422	92.560242
119.775532	5543.591667	1789.478516	208.142731
119.775532	5543.591667	1788.475586	109.320900
119.775532	5543.591667	1787.471680	-10.906543
119.775532	5543.591667	1786.467773	35.557926
119.775532	5543.591667	1785.463867	-58.444901
119.775532	5543.591667	1784.459961	92.706535
119.775532	5543.591667	1783.455078	3.465904
119.775532	5543.591667	1782.450195	76.020103
119.775532	5543.591667	1781.445313	-39.367214
119.775532	5543.591667	1780.440430	144.918198
119.775532	5543.591667	1779.435547	217.375351
119.775532	5543.591667	1778.429688	54.451519
119.775532	5543.591667	1777.424805	55.576809
119.775532	5543.591667	1776.418945	139.859161
119.775532	5543.591667	1775.413086	19.778534
119.775532	5543.591667	1774.406250	115.890572
119.775532	5543.591667	1773.400391	19.589308
119.775532	5543.591667	1772.393555	56.283428
119.775532	5543.591667	1771.386719	57.343044
119.775532	5543.591667	1770.379883	96.369728
119.775532	5543.591667	1769.373047	95.028511
119.775532	5543.591667	1768.365234	41.476578
119.775532	5543.591667	1767.358398	73.337570
119.775532	5543.591667	1766.350586	36.392635
119.775532	5543.591667	1765.342773	18.422588
119.775532	5543.591667	1764.334961	-4.292280
119.775532	5543.591667	1763.326172	-69.678322
119.775532	5543.591667	1762.318359	21.371117
119.775532	5543.591667	1761.309570	74.461311
119.775532	5543.591667	1760.300781	120.414154
119.775532	5543.591667	1759.291016	92.910217
119.775532	5543.591667	1758.282227	81.986374
119.775532	5543.591667	1757.272461	-52.066582
119.775532	5543.591667	1756.262695	45.913605
119.775532	5543.591667	1755.252930	-50.232216
119.775532	5543.591667	1754.243164	71.354393
119.775532	5543.591667	1753.233398	-100.488167
119.775532	5543.591667	1752.222656	-52.289337
119.775532	5543.591667	1751.211914	50.276287
119.775532	5543.591667	1750.201172	13.284422
119.775532	5543.591667	1749.190430	-85.169670
119.775532	5543.591667	1748.179688	64.588356
119.775532	5543.591667	1747.167969	-78.760513
119.775532	5543.591667	1746.156250	-18.867392
119.775532	5543.591667	1745.144531	24.457706
119.775532	5543.591667	1744.132813	37.052723
119.775532	5543.591667	1743.121094	94.500229
119.775532	5543.591667	1742.108398	-27.518833
119.775532	5543.591667	1741.095703	15.734612
119.775532	5543.591667	1740.083008	4.681520
119.775532	5543.591667	1739.070313	36.096363
119.775532	5543.591667	1738.057617	50.975788
119.775532	5543.591667	1737.043945	127.164284
119.775532	5543.591667	1736.030273	198.598236
119.775532	5543.591667	1735.016602	-107.253059
119.775532	5543.591667	1734.002930	-123.041382
119.775532	5543.591667	1732.989258	151.066849
119.775532	5543.591667	1731.974609	57.451717
119.775532	5543.591667	1730.959961	39.256214
119.775532	5543.591667	1729.945313	-99.074280
119.775532	5543.591667	1728.930664	-46.597301
119.775532	5543.591667	1727.916016	-10.631132
119.775532	5543.591667	1726.900391	135.958221
119.775532	5543.591667	1725.885742	-14.087705
119.775532	5543.591667	1724.870117	24.177696
119.775532	5543.591667	1723.853516	57.711521
119.775532	5543.591667	1722.837891	53.588848
119.775532	5543.591667	1721.822266	-94.009460
119.775532	5543.591667	1720.805664	-41.684303
119.775532	5543.591667	1719.789063	59.985699
119.775532	5543.591667	1718.772461	-2.933432
119.775532	5543.591667	1717.754883	-25.886362
119.775532	5543.591667	1716.738281	19.306559
119.775532	5543.591667	1715.720703	40.979053
119.775532	5543.591667	1714.703125	22.706354
119.775532	5543.591667	1713.685547	25.568644
119.775532	5543.591667	1712.667969	-9.143445
119.775532	5543.591667	1711.649414	-250.428802
119.775532	5543.591667	1710.630859	127.981697
119.775532	5543.591667	1709.612305	173.029068
119.775532	5543.591667	1708.593750	112.477592
119.775532	5543.591667	1707.575195	-74.722923
119.775532	5543.591667	1706.555664	19.564375
119.775532	5543.591667	1705.536133	144.290756
119.775532	5543.591667	1704.516602	-7.665245
119.775532	5543.591667	1703.497070	-126.755165
119.775532	5543.591667	1702.477539	98.675407
119.775532	5543.591667	1701.457031	92.058228
119.775532	5543.591667	1700.437500	10.480359
119.775532	5543.591667	1699.416992	-61.706543
119.775532	5543.591667	1698.395508	72.187576
119.775532	5543.591667	1697.375000	56.193169
119.775532	5543.591667	1696.354492	-15.976768
119.775532	5543.591667	1695.333008	-76.426140
119.775532	5543.591667	1694.311523	-1.148439
119.775532	5543.591667	1693.290039	57.720238
119.775532	5543.591667	1692.267578	142.286438
119.775532	5543.591667	1691.246094	86.510811
119.775532	5543.591667	1690.223633	9.706898
119.775532	5543.591667	1689.201172	-39.020630
119.775532	5543.591667	1688.178711	26.784428
119.775532	5543.591667	1687.155273	148.637283
119.775532	5543.591667	1686.132813	162.976685
119.775532	5543.591667	1685.109375	-23.572355
119.775532	5543.591667	1684.085938	63.178852
119.775532	5543.591667	1683.062500	191.920883
119.775532	5543.591667	1682.039063	33.476627
119.775532	5543.591667	1681.014648	45.466789
119.775532	5543.591667	1679.990234	15.446264
119.775532	5543.591667	1678.965820	155.747726
119.775532	5543.591667	1677.941406	104.718002
119.775532	5543.591667	1676.916992	-6.930831
119.775532	5543.591667	1675.891602	161.264191
119.775532	5543.591667	1674.866211	17.001549
119.775532	5543.591667	1673.840820	133.844864
119.775532	5543.591667	1672.815430	26.925161
119.775532	5543.591667	1671.790039	71.489670
119.775532	5543.591667	1670.763672	202.223038
119.775532	5543.591667	1669.737305	-21.107393
119.775532	5543.591667	1668.710938	11.790518
119.775532	5543.591667	1667.684570	126.158638
119.775532	5543.591667	1666.658203	224.188049
119.775532	5543.591667	1665.630859	103.416924
119.775532	5543.591667	1664.603516	26.899706
119.775532	5543.591667	1663.576172	152.802582
119.775532	5543.591667	1662.548828	139.103729
119.775532	5543.591667	1661.520508	90.525444
119.775532	5543.591667	1660.493164	204.717422
119.775532	5543.591667	1659.464844	165.443375
119.775532	5543.591667	1658.436523	140.129333
119.775532	5543.591667	1657.408203	33.498604
119.775532	5543.591667	1656.378906	82.560089
119.775532	5543.591667	1655.350586	119.992302
119.775532	5543.591667	1654.321289	97.029198
119.775532	5543.591667	1653.291992	-9.510159
119.775532	5543.591667	1652.261719	174.163437
119.775532	5543.591667	1651.232422	76.936958
119.775532	5543.591667	1650.202148	160.745071
119.775532	5543.591667	1649.171875	242.202744
119.775532	5543.591667	1648.141602	77.753998
119.775532	5543.591667	1647.111328	284.434174
119.775532	5543.591667	1646.080078	89.900139
119.775532	5543.591667	1645.049805	266.365540
119.775532	5543.591667	1644.018555	141.449127
119.775532	5543.591667	1642.987305	313.204346
119.775532	5543.591667	1641.955078	253.203629
119.775532	5543.591667	1640.923828	471.206451
119.775532	5543.591667	1639.891602	239.821365
119.775532	5543.591667	1638.859375	341.968506
119.775532	5543.591667	1637.827148	92.185165
119.775532	5543.591667	1636.794922	113.316711
119.775532	5543.591667	1635.761719	247.837494
119.775532	5543.591667	1634.729492	181.016678
119.775532	5543.591667	1633.696289	158.176285
119.775532	5543.591667	1632.662109	234.799423
119.775532	5543.591667	1631.628906	165.719208
119.775532	5543.591667	1630.594727	263.129272
119.775532	5543.591667	1629.561523	203.327026
119.775532	5543.591667	1628.527344	286.836243
119.775532	5543.591667	1627.493164	118.462204
119.775532	5543.591667	1626.458008	243.546982
119.775532	5543.591667	1625.423828	299.301056
119.775532	5543.591667	1624.388672	267.284821
119.775532	5543.591667	1623.353516	184.493500
119.775532	5543.591667	1622.318359	161.758347
119.775532	5543.591667	1621.282227	-8.670363
119.775532	5543.591667	1620.247070	167.097473
119.775532	5543.591667	1619.210938	213.608170
119.775532	5543.591667	1618.174805	133.246567
119.775532	5543.591667	1617.137695	140.554016
119.775532	5543.591667	1616.101563	217.039169
119.775532	5543.591667	1615.064453	196.680588
119.775532	5543.591667	1614.027344	236.261948
119.775532	5543.591667	1612.990234	301.183838
119.775532	5543.591667	1611.953125	264.718414
119.775532	5543.591667	1610.916016	117.711578
119.775532	5543.591667	1609.877930	141.188599
119.775532	5543.591667	1608.839844	302.817444
119.775532	5543.591667	1607.801758	280.225708
119.775532	5543.591667	1606.763672	156.380890
119.775532	5543.591667	1605.724609	278.817596
119.775532	5543.591667	1604.685547	306.886810
119.775532	5543.591667	1603.646484	341.855377
119.775532	5543.591667	1602.607422	176.734619
119.775532	5543.591667	1601.568359	239.328491
119.775532	5543.591667	1600.528320	166.268311
119.775532	5543.591667	1599.489258	201.279221
119.775532	5543.591667	1598.449219	192.622314
119.775532	5543.591667	1597.408203	243.714294
119.775532	5543.591667	1596.368164	322.366150
119.775532	5543.591667	1595.327148	371.139343
119.775532	5543.591667	1594.287109	227.022537
119.775532	5543.591667	1593.246094	496.215424
119.775532	5543.591667	1592.204102	368.216736
119.775532	5543.591667	1591.163086	302.245056
119.775532	5543.591667	1590.121094	353.326813
119.775532	5543.591667	1589.079102	257.584290
119.775532	5543.591667	1588.037109	393.541595
119.775532	5543.591667	1586.995117	435.441101
119.775532	5543.591667	1585.953125	410.849823
119.775532	5543.591667	1584.910156	218.947205
119.775532	5543.591667	1583.867188	402.983368
119.775532	5543.591667	1582.824219	195.145523
119.775532	5543.591667	1581.781250	221.071503
119.775532	5543.591667	1580.737305	256.160492
119.775532	5543.591667	1579.693359	208.811050
119.775532	5543.591667	1578.649414	241.628281
119.775532	5543.591667	1577.605469	356.853088
119.775532	5543.591667	1576.561523	256.916809
119.775532	5543.591667	1575.516602	115.845085
119.775532	5543.591667	1574.472656	231.071915
119.775532	5543.591667	1573.427734	403.448334
119.775532	5543.591667	1572.381836	216.737274
119.775532	5543.591667	1571.336914	297.624512
119.775532	5543.591667	1570.291016	417.354248
119.775532	5543.591667	1569.246094	431.922821
119.775532	5543.591667	1568.200195	599.596924
119.775532	5543.591667	1567.153320	403.969086
119.775532	5543.591667	1566.107422	377.463196
119.775532	5543.591667	1565.060547	357.832916
119.775532	5543.591667	1564.013672	399.875000
119.775532	5543.591667	1562.966797	307.232147
119.775532	5543.591667	1561.919922	467.983124
119.775532	5543.591667	1560.872070	443.852570
119.775532	5543.591667	1559.825195	442.565002
119.775532	5543.591667	1558.777344	354.614960
119.775532	5543.591667	1557.729492	367.061798
119.775532	5543.591667	1556.680664	466.163910
119.775532	5543.591667	1555.632813	398.831177
119.775532	5543.591667	1554.583984	265.444061
119.775532	5543.591667	1553.535156	328.101379
119.775532	5543.591667	1552.486328	258.609863
119.775532	5543.591667	1551.436523	312.167023
119.775532	5543.591667	1550.387695	297.401245
119.775532	5543.591667	1549.337891	134.655136
119.775532	5543.591667	1548.288086	149.560562
119.775532	5543.591667	1547.238281	262.350098
119.775532	5543.591667	1546.187500	170.306702
119.775532	5543.591667	1545.136719	157.949951
119.775532	5543.591667	1544.086914	291.202087
119.775532	5543.591667	1543.035156	340.269440
119.775532	5543.591667	1541.984375	255.182739
119.775532	5543.591667	1540.933594	142.868591
119.775532	5543.591667	1539.881836	162.447479
119.775532	5543.591667	1538.830078	127.498909
119.775532	5543.591667	1537.778320	322.060577
119.775532	5543.591667	1536.725586	253.059647
119.775532	5543.591667	1535.673828	234.073273
119.775532	5543.591667	1534.621094	271.880524
119.775532	5543.591667	1533.568359	332.396240
119.775532	5543.591667	1532.515625	340.703522
119.775532	5543.591667	1531.461914	287.754578
119.775532	5543.591667	1530.409180	48.798656
119.775532	5543.591667	1529.355469	200.131653
119.775532	5543.591667	1528.301758	151.841125
119.775532	5543.591667	1527.247070	241.911102
119.775532	5543.591667	1526.193359	96.188789
119.775532	5543.591667	1525.138672	190.810593
119.775532	5543.591667	1524.083984	187.969940
119.775532	5543.591667	1523.029297	214.606857
119.775532	5543.591667	1521.974609	207.275635
119.775532	5543.591667	1520.918945	95.783638
119.775532	5543.591667	1519.863281	237.973618
119.775532	5543.591667	1518.807617	128.828552
119.775532	5543.591667	1517.751953	266.473541
119.775532	5543.591667	1516.696289	46.519470
119.775532	5543.591667	1515.639648	123.079018
119.775532	5543.591667	1514.583008	77.472832
119.775532	5543.591667	1513.526367	16.075005
119.775532	5543.591667	1512.469727	133.366562
119.775532	5543.591667	1511.412109	53.940216
119.775532	5543.591667	1510.355469	42.381775
119.775532	5543.591667	1509.297852	55.708633
119.775532	5543.591667	1508.240234	-10.028717
119.775532	5543.591667	1507.181641	62.084293
119.775532	5543.591667	1506.124023	-37.460464
119.775532	5543.591667	1505.065430	176.940033
119.775532	5543.591667	1504.006836	39.076401
119.775532	5543.591667	1502.948242	68.328590
119.775532	5543.591667	1501.888672	-134.859924
119.775532	5543.591667	1500.830078	45.639214
119.775532	5543.591667	1499.770508	-26.573690
119.775532	5543.591667	1498.710938	-46.857544
119.775532	5543.591667	1497.650391	-96.426010
119.775532	5543.591667	1496.590820	-78.312538
119.775532	5543.591667	1495.530273	-35.387848
119.775532	5543.591667	1494.469727	-28.514849
119.775532	5543.591667	1493.409180	-35.139793
119.775532	5543.591667	1492.348633	-172.398865
119.775532	5543.591667	1491.287109	-151.916748
119.775532	5543.591667	1490.225586	10.450378
119.775532	5543.591667	1489.164063	73.714279
119.775532	5543.591667	1488.102539	-22.842798
119.775532	5543.591667	1487.041016	-96.831673
119.775532	5543.591667	1485.978516	-76.263611
119.775532	5543.591667	1484.916016	-150.153137
119.775532	5543.591667	1483.853516	-84.559784
119.775532	5543.591667	1482.791016	-14.459619
119.775532	5543.591667	1481.727539	-2.819399
119.775532	5543.591667	1480.664063	-33.869553
119.775532	5543.591667	1479.600586	-107.552933
119.775532	5543.591667	1478.537109	-77.890533
119.775532	5543.591667	1477.473633	34.928688
119.775532	5543.591667	1476.409180	-47.598045
119.775532	5543.591667	1475.344727	-134.602661
119.775532	5543.591667	1474.280273	-100.322456
119.775532	5543.591667	1473.215820	68.666389
119.775532	5543.591667	1472.151367	-16.071178
119.775532	5543.591667	1471.085938	-35.631592
119.775532	5543.591667	1470.020508	12.085529
119.775532	5543.591667	1468.955078	17.336519
119.775532	5543.591667	1467.888672	18.197378
119.775532	5543.591667	1466.823242	-14.637705
119.775532	5543.591667	1465.756836	106.942276
119.775532	5543.591667	1464.690430	-1.922384
119.775532	5543.591667	1463.624023	162.002182
119.775532	5543.591667	1462.556641	67.029854
119.775532	5543.591667	1461.490234	47.928333
119.775532	5543.591667	1460.422852	272.206787
119.775532	5543.591667	1459.355469	201.022476
119.775532	5543.591667	1458.287109	32.194744
119.775532	5543.591667	1457.219727	162.308945
119.775532	5543.591667	1456.151367	159.298767
119.775532	5543.591667	1455.083008	231.835510
119.775532	5543.591667	1454.014648	4.854676
119.775532	5543.591667	1452.945313	119.719200
119.775532	5543.591667	1451.876953	214.461456
119.775532	5543.591667	1450.807617	53.688667
119.775532	5543.591667	1449.738281	143.150162
119.775532	5543.591667	1448.668945	242.636902
119.775532	5543.591667	1447.598633	165.252136
119.775532	5543.591667	1446.528320	195.411133
119.775532	5543.591667	1445.458008	162.218811
119.775532	5543.591667	1444.387695	174.095032
119.775532	5543.591667	1443.317383	287.694550
119.775532	5543.591667	1442.246094	241.032806
119.775532	5543.591667	1441.174805	117.221245
119.775532	5543.591667	1440.103516	119.738304
119.775532	5543.591667	1439.032227	44.544373
119.775532	5543.591667	1437.960938	-75.690689
119.775532	5543.591667	1436.888672	69.827988
119.775532	5543.591667	1435.816406	146.744904
119.775532	5543.591667	1434.744141	126.951103
119.775532	5543.591667	1433.670898	167.174622
119.775532	5543.591667	1432.598633	-68.093063
119.775532	5543.591667	1431.525391	11.362039
119.775532	5543.591667	1430.452148	165.597870
119.775532	5543.591667	1429.378906	111.342377
119.775532	5543.591667	1428.304688	79.071747
119.775532	5543.591667	1427.231445	-39.934677
119.775532	5543.591667	1426.157227	9.056339
119.775532	5543.591667	1425.083008	-91.302650
119.775532	5543.591667	1424.007813	76.005630
119.775532	5543.591667	1422.933594	124.008881
119.775532	5543.591667	1421.858398	-39.499931
119.775532	5543.591667	1420.783203	124.307922
119.775532	5543.591667	1419.708008	112.156471
119.775532	5543.591667	1418.631836	133.976181
119.775532	5543.591667	1417.555664	106.809097
119.775532	5543.591667	1416.479492	-8.732100
119.775532	5543.591667	1415.403320	-17.748579
119.775532	5543.591667	1414.327148	-45.969936
119.775532	5543.591667	1413.250000	83.011932
119.775532	5543.591667	1412.173828	157.376129
119.775532	5543.591667	1411.096680	178.218765
119.775532	5543.591667	1410.018555	68.310791
119.775532	5543.591667	1408.941406	182.334610
119.775532	5543.591667	1407.863281	12.209677
119.775532	5543.591667	1406.785156	105.903107
119.775532	5543.591667	1405.707031	39.421135
119.775532	5543.591667	1404.628906	36.290005
119.775532	5543.591667	1403.549805	180.388687
119.775532	5543.591667	1402.470703	63.204720
119.775532	5543.591667	1401.391602	109.770195
119.775532	5543.591667	1400.312500	189.594269
119.775532	5543.591667	1399.233398	-12.049268
119.775532	5543.591667	1398.153320	58.103432
119.775532	5543.591667	1397.073242	128.072006
119.775532	5543.591667	1395.993164	101.195183
119.775532	5543.591667	1394.913086	46.062195
119.775532	5543.591667	1393.832031	210.331970
119.775532	5543.591667	1392.750977	6.255490
119.775532	5543.591667	1391.669922	130.610474
119.775532	5543.591667	1390.588867	23.577435
119.775532	5543.591667	1389.506836	107.549744
119.775532	5543.591667	1388.425781	177.626007
119.775532	5543.591667	1387.343750	133.165390
119.775532	5543.591667	1386.261719	174.215622
119.775532	5543.591667	1385.178711	5.077396
119.775532	5543.591667	1384.096680	130.989777
119.775532	5543.591667	1383.013672	36.260300
119.775532	5543.591667	1381.930664	-17.354858
119.775532	5543.591667	1380.846680	81.217003
119.775532	5543.591667	1379.763672	168.806610
119.775532	5543.591667	1378.679688	49.596642
119.775532	5543.591667	1377.595703	-0.331124
119.775532	5543.591667	1376.511719	20.880579
119.775532	5543.591667	1375.427734	122.654449
119.775532	5543.591667	1374.342773	94.001755
119.775532	5543.591667	1373.257813	235.127243
119.775532	5543.591667	1372.172852	173.813477
119.775532	5543.591667	1371.087891	206.957764
119.775532	5543.591667	1370.001953	11.984510
119.775532	5543.591667	1368.916992	49.439922
119.775532	5543.591667	1367.831055	-30.612154
119.775532	5543.591667	1366.744141	52.374065
119.775532	5543.591667	1365.658203	168.276230
119.775532	5543.591667	1364.571289	94.390221
119.775532	5543.591667	1363.484375	136.275116
119.775532	5543.591667	1362.397461	164.957123
119.775532	5543.591667	1361.310547	30.304241
119.775532	5543.591667	1360.222656	174.781036
119.775532	5543.591667	1359.135742	-9.707184
119.775532	5543.591667	1358.047852	111.469604
119.775532	5543.591667	1356.958984	106.518791
119.775532	5543.591667	1355.871094	18.929085
119.775532	5543.591667	1354.782227	27.665062
119.775532	5543.591667	1353.693359	144.459991
119.775532	5543.591667	1352.604492	118.831284
119.775532	5543.591667	1351.515625	106.792908
119.775532	5543.591667	1350.425781	111.305168
119.775532	5543.591667	1349.335938	165.084686
119.775532	5543.591667	1348.246094	127.463776
119.775532	5543.591667	1347.156250	121.015022
119.775532	5543.591667	1346.066406	179.266571
119.775532	5543.591667	1344.975586	37.024956
119.775532	5543.591667	1343.884766	170.614639
119.775532	5543.591667	1342.793945	121.740028
119.775532	5543.591667	1341.702148	113.757507
119.775532	5543.591667	1340.611328	180.071915
119.775532	5543.591667	1339.519531	114.093483
119.775532	5543.591667	1338.427734	-15.489127
119.775532	5543.591667	1337.334961	41.680027
119.775532	5543.591667	1336.243164	32.045708
119.775532	5543.591667	1335.150391	167.703323
119.775532	5543.591667	1334.057617	182.926422
119.775532	5543.591667	1332.964844	75.364243
119.775532	5543.591667	1331.871094	4.669638
119.775532	5543.591667	1330.778320	1.899091
119.775532	5543.591667	1329.684570	-57.000328
119.775532	5543.591667	1328.590820	56.953373
119.775532	5543.591667	1327.496094	78.076683
119.775532	5543.591667	1326.402344	149.190628
119.775532	5543.591667	1325.307617	113.115425
119.775532	5543.591667	1324.212891	220.710938
119.775532	5543.591667	1323.117188	118.503166
119.775532	5543.591667	1322.022461	66.271568
119.775532	5543.591667	1320.926758	20.848131
119.775532	5543.591667	1319.831055	12.870035
119.775532	5543.591667	1318.735352	14.275073
119.775532	5543.591667	1317.638672	36.284599
119.775532	5543.591667	1316.542969	26.478270
119.775532	5543.591667	1315.446289	56.364429
119.775532	5543.591667	1314.349609	145.392227
119.775532	5543.591667	1313.251953	60.423180
119.775532	5543.591667	1312.155273	126.118919
119.775532	5543.591667	1311.057617	81.590874
119.775532	5543.591667	1309.959961	37.287178
119.775532	5543.591667	1308.862305	152.575806
119.775532	5543.591667	1307.763672	-17.411669
119.775532	5543.591667	1306.665039	85.117111
119.775532	5543.591667	1305.566406	-8.038258
119.775532	5543.591667	1304.467773	62.951626
119.775532	5543.591667	1303.369141	-0.568714
119.775532	5543.591667	1302.269531	203.449326
119.775532	5543.591667	1301.169922	100.940147
119.775532	5543.591667	1300.070313	74.789307
119.775532	5543.591667	1298.970703	33.560070
119.775532	5543.591667	1297.870117	134.987106
119.775532	5543.591667	1296.769531	213.079010
119.775532	5543.591667	1295.668945	110.743309
119.775532	5543.591667	1294.568359	66.744934
119.775532	5543.591667	1293.466797	-23.995882
119.775532	5543.591667	1292.366211	209.762329
119.775532	5543.591667	1291.264648	130.818253
119.775532	5543.591667	1290.162109	14.500274
119.775532	5543.591667	1289.060547	26.644611
119.775532	5543.591667	1287.958008	66.115364
119.775532	5543.591667	1286.855469	57.223351
119.775532	5543.591667	1285.752930	75.013290
119.775532	5543.591667	1284.650391	45.939587
119.775532	5543.591667	1283.546875	-84.746948
119.775532	5543.591667	1282.444336	-130.027542
119.775532	5543.591667	1281.339844	-30.680084
119.775532	5543.591667	1280.236328	-9.120927
119.775532	5543.591667	1279.132813	-12.715450
119.775532	5543.591667	1278.028320	4.651927
119.775532	5543.591667	1276.923828	-62.480949
119.775532	5543.591667	1275.819336	32.709454
119.775532	5543.591667	1274.713867	-4.383441
119.775532	5543.591667	1273.608398	-4.231071
119.775532	5543.591667	1272.503906	82.369926
119.775532	5543.591667	1271.397461	12.338967
119.775532	5543.591667	1270.291992	-3.668550
119.775532	5543.591667	1269.185547	96.652969
119.775532	5543.591667	1268.080078	-0.937998
119.775532	5543.591667	1266.972656	-41.772995
119.775532	5543.591667	1265.866211	54.910294
119.775532	5543.591667	1264.759766	13.602961
119.775532	5543.591667	1263.652344	36.446480
119.775532	5543.591667	1262.544922	48.174980
119.775532	5543.591667	1261.436523	-3.334219
119.775532	5543.591667	1260.329102	-16.269421
119.775532	5543.591667	1259.220703	28.487486
119.775532	5543.591667	1258.112305	41.072479
119.775532	5543.591667	1257.003906	54.812042
119.775532	5543.591667	1255.895508	-16.632383
119.775532	5543.591667	1254.786133	-33.634949
119.775532	5543.591667	1253.676758	-85.469818
119.775532	5543.591667	1252.567383	-145.114227
119.775532	5543.591667	1251.458008	-22.845190
119.775532	5543.591667	1250.347656	-44.296150
119.775532	5543.591667	1249.237305	-72.962456
119.775532	5543.591667	1248.126953	-42.762726
119.775532	5543.591667	1247.016602	-33.403690
119.775532	5543.591667	1245.905273	-70.601784
119.775532	5543.591667	1244.793945	-169.722458
119.775532	5543.591667	1243.682617	-6.250759
119.775532	5543.591667	1242.571289	-34.846996
119.775532	5543.591667	1241.459961	16.421270
119.775532	5543.591667	1240.347656	-34.346493
119.775532	5543.591667	1239.235352	-79.380951
119.775532	5543.591667	1238.123047	35.595562
119.775532	5543.591667	1237.009766	20.021372
119.775532	5543.591667	1235.897461	3.031048
119.775532	5543.591667	1234.784180	27.514101
119.775532	5543.591667	1233.670898	26.912251
119.775532	5543.591667	1232.556641	-4.742930
119.775532	5543.591667	1231.443359	-41.601986
119.775532	5543.591667	1230.329102	61.477493
119.775532	5543.591667	1229.214844	59.578846
119.775532	5543.591667	1228.099609	25.787834
119.775532	5543.591667	1226.985352	10.465675
119.775532	5543.591667	1225.870117	3.645366
119.775532	5543.591667	1224.754883	-44.817753
119.775532	5543.591667	1223.639648	-45.726563
119.775532	5543.591667	1222.523438	-146.910858
119.775532	5543.591667	1221.408203	-35.358482
119.775532	5543.591667	1220.291992	-50.804062
119.775532	5543.591667	1219.174805	-108.457230
119.775532	5543.591667	1218.058594	39.987175
119.775532	5543.591667	1216.941406	-58.898869
119.775532	5543.591667	1215.824219	78.181931
119.775532	5543.591667	1214.707031	-72.719299
119.775532	5543.591667	1213.589844	-34.797508
119.775532	5543.591667	1212.471680	-46.795631
119.775532	5543.591667	1211.353516	26.201828
119.775532	5543.591667	1210.235352	24.712309
119.775532	5543.591667	1209.117188	-68.175453
119.775532	5543.591667	1207.998047	-8.933397
119.775532	5543.591667	1206.878906	-25.208023
119.775532	5543.591667	1205.759766	82.292053
119.775532	5543.591667	1204.640625	-31.598835
119.775532	5543.591667	1203.520508	49.362198
119.775532	5543.591667	1202.401367	26.832090
119.775532	5543.591667	1201.281250	13.083327
119.775532	5543.591667	1200.160156	21.222212
119.775532	5543.591667	1199.040039	-20.353542
119.775532	5543.591667	1197.918945	-22.311918
119.775532	5543.591667	1196.797852	-51.062511
119.775532	5543.591667	1195.676758	-40.597622
119.775532	5543.591667	1194.555664	91.170036
119.775532	5543.591667	1193.433594	-7.129993
119.775532	5543.591667	1192.311523	-18.045944
119.775532	5543.591667	1191.189453	15.992879
119.775532	5543.591667	1190.066406	41.143818
119.775532	5543.591667	1188.944336	82.208076
119.775532	5543.591667	1187.821289	-23.670942
119.775532	5543.591667	1186.698242	16.733971
119.775532	5543.591667	1185.574219	-7.786566
119.775532	5543.591667	1184.451172	9.049685
119.775532	5543.591667	1183.327148	-73.795586
119.775532	5543.591667	1182.203125	-67.253319
119.775532	5543.591667	1181.078125	-103.768768
119.775532	5543.591667	1179.954102	-39.777882
119.775532	5543.591667	1178.829102	18.445614
119.775532	5543.591667	1177.704102	-25.379274
119.775532	5543.591667	1176.579102	38.211720
119.775532	5543.591667	1175.453125	-21.805796
119.775532	5543.591667	1174.327148	10.276959
119.775532	5543.591667	1173.201172	43.103951
119.775532	5543.591667	1172.075195	74.853317
119.775532	5543.591667	1170.949219	61.697845
119.775532	5543.591667	1169.822266	-46.440628
119.775532	5543.591667	1168.695313	-79.038307
119.775532	5543.591667	1167.568359	-47.264702
119.775532	5543.591667	1166.440430	-36.673573
119.775532	5543.591667	1165.313477	-11.838762
119.775532	5543.591667	1164.185547	-86.154358
119.775532	5543.591667	1163.057617	9.131520
119.775532	5543.591667	1161.928711	-77.583275
119.775532	5543.591667	1160.800781	6.840897
119.775532	5543.591667	1159.671875	134.934677
119.775532	5543.591667	1158.541992	39.188679
119.775532	5543.591667	1157.413086	86.847122
119.775532	5543.591667	1156.283203	-23.265486
119.775532	5543.591667	1155.154297	-21.147568
119.775532	5543.591667	1154.023438	38.153671
119.775532	5543.591667	1152.893555	36.412876
119.775532	5543.591667	1151.763672	-1.269503
119.775532	5543.591667	1150.632813	-39.581146
119.775532	5543.591667	1149.501953	-8.532726
119.775532	5543.591667	1148.370117	-84.553635
119.775532	5543.591667	1147.239258	-9.364312
119.775532	5543.591667	1146.107422	-39.349884
119.775532	5543.591667	1144.975586	26.332060
119.775532	5543.591667	1143.843750	-205.091949
119.775532	5543.591667	1142.710938	-64.884369
119.775532	5543.591667	1141.578125	36.197155
119.775532	5543.591667	1140.445313	-20.273674
119.775532	5543.591667	1139.312500	105.691895
119.775532	5543.591667	1138.178711	17.957340
119.775532	5543.591667	1137.045898	-32.012001
119.775532	5543.591667	1135.912109	93.385368
119.775532	5543.591667	1134.777344	-10.129896
119.775532	5543.591667	1133.643555	92.721085
119.775532	5543.591667	1132.508789	57.013866
119.775532	5543.591667	1131.374023	81.217003
119.775532	5543.591667	1130.239258	160.856354
119.775532	5543.591667	1129.104492	148.119904
119.775532	5543.591667	1127.968750	99.421333
119.775532	5543.591667	1126.833008	68.777603
119.775532	5543.591667	1125.697266	277.668671
119.775532	5543.591667	1124.560547	298.663483
119.775532	5543.591667	1123.424805	233.329727
119.775532	5543.591667	1122.288086	176.692459
119.775532	5543.591667	1121.151367	159.110001
119.775532	5543.591667	1120.013672	107.557999
119.775532	5543.591667	1118.876953	173.008026
119.775532	5543.591667	1117.739258	167.842987
119.775532	5543.591667	1116.601563	139.210327
119.775532	5543.591667	1115.462891	139.464020
119.775532	5543.591667	1114.324219	157.542084
119.775532	5543.591667	1113.186523	131.660873
119.775532	5543.591667	1112.046875	145.079575
119.775532	5543.591667	1110.908203	193.179184
119.775532	5543.591667	1109.769531	114.966019
119.775532	5543.591667	1108.629883	70.715912
119.775532	5543.591667	1107.490234	106.449463
119.775532	5543.591667	1106.349609	108.263268
119.775532	5543.591667	1105.209961	218.603333
119.775532	5543.591667	1104.069336	102.666290
119.775532	5543.591667	1102.928711	133.022064
119.775532	5543.591667	1101.787109	186.364410
119.775532	5543.591667	1100.646484	127.558372
119.775532	5543.591667	1099.504883	185.497269
119.775532	5543.591667	1098.363281	121.151466
119.775532	5543.591667	1097.221680	176.498077
119.775532	5543.591667	1096.079102	172.511536
119.775532	5543.591667	1094.936523	243.629593
119.775532	5543.591667	1093.793945	174.441132
119.775532	5543.591667	1092.651367	149.984802
119.775532	5543.591667	1091.507813	206.048950
119.775532	5543.591667	1090.364258	219.829681
119.775532	5543.591667	1089.220703	242.437378
119.775532	5543.591667	1088.077148	200.069855
119.775532	5543.591667	1086.933594	220.872665
119.775532	5543.591667	1085.789063	166.530151
119.775532	5543.591667	1084.644531	213.129074
119.775532	5543.591667	1083.499023	32.624252
119.775532	5543.591667	1082.354492	203.324951
119.775532	5543.591667	1081.208984	202.707169
119.775532	5543.591667	1080.063477	5.364052
119.775532	5543.591667	1078.917969	184.121353
119.775532	5543.591667	1077.771484	149.970947
119.775532	5543.591667	1076.625977	-9.059510
119.775532	5543.591667	1075.479492	62.265148
119.775532	5543.591667	1074.332031	155.288712
119.775532	5543.591667	1073.185547	66.079903
119.775532	5543.591667	1072.038086	100.163879
119.775532	5543.591667	1070.890625	110.507416
119.775532	5543.591667	1069.743164	127.562744
119.775532	5543.591667	1068.594727	157.234268
119.775532	5543.591667	1067.447266	119.357925
119.775532	5543.591667	1066.298828	73.542259
119.775532	5543.591667	1065.149414	206.957718
119.775532	5543.591667	1064.000977	-79.298927
119.775532	5543.591667	1062.851563	19.340248
119.775532	5543.591667	1061.702148	121.311378
119.775532	5543.591667	1060.552734	207.607697
119.775532	5543.591667	1059.402344	100.960228
119.775532	5543.591667	1058.252930	33.278305
119.775532	5543.591667	1057.102539	-43.234467
119.775532	5543.591667	1055.951172	41.582134
119.775532	5543.591667	1054.800781	-10.210144
119.775532	5543.591667	1053.649414	124.256805
119.775532	5543.591667	1052.498047	146.300049
119.775532	5543.591667	1051.346680	26.376698
119.775532	5543.591667	1050.194336	37.132252
119.775532	5543.591667	1049.042969	58.017223
119.775532	5543.591667	1047.890625	-114.257103
119.775532	5543.591667	1046.738281	61.886635
119.775532	5543.591667	1045.584961	93.288231
119.775532	5543.591667	1044.431641	129.139816
119.775532	5543.591667	1043.278320	55.929279
119.775532	5543.591667	1042.125000	179.415024
119.775532	5543.591667	1040.971680	34.037598
119.775532	5543.591667	1039.817383	142.432648
119.775532	5543.591667	1038.663086	-18.803856
119.775532	5543.591667	1037.508789	-90.201088
119.775532	5543.591667	1036.353516	30.588980
119.775532	5543.591667	1035.198242	129.948502
119.775532	5543.591667	1034.042969	-23.392454
119.775532	5543.591667	1032.887695	103.913406
119.775532	5543.591667	1031.732422	78.811501
119.775532	5543.591667	1030.576172	211.950607
119.775532	5543.591667	1029.419922	147.254425
119.775532	5543.591667	1028.263672	50.322186
119.775532	5543.591667	1027.106445	213.572174
119.775532	5543.591667	1025.949219	51.502811
119.775532	5543.591667	1024.792969	111.817635
119.775532	5543.591667	1023.634766	80.940681
119.775532	5543.591667	1022.477539	-10.309186
119.775532	5543.591667	1021.319336	143.616379
119.775532	5543.591667	1020.161133	-26.556152
119.775532	5543.591667	1019.002930	77.218758
119.775532	5543.591667	1017.843750	170.070297
119.775532	5543.591667	1016.684570	90.166840
119.775532	5543.591667	1015.525391	29.595934
119.775532	5543.591667	1014.366211	-21.688215
119.775532	5543.591667	1013.207031	150.561584
119.775532	5543.591667	1012.046875	0.040391
119.775532	5543.591667	1010.886719	-10.035496
119.775532	5543.591667	1009.726563	93.968803
119.775532	5543.591667	1008.565430	-7.090039
119.775532	5543.591667	1007.404297	-74.979111
119.775532	5543.591667	1006.243164	147.429626
119.775532	5543.591667	1005.082031	110.757385
119.775532	5543.591667	1003.920898	14.486713
119.775532	5543.591667	1002.758789	144.779434
119.775532	5543.591667	1001.596680	98.130196
119.775532	5543.591667	1000.433594	-20.458847
119.775532	5543.591667	999.271484	-85.007759
119.775532	5543.591667	998.108398	80.680016
119.775532	5543.591667	996.945313	107.728050
119.775532	5543.591667	995.782227	73.576904
119.775532	5543.591667	994.618164	29.811216
119.775532	5543.591667	993.454102	163.901260
119.775532	5543.591667	992.290039	126.817841
119.775532	5543.591667	991.125977	79.694397
119.775532	5543.591667	989.960938	122.207832
119.775532	5543.591667	988.796875	147.293732
119.775532	5543.591667	987.630859	170.719894
119.775532	5543.591667	986.465820	-5.934070
119.775532	5543.591667	985.300781	111.102974
119.775532	5543.591667	984.134766	66.784286
119.775532	5543.591667	982.968750	169.678818
119.775532	5543.591667	981.801758	102.157288
119.775532	5543.591667	980.635742	47.516171
119.775532	5543.591667	979.468750	-7.311287
119.775532	5543.591667	978.301758	68.154999
119.775532	5543.591667	977.133789	126.421478
119.775532	5543.591667	975.966797	4.256337
119.775532	5543.591667	974.798828	137.901871
119.775532	5543.591667	973.630859	-20.881071
119.775532	5543.591667	972.461914	-32.089455
119.775532	5543.591667	971.293945	14.147450
119.775532	5543.591667	970.125000	18.081688
119.775532	5543.591667	968.956055	52.827145
119.775532	5543.591667	967.786133	62.546993
119.775532	5543.591667	966.617188	-107.869461
119.775532	5543.591667	965.447266	-58.209259
119.775532	5543.591667	964.276367	111.000351
119.775532	5543.591667	963.106445	-56.477779
119.775532	5543.591667	961.935547	74.153275
119.775532	5543.591667	960.764648	11.357998
119.775532	5543.591667	959.593750	109.227798
119.775532	5543.591667	958.422852	11.316983
119.775532	5543.591667	957.250977	-19.880245
119.775532	5543.591667	956.079102	152.101578
119.775532	5543.591667	954.907227	3.682463
119.775532	5543.591667	953.734375	65.573418
119.775532	5543.591667	952.562500	104.640335
119.775532	5543.591667	951.389648	64.091232
119.775532	5543.591667	950.215820	80.784119
119.775532	5543.591667	949.042969	90.294365
119.775532	5543.591667	947.869141	-30.874609
119.775532	5543.591667	946.695313	-19.004408
119.775532	5543.591667	945.521484	5.300565
119.775532	5543.591667	944.346680	-42.608570
119.775532	5543.591667	943.172852	-23.068558
119.775532	5543.591667	941.998047	-31.461721
119.775532	5543.591667	940.822266	-39.963760
119.775532	5543.591667	939.647461	-35.532021
119.775532	5543.591667	938.471680	-8.468760
119.775532	5543.591667	937.295898	-46.738697
119.775532	5543.591667	936.119141	47.844238
119.775532	5543.591667	934.943359	-7.961974
119.775532	5543.591667	933.766602	28.840208
119.775532	5543.591667	932.589844	-1.832592
119.775532	5543.591667	931.413086	-40.067215
119.775532	5543.591667	930.235352	84.452278
119.775532	5543.591667	929.057617	193.951111
119.775532	5543.591667	927.879883	85.615379
119.775532	5543.591667	926.702148	147.493973
119.775532	5543.591667	925.523438	-53.382805
119.775532	5543.591667	924.344727	-11.496295
119.775532	5543.591667	923.166016	37.878658
119.775532	5543.591667	921.987305	39.712334
119.775532	5543.591667	920.807617	-106.003067
119.775532	5543.591667	919.627930	-105.462761
119.775532	5543.591667	919.497070	30.946947
119.775532	5543.591667	918.331055	35.282242
119.775532	5543.591667	917.165039	9.624314
119.775532	5543.591667	915.999023	88.930244
119.775532	5543.591667	914.833008	120.735725
119.775532	5543.591667	913.666016	-29.814222
119.775532	5543.591667	912.499023	56.946022
119.775532	5543.591667	911.332031	8.842663
119.775532	5543.591667	910.165039	-36.743885
119.775532	5543.591667	908.997070	207.204941
119.775532	5543.591667	907.830078	49.309357
119.775532	5543.591667	906.661133	71.106415
119.775532	5543.591667	905.493164	95.389206
119.775532	5543.591667	904.325195	194.477066
119.775532	5543.591667	903.156250	146.422256
119.775532	5543.591667	901.987305	56.011433
119.775532	5543.591667	900.818359	42.898441
119.775532	5543.591667	899.648438	179.298615
119.775532	5543.591667	898.478516	61.536209
119.775532	5543.591667	897.308594	103.230881
119.775532	5543.591667	896.138672	67.712723
119.775532	5543.591667	894.968750	-49.950863
119.775532	5543.591667	893.797852	39.040405
119.775532	5543.591667	892.626953	55.824257
119.775532	5543.591667	891.456055	2.932926
119.775532	5543.591667	890.284180	111.765335
119.775532	5543.591667	889.113281	-8.267356
119.775532	5543.591667	887.941406	-56.135380
119.775532	5543.591667	886.768555	-14.479355
119.775532	5543.591667	885.596680	61.959518
119.775532	5543.591667	884.423828	68.784256
119.775532	5543.591667	883.250977	177.478745
119.775532	5543.591667	882.078125	12.874022
119.775532	5543.591667	880.905273	-27.480104
119.775532	5543.591667	879.731445	31.509119
119.775532	5543.591667	878.557617	58.201550
119.775532	5543.591667	877.383789	141.973145
119.775532	5543.591667	876.209961	151.263336
119.775532	5543.591667	875.035156	-99.963539
119.775532	5543.591667	873.860352	63.171902
119.775532	5543.591667	872.685547	67.516792
119.775532	5543.591667	871.510742	183.441711
119.775532	5543.591667	870.334961	234.865082
119.775532	5543.591667	869.159180	1.234158
119.775532	5543.591667	867.983398	-29.099548
119.775532	5543.591667	866.807617	-79.240074
119.775532	5543.591667	865.630859	-27.800241
119.775532	5543.591667	864.454102	88.009453
119.775532	5543.591667	863.277344	-14.117672
119.775532	5543.591667	862.100586	44.707005
119.775532	5543.591667	860.922852	-134.092224
119.775532	5543.591667	859.745117	-25.775200
119.775532	5543.591667	858.567383	-65.941086
119.775532	5543.591667	857.389648	-162.980072
119.775532	5543.591667	856.210938	68.927612
119.775532	5543.591667	855.032227	70.800957
119.775532	5543.591667	853.853516	10.875240
119.775532	5543.591667	852.674805	39.946789
119.775532	5543.591667	851.495117	51.710869
119.775532	5543.591667	850.315430	65.941315
119.775532	5543.591667	849.135742	154.263550
119.775532	5543.591667	847.956055	15.362572
119.775532	5543.591667	846.775391	103.660187
119.775532	5543.591667	845.595703	-22.831026
119.775532	5543.591667	844.415039	109.860092
119.775532	5543.591667	843.233398	-73.329521
119.775532	5543.591667	842.052734	-150.368271
119.775532	5543.591667	840.871094	78.456223
119.775532	5543.591667	839.689453	18.678993
119.775532	5543.591667	838.506836	10.698906
119.775532	5543.591667	837.325195	-21.927540
119.775532	5543.591667	836.142578	-101.362984
119.775532	5543.591667	834.959961	-87.140762
119.775532	5543.591667	833.777344	-75.388397
119.775532	5543.591667	832.593750	111.219215
119.775532	5543.591667	831.410156	-91.297531
119.775532	5543.591667	830.226563	38.612514
119.775532	5543.591667	829.042969	-3.823202
119.775532	5543.591667	827.858398	-33.938274
119.775532	5543.591667	826.673828	56.511795
119.775532	5543.591667	825.489258	-128.573196
119.775532	5543.591667	824.304688	-143.893082
119.775532	5543.591667	823.120117	-90.363014
119.775532	5543.591667	821.934570	44.266418
119.775532	5543.591667	820.749023	198.499954
119.775532	5543.591667	819.562500	141.344818
119.775532	5543.591667	818.376953	111.234932
119.775532	5543.591667	817.190430	-49.045139
119.775532	5543.591667	816.003906	75.602608
119.775532	5543.591667	814.817383	-116.527031
119.775532	5543.591667	813.629883	-112.202744
119.775532	5543.591667	812.442383	-73.524284
119.775532	5543.591667	811.254883	173.699631
119.775532	5543.591667	810.067383	-74.726463
119.775532	5543.591667	808.878906	15.417013
119.775532	5543.591667	807.690430	2.528857
119.775532	5543.591667	806.501953	85.257355
119.775532	5543.591667	805.313477	18.426592
119.775532	5543.591667	804.124023	120.715584
119.775532	5543.591667	802.934570	-29.407528
119.775532	5543.591667	801.745117	175.725555
119.775532	5543.591667	800.555664	221.575623
119.775532	5543.591667	799.365234	91.100990
119.775532	5543.591667	798.175781	78.184860
119.775532	5543.591667	796.985352	6.527205
119.775532	5543.591667	795.793945	-65.105553
119.775532	5543.591667	794.603516	100.606354
119.775532	5543.591667	793.412109	185.523010
119.775532	5543.591667	792.220703	77.197525
119.775532	5543.591667	791.028320	71.605255
119.775532	5543.591667	789.836914	0.005447
119.775532	5543.591667	788.644531	82.405602
119.775532	5543.591667	787.452148	218.523895
119.775532	5543.591667	786.258789	36.983093
119.775532	5543.591667	785.066406	68.011734
119.775532	5543.591667	783.873047	6.223715
119.775532	5543.591667	782.679688	186.165833
119.775532	5543.591667	781.485352	-7.450289
119.775532	5543.591667	780.291992	65.023346
119.775532	5543.591667	779.097656	-33.341892
119.775532	5543.591667	777.903320	129.353836
119.775532	5543.591667	776.708008	116.366577
119.775532	5543.591667	775.512695	22.905735
119.775532	5543.591667	774.318359	-58.334385
119.775532	5543.591667	773.122070	70.074799
119.775532	5543.591667	771.926758	35.144291
119.775532	5543.591667	770.730469	-7.089785
119.775532	5543.591667	769.534180	118.766586
119.775532	5543.591667	768.337891	149.578461
119.775532	5543.591667	767.141602	-38.777401
119.775532	5543.591667	765.944336	111.323631
119.775532	5543.591667	764.747070	-57.493450
119.775532	5543.591667	763.549805	46.294125
119.775532	5543.591667	762.351563	28.382723
119.775532	5543.591667	761.154297	-21.153675
119.775532	5543.591667	759.956055	313.562714
119.775532	5543.591667	758.757813	125.376656
119.775532	5543.591667	757.558594	177.917587
119.775532	5543.591667	756.359375	281.463409
119.775532	5543.591667	755.160156	132.246796
119.775532	5543.591667	753.960938	24.380415
119.775532	5543.591667	752.761719	132.717072
119.775532	5543.591667	751.561523	226.426712
119.775532	5543.591667	750.361328	181.696899
119.775532	5543.591667	749.160156	258.341614
119.775532	5543.591667	747.959961	196.611298
119.775532	5543.591667	746.758789	88.793671
119.775532	5543.591667	745.557617	44.079792
119.775532	5543.591667	744.356445	113.362061
119.775532	5543.591667	743.154297	58.936306
119.775532	5543.591667	741.952148	60.279263
119.775532	5543.591667	740.750000	88.270134
119.775532	5543.591667	739.547852	-21.893024
119.775532	5543.591667	738.344727	-27.844095
119.775532	5543.591667	737.142578	123.642647
119.775532	5543.591667	735.939453	120.057388
119.775532	5543.591667	734.735352	-28.818331
119.775532	5543.591667	733.532227	141.896072
119.775532	5543.591667	732.328125	97.120392
119.775532	5543.591667	731.124023	-10.565970
119.775532	5543.591667	729.918945	94.672234
119.775532	5543.591667	728.714844	161.150757
119.775532	5543.591667	727.509766	5.107197
119.775532	5543.591667	726.303711	-32.417648
119.775532	5543.591667	725.098633	2.574175
119.775532	5543.591667	723.892578	56.868534
119.775532	5543.591667	722.686523	24.140102
119.775532	5543.591667	721.480469	73.543022
119.775532	5543.591667	720.274414	-58.232456
119.775532	5543.591667	719.067383	-64.404869
119.775532	5543.591667	717.860352	81.502281
119.775532	5543.591667	716.653320	70.441467
119.775532	5543.591667	715.445313	-58.879131
119.775532	5543.591667	714.238281	-26.513075
119.775532	5543.591667	713.030273	-102.726479
119.775532	5543.591667	711.821289	4.360844
119.775532	5543.591667	710.613281	-16.406635
119.775532	5543.591667	709.404297	254.506165
119.775532	5543.591667	708.195313	93.868828
119.775532	5543.591667	706.986328	36.895573
119.775532	5543.591667	705.776367	107.611374
119.775532	5543.591667	704.566406	103.611061
119.775532	5543.591667	703.356445	3.268042
119.775532	5543.591667	702.146484	95.557762
119.775532	5543.591667	700.935547	108.354279
119.775532	5543.591667	699.724609	-37.710896
119.775532	5543.591667	698.513672	-56.210632
119.775532	5543.591667	697.302734	4.663053
119.775532	5543.591667	696.090820	77.515602
119.775532	5543.591667	694.878906	-3.576082
119.775532	5543.591667	693.666992	35.550495
119.775532	5543.591667	692.455078	19.357624
119.775532	5543.591667	691.242188	108.886726
119.775532	5543.591667	690.029297	-17.874559
119.775532	5543.591667	688.816406	4.325124
119.775532	5543.591667	687.602539	-43.151543
119.775532	5543.591667	686.389648	166.285217
119.775532	5543.591667	685.175781	87.545891
119.775532	5543.591667	683.960938	85.619133
119.775532	5543.591667	682.747070	-53.101475
119.775532	5543.591667	681.532227	112.892624
119.775532	5543.591667	680.317383	48.536491
119.775532	5543.591667	679.102539	-39.794952
119.775532	5543.591667	677.886719	-72.968132
119.775532	5543.591667	676.670898	-3.077231
119.775532	5543.591667	675.455078	-72.235100
119.775532	5543.591667	674.239258	-23.981339
119.775532	5543.591667	673.022461	146.400085
119.775532	5543.591667	671.805664	74.793098
119.775532	5543.591667	670.588867	-94.980064
119.775532	5543.591667	669.372070	80.030754
119.775532	5543.591667	668.154297	53.892120
119.775532	5543.591667	666.936523	97.138931
119.775532	5543.591667	665.718750	39.861012
119.775532	5543.591667	664.500977	114.143791
119.775532	5543.591667	663.282227	66.407303
119.775532	5543.591667	662.063477	71.269547
119.775532	5543.591667	660.844727	-29.072222
119.775532	5543.591667	659.625000	-17.067141
119.775532	5543.591667	658.405273	42.699234
119.775532	5543.591667	657.185547	111.973984
119.775532	5543.591667	655.965820	154.924118
119.775532	5543.591667	654.745117	9.185893
119.775532	5543.591667	653.525391	102.230988
119.775532	5543.591667	652.303711	9.032543
119.775532	5543.591667	651.083008	56.650688
119.775532	5543.591667	649.861328	-50.858940
119.775532	5543.591667	648.640625	8.634173
119.775532	5543.591667	647.417969	211.172836
119.775532	5543.591667	646.196289	165.626450
119.775532	5543.591667	644.973633	101.004669
119.775532	5543.591667	643.750977	50.688499
119.775532	5543.591667	642.528320	143.345505
119.775532	5543.591667	641.305664	183.528488
119.775532	5543.591667	640.082031	-33.571716
119.775532	5543.591667	638.858398	168.520706
119.775532	5543.591667	637.634766	75.277557
119.775532	5543.591667	636.410156	272.455994
119.775532	5543.591667	635.185547	198.224823
119.775532	5543.591667	633.960938	109.727211
119.775532	5543.591667	632.736328	125.915924
119.775532	5543.591667	631.510742	142.074463
119.775532	5543.591667	630.285156	155.827759
119.775532	5543.591667	629.059570	62.573902
119.775532	5543.591667	627.833984	211.775925
119.775532	5543.591667	626.607422	-2.686507
119.775532	5543.591667	625.380859	231.953705
119.775532	5543.591667	624.154297	167.182083
119.775532	5543.591667	622.927734	218.784439
119.775532	5543.591667	621.700195	218.108658
119.775532	5543.591667	620.472656	82.105049
119.775532	5543.591667	619.245117	280.776703
119.775532	5543.591667	618.016602	185.114594
119.775532	5543.591667	616.788086	113.196960
119.775532	5543.591667	615.559570	347.253052
119.775532	5543.591667	614.331055	197.039886
119.775532	5543.591667	613.101563	281.579163
119.775532	5543.591667	611.872070	228.586899
119.775532	5543.591667	610.642578	185.078018
119.775532	5543.591667	609.413086	68.121597
119.775532	5543.591667	608.182617	124.116699
119.775532	5543.591667	606.952148	132.704285
119.775532	5543.591667	605.721680	-64.725739
119.775532	5543.591667	604.491211	17.249737
119.775532	5543.591667	603.259766	32.901836
119.775532	5543.591667	602.028320	24.868166
119.775532	5543.591667	600.796875	-61.248940
119.775532	5543.591667	599.564453	74.987152
119.775532	5543.591667	598.332031	3.051017
119.775532	5543.591667	597.099609	54.071373
119.775532	5543.591667	595.867188	8.140818
119.775532	5543.591667	594.633789	132.366852
119.775532	5543.591667	593.400391	105.309586
119.775532	5543.591667	592.166992	23.918070
119.775532	5543.591667	590.933594	140.933350
119.775532	5543.591667	589.699219	-11.297321
119.775532	5543.591667	588.464844	306.309143
119.775532	5543.591667	587.230469	69.113007
119.775532	5543.591667	585.995117	-118.441872
119.775532	5543.591667	584.760742	50.315380
119.775532	5543.591667	583.525391	-49.907448
119.775532	5543.591667	582.289063	-15.682278
119.775532	5543.591667	581.053711	-14.489064
119.775532	5543.591667	579.817383	3.191464
119.775532	5543.591667	578.581055	-52.203953
119.775532	5543.591667	577.343750	7.866240
119.775532	5543.591667	576.107422	-160.600296
119.775532	5543.591667	574.870117	-8.698585
119.775532	5543.591667	573.631836	-0.509287
119.775532	5543.591667	572.394531	146.567856
119.775532	5543.591667	571.156250	-106.556351
119.775532	5543.591667	569.917969	71.054428
119.775532	5543.591667	568.679688	199.175537
119.775532	5543.591667	567.440430	124.945175
119.775532	5543.591667	566.202148	15.466624
119.775532	5543.591667	564.961914	-32.843876
119.775532	5543.591667	563.722656	182.138336
119.775532	5543.591667	562.482422	58.596527
119.775532	5543.591667	561.243164	97.232117
119.775532	5543.591667	560.001953	-2.757883
119.775532	5543.591667	558.761719	-48.687244
119.775532	5543.591667	557.520508	4.020338
119.775532	5543.591667	556.279297	12.097181
119.775532	5543.591667	555.038086	3.738083
119.775532	5543.591667	553.795898	35.272202
119.775532	5543.591667	552.554688	29.254538
119.775532	5543.591667	551.311523	196.813721
119.775532	5543.591667	550.069336	230.628220
119.775532	5543.591667	548.826172	-89.616272
119.775532	5543.591667	547.583984	35.667953
119.775532	5543.591667	546.339844	177.300964
119.775532	5543.591667	545.096680	-18.536848
119.775532	5543.591667	543.852539	45.743076
119.775532	5543.591667	542.608398	60.812996
119.775532	5543.591667	541.364258	-13.102977
119.775532	5543.591667	540.119141	93.281876
119.775532	5543.591667	538.875000	63.869682
119.775532	5543.591667	537.628906	-103.597542
119.775532	5543.591667	536.383789	-15.965838
119.775532	5543.591667	535.137695	158.180054
119.775532	5543.591667	533.892578	-20.875454
119.775532	5543.591667	532.645508	50.329433
119.775532	5543.591667	531.399414	-0.045042
119.775532	5543.591667	530.152344	279.142975
119.775532	5543.591667	528.905273	-35.285374
119.775532	5543.591667	527.658203	84.949661
119.775532	5543.591667	526.410156	-19.080494
119.775532	5543.591667	525.163086	122.133080
119.775532	5543.591667	523.914063	-0.520449
119.775532	5543.591667	522.666016	124.307457
119.775532	5543.591667	521.416992	-44.946331
119.775532	5543.591667	520.167969	-111.458817
119.775532	5543.591667	518.918945	11.010661
119.775532	5543.591667	517.669922	-78.783562
119.775532	5543.591667	516.419922	27.327629
119.775532	5543.591667	515.169922	-15.786438
119.775532	5543.591667	513.919922	-86.835808
119.775532	5543.591667	512.668945	56.527847
119.775532	5543.591667	511.417969	6.485322
119.775532	5543.591667	510.166992	107.870979
119.775532	5543.591667	508.916016	11.295536
119.775532	5543.591667	507.664063	54.461830
119.775532	5543.591667	506.412109	109.262482
119.775532	5543.591667	505.160156	-19.786057
119.775532	5543.591667	503.907227	90.875992
119.775532	5543.591667	502.655273	38.680824
119.775532	5543.591667	501.402344	74.896103
119.775532	5543.591667	500.148438	-28.395321
119.775532	5543.591667	498.895508	5.528667
119.775532	5543.591667	497.641602	104.529030
119.775532	5543.591667	496.387695	-38.150738
119.775532	5543.591667	495.132813	-97.120789
119.775532	5543.591667	493.878906	6.537114
119.775532	5543.591667	492.624023	66.047272
119.775532	5543.591667	491.368164	18.755119
119.775532	5543.591667	490.113281	75.953255
119.775532	5543.591667	488.857422	-54.824890
119.775532	5543.591667	487.601563	97.525742
119.775532	5543.591667	486.344727	24.826647
119.775532	5543.591667	485.088867	75.092377
119.775532	5543.591667	483.832031	7.105432
119.775532	5543.591667	482.575195	94.480980
119.775532	5543.591667	481.317383	-5.890174
119.775532	5543.591667	480.059570	42.097301
119.775532	5543.591667	478.801758	-97.562492
119.775532	5543.591667	477.543945	15.314478
119.775532	5543.591667	476.285156	67.954414
119.775532	5543.591667	475.027344	55.768894
119.775532	5543.591667	473.767578	-37.406071
119.775532	5543.591667	472.508789	-5.557683
119.775532	5543.591667	471.249023	174.365646
119.775532	5543.591667	469.989258	-106.080902
119.775532	5543.591667	468.729492	-20.993780
119.775532	5543.591667	467.469727	-2.976799
119.775532	5543.591667	466.208984	-15.001617
119.775532	5543.591667	464.948242	35.395927
119.775532	5543.591667	463.686523	39.575680
119.775532	5543.591667	462.425781	-69.424957
119.775532	5543.591667	461.164063	-51.333717
119.775532	5543.591667	459.901367	29.110645
119.775532	5543.591667	458.639648	148.783234
119.775532	5543.591667	457.376953	-17.790308
119.775532	5543.591667	456.114258	-68.896187
119.775532	5543.591667	454.851563	20.768148
119.775532	5543.591667	453.587891	147.311340
119.775532	5543.591667	452.324219	17.830803
119.775532	5543.591667	451.060547	-35.496532
119.775532	5543.591667	449.796875	42.602402
119.775532	5543.591667	448.532227	-15.297601
119.775532	5543.591667	447.267578	138.816177
119.775532	5543.591667	446.002930	168.474472
119.775532	5543.591667	444.737305	39.207996
119.775532	5543.591667	443.471680	55.069813
119.775532	5543.591667	442.206055	126.180336
119.775532	5543.591667	440.940430	63.766861
119.775532	5543.591667	439.673828	-74.556618
119.775532	5543.591667	438.407227	166.787628
119.775532	5543.591667	437.140625	106.706390
119.775532	5543.591667	435.873047	-6.245101
119.775532	5543.591667	434.605469	145.251892
119.775532	5543.591667	433.337891	216.224091
119.775532	5543.591667	432.070313	110.199646
119.775532	5543.591667	430.801758	158.154861
119.775532	5543.591667	429.533203	206.078156
119.775532	5543.591667	428.264648	111.574097
119.775532	5543.591667	426.996094	193.901993
119.775532	5543.591667	425.726563	255.514877
119.775532	5543.591667	424.457031	126.583046
119.775532	5543.591667	423.186523	119.302498
119.775532	5543.591667	421.916992	121.179878
119.775532	5543.591667	420.646484	104.680031
119.775532	5543.591667	419.375977	239.510071
119.775532	5543.591667	418.104492	94.541382
119.775532	5543.591667	416.833008	229.250000
119.775532	5543.591667	415.561523	224.070282
119.775532	5543.591667	414.290039	161.574646
119.775532	5543.591667	413.017578	309.807861
119.775532	5543.591667	411.746094	54.857784
119.775532	5543.591667	410.472656	159.451492
119.775532	5543.591667	409.200195	279.975372
119.775532	5543.591667	407.926758	253.913757
119.775532	5543.591667	406.653320	305.605499
119.775532	5543.591667	405.379883	249.690643
119.775532	5543.591667	404.105469	502.509369
119.775532	5543.591667	402.831055	240.636139
119.775532	5543.591667	401.556641	202.855713
119.775532	5543.591667	400.282227	457.589539
119.775532	5543.591667	399.006836	367.059906
119.775532	5543.591667	397.731445	260.491852
119.775532	5543.591667	396.456055	453.118011
119.775532	5543.591667	395.179688	421.758240
119.775532	5543.591667	393.903320	433.696503
119.775532	5543.591667	392.626953	367.913544
119.775532	5543.591667	391.350586	153.704956
119.775532	5543.591667	390.073242	320.530396
119.775532	5543.591667	388.795898	553.322998
119.775532	5543.591667	387.518555	322.895081
119.775532	5543.591667	386.240234	347.828613
119.775532	5543.591667	384.961914	466.088837
119.775532	5543.591667	383.683594	365.347473
119.775532	5543.591667	382.405273	353.378113
119.775532	5543.591667	381.125977	405.052765
119.775532	5543.591667	379.846680	376.825256
119.775532	5543.591667	378.567383	234.582016
119.775532	5543.591667	377.287109	260.711823
119.775532	5543.591667	376.006836	88.614616
119.775532	5543.591667	374.726563	216.817978
119.775532	5543.591667	373.446289	146.822418
119.775532	5543.591667	372.165039	142.626816
119.775532	5543.591667	370.883789	245.122208
119.775532	5543.591667	369.602539	13.107446
119.775532	5543.591667	368.320313	162.891418
119.775532	5543.591667	367.039063	98.739799
119.775532	5543.591667	365.755859	284.330627
119.775532	5543.591667	364.473633	140.182404
119.775532	5543.591667	363.190430	45.810307
119.775532	5543.591667	361.907227	-35.156479
119.775532	5543.591667	360.624023	76.624496
119.775532	5543.591667	359.340820	49.616100
119.775532	5543.591667	358.056641	-59.371971
119.775532	5543.591667	356.772461	203.488159
119.775532	5543.591667	355.487305	207.323639
119.775532	5543.591667	354.202148	13.532676
119.775532	5543.591667	352.916992	3.159083
119.775532	5543.591667	351.631836	130.734756
119.775532	5543.591667	350.346680	153.651230
119.775532	5543.591667	349.060547	17.577244
119.775532	5543.591667	347.774414	137.185959
119.775532	5543.591667	346.487305	29.859892
119.775532	5543.591667	345.200195	-91.399605
119.775532	5543.591667	343.913086	-95.285690
119.775532	5543.591667	342.625977	140.339783
119.775532	5543.591667	341.338867	47.303658
119.775532	5543.591667	340.050781	-109.491882
119.775532	5543.591667	338.762695	29.644188
119.775532	5543.591667	337.473633	107.181648
119.775532	5543.591667	336.184570	34.978149
119.775532	5543.591667	334.895508	-48.991375
119.775532	5543.591667	333.606445	60.926445
119.775532	5543.591667	332.317383	46.000435
119.775532	5543.591667	331.027344	159.293732
119.775532	5543.591667	329.736328	75.481056
119.775532	5543.591667	328.446289	2.438823
119.775532	5543.591667	327.155273	-73.426140
119.775532	5543.591667	325.864258	26.190853
119.775532	5543.591667	324.573242	73.247726
119.775532	5543.591667	323.281250	54.211323
119.775532	5543.591667	321.989258	23.255333
119.775532	5543.591667	320.697266	-80.516296
119.775532	5543.591667	319.405273	126.205139
119.775532	5543.591667	318.112305	-73.617859
119.775532	5543.591667	316.819336	-116.323189
119.775532	5543.591667	315.526367	70.067734
119.775532	5543.591667	314.232422	-68.775352
119.775532	5543.591667	312.938477	55.162243
119.775532	5543.591667	311.644531	38.647087
119.775532	5543.591667	310.349609	-82.250168
119.775532	5543.591667	309.054688	133.662552
119.775532	5543.591667	307.759766	-42.904041
119.775532	5543.591667	306.464844	166.667191
119.775532	5543.591667	305.168945	134.561905
119.775532	5543.591667	303.873047	126.281212
119.775532	5543.591667	302.577148	202.487915
119.775532	5543.591667	301.281250	196.775543
119.775532	5543.591667	299.984375	97.912216
