#X		#Y		#Wave		#Intensity
18.551064	5643.973333	1999.946289	-62.483700
18.551064	5643.973333	1998.981445	-39.210079
18.551064	5643.973333	1998.017578	-5.956199
18.551064	5643.973333	1997.052734	-64.562447
18.551064	5643.973333	1996.088867	-93.570457
18.551064	5643.973333	1995.124023	263.725433
18.551064	5643.973333	1994.159180	-60.359375
18.551064	5643.973333	1993.193359	48.882523
18.551064	5643.973333	1992.228516	91.099815
18.551064	5643.973333	1991.262695	-10.402737
18.551064	5643.973333	1990.296875	66.195389
18.551064	5643.973333	1989.331055	-20.673100
18.551064	5643.973333	1988.365234	-60.625374
18.551064	5643.973333	1987.398438	89.779129
18.551064	5643.973333	1986.432617	84.211632
18.551064	5643.973333	1985.465820	-59.931324
18.551064	5643.973333	1984.499023	-92.880692
18.551064	5643.973333	1983.532227	71.813362
18.551064	5643.973333	1982.565430	13.934564
18.551064	5643.973333	1981.597656	52.340370
18.551064	5643.973333	1980.629883	-213.210785
18.551064	5643.973333	1979.662109	10.276546
18.551064	5643.973333	1978.694336	120.001816
18.551064	5643.973333	1977.726563	118.500366
18.551064	5643.973333	1976.758789	153.944183
18.551064	5643.973333	1975.790039	-131.546555
18.551064	5643.973333	1974.821289	106.114861
18.551064	5643.973333	1973.852539	62.365829
18.551064	5643.973333	1972.883789	104.895653
18.551064	5643.973333	1971.915039	-42.554688
18.551064	5643.973333	1970.945313	-17.415461
18.551064	5643.973333	1969.975586	160.497726
18.551064	5643.973333	1969.005859	15.395400
18.551064	5643.973333	1968.036133	45.257557
18.551064	5643.973333	1967.066406	195.785812
18.551064	5643.973333	1966.096680	-72.579994
18.551064	5643.973333	1965.125977	40.862968
18.551064	5643.973333	1964.155273	149.290283
18.551064	5643.973333	1963.184570	70.513702
18.551064	5643.973333	1962.213867	65.571449
18.551064	5643.973333	1961.242188	3.979447
18.551064	5643.973333	1960.271484	-114.223618
18.551064	5643.973333	1959.299805	-23.304024
18.551064	5643.973333	1958.328125	70.005569
18.551064	5643.973333	1957.356445	-18.743210
18.551064	5643.973333	1956.384766	-14.056378
18.551064	5643.973333	1955.412109	49.597076
18.551064	5643.973333	1954.439453	32.085011
18.551064	5643.973333	1953.467773	240.643494
18.551064	5643.973333	1952.495117	-69.338295
18.551064	5643.973333	1951.521484	-35.312016
18.551064	5643.973333	1950.548828	84.644920
18.551064	5643.973333	1949.575195	184.887238
18.551064	5643.973333	1948.601563	-66.023026
18.551064	5643.973333	1947.627930	-56.654812
18.551064	5643.973333	1946.654297	141.671890
18.551064	5643.973333	1945.680664	69.986671
18.551064	5643.973333	1944.706055	57.189922
18.551064	5643.973333	1943.732422	56.651436
18.551064	5643.973333	1942.757813	-7.666207
18.551064	5643.973333	1941.783203	263.952179
18.551064	5643.973333	1940.807617	138.304260
18.551064	5643.973333	1939.833008	-14.265647
18.551064	5643.973333	1938.857422	90.526085
18.551064	5643.973333	1937.881836	-86.500984
18.551064	5643.973333	1936.906250	-153.230713
18.551064	5643.973333	1935.930664	171.940292
18.551064	5643.973333	1934.955078	-17.265453
18.551064	5643.973333	1933.978516	285.711121
18.551064	5643.973333	1933.001953	37.792912
18.551064	5643.973333	1932.025391	24.918171
18.551064	5643.973333	1931.048828	-78.492508
18.551064	5643.973333	1930.072266	-49.753910
18.551064	5643.973333	1929.094727	-94.413582
18.551064	5643.973333	1928.118164	-65.684181
18.551064	5643.973333	1927.140625	126.856094
18.551064	5643.973333	1926.163086	-0.932556
18.551064	5643.973333	1925.184570	66.865105
18.551064	5643.973333	1924.207031	12.452271
18.551064	5643.973333	1923.228516	107.101250
18.551064	5643.973333	1922.250000	121.102768
18.551064	5643.973333	1921.271484	-38.312328
18.551064	5643.973333	1920.292969	-60.913231
18.551064	5643.973333	1919.314453	-100.594162
18.551064	5643.973333	1918.334961	96.522835
18.551064	5643.973333	1917.355469	130.050598
18.551064	5643.973333	1916.375977	51.321400
18.551064	5643.973333	1915.396484	16.540522
18.551064	5643.973333	1914.416992	40.318497
18.551064	5643.973333	1913.436523	76.283180
18.551064	5643.973333	1912.457031	-207.179062
18.551064	5643.973333	1911.476563	-17.586174
18.551064	5643.973333	1910.496094	-5.990562
18.551064	5643.973333	1909.515625	17.789484
18.551064	5643.973333	1908.534180	19.634663
18.551064	5643.973333	1907.552734	-17.493847
18.551064	5643.973333	1906.572266	-35.114403
18.551064	5643.973333	1905.590820	268.712036
18.551064	5643.973333	1904.608398	58.707130
18.551064	5643.973333	1903.626953	-0.288969
18.551064	5643.973333	1902.644531	-68.996414
18.551064	5643.973333	1901.663086	47.262768
18.551064	5643.973333	1900.680664	-109.002090
18.551064	5643.973333	1899.698242	29.118214
18.551064	5643.973333	1898.714844	135.573593
18.551064	5643.973333	1897.732422	54.769444
18.551064	5643.973333	1896.749023	73.669174
18.551064	5643.973333	1895.765625	-21.671618
18.551064	5643.973333	1894.782227	9.394321
18.551064	5643.973333	1893.798828	62.317932
18.551064	5643.973333	1892.814453	-15.955825
18.551064	5643.973333	1891.831055	17.529066
18.551064	5643.973333	1890.846680	-77.699562
18.551064	5643.973333	1889.862305	-308.851837
18.551064	5643.973333	1888.877930	25.672503
18.551064	5643.973333	1887.892578	117.374054
18.551064	5643.973333	1886.908203	184.780014
18.551064	5643.973333	1885.922852	33.814659
18.551064	5643.973333	1884.937500	101.210167
18.551064	5643.973333	1883.952148	141.903671
18.551064	5643.973333	1882.965820	-38.067184
18.551064	5643.973333	1881.980469	36.576664
18.551064	5643.973333	1880.994141	67.560257
18.551064	5643.973333	1880.007813	-71.102081
18.551064	5643.973333	1879.021484	39.841187
18.551064	5643.973333	1878.035156	-173.862305
18.551064	5643.973333	1877.047852	-191.312668
18.551064	5643.973333	1876.061523	-172.434036
18.551064	5643.973333	1875.074219	158.748596
18.551064	5643.973333	1874.086914	-144.396027
18.551064	5643.973333	1873.098633	46.277084
18.551064	5643.973333	1872.111328	-99.461891
18.551064	5643.973333	1871.123047	137.087585
18.551064	5643.973333	1870.135742	8.307031
18.551064	5643.973333	1869.147461	27.083481
18.551064	5643.973333	1868.158203	16.829510
18.551064	5643.973333	1867.169922	-44.191509
18.551064	5643.973333	1866.180664	-66.528145
18.551064	5643.973333	1865.192383	-166.191422
18.551064	5643.973333	1864.203125	111.078644
18.551064	5643.973333	1863.213867	79.035553
18.551064	5643.973333	1862.223633	10.764579
18.551064	5643.973333	1861.234375	43.929543
18.551064	5643.973333	1860.244141	55.340153
18.551064	5643.973333	1859.253906	262.252869
18.551064	5643.973333	1858.263672	-112.541855
18.551064	5643.973333	1857.273438	178.751358
18.551064	5643.973333	1856.282227	95.990166
18.551064	5643.973333	1855.291992	-56.698639
18.551064	5643.973333	1854.300781	-14.012310
18.551064	5643.973333	1853.309570	-38.868183
18.551064	5643.973333	1852.317383	391.876495
18.551064	5643.973333	1851.326172	34.318340
18.551064	5643.973333	1850.333984	-17.089617
18.551064	5643.973333	1849.342773	124.249313
18.551064	5643.973333	1848.350586	5.361320
18.551064	5643.973333	1847.357422	122.516319
18.551064	5643.973333	1846.365234	-155.285599
18.551064	5643.973333	1845.372070	139.969971
18.551064	5643.973333	1844.379883	242.538055
18.551064	5643.973333	1843.386719	106.793335
18.551064	5643.973333	1842.393555	-173.286835
18.551064	5643.973333	1841.399414	-82.816742
18.551064	5643.973333	1840.406250	74.946136
18.551064	5643.973333	1839.412109	-34.303375
18.551064	5643.973333	1838.417969	-102.662056
18.551064	5643.973333	1837.423828	-106.114822
18.551064	5643.973333	1836.429688	-37.489372
18.551064	5643.973333	1835.434570	117.588181
18.551064	5643.973333	1834.440430	-114.215553
18.551064	5643.973333	1833.445313	4.735410
18.551064	5643.973333	1832.450195	207.670609
18.551064	5643.973333	1831.454102	-2.496127
18.551064	5643.973333	1830.458984	121.086586
18.551064	5643.973333	1829.462891	45.371933
18.551064	5643.973333	1828.466797	212.033890
18.551064	5643.973333	1827.470703	13.906919
18.551064	5643.973333	1826.474609	79.700447
18.551064	5643.973333	1825.478516	104.665932
18.551064	5643.973333	1824.481445	148.769791
18.551064	5643.973333	1823.484375	137.684174
18.551064	5643.973333	1822.487305	-46.018135
18.551064	5643.973333	1821.490234	-35.558353
18.551064	5643.973333	1820.493164	-25.135204
18.551064	5643.973333	1819.495117	4.410963
18.551064	5643.973333	1818.498047	79.426376
18.551064	5643.973333	1817.500000	-18.050455
18.551064	5643.973333	1816.500977	-10.178302
18.551064	5643.973333	1815.502930	222.685181
18.551064	5643.973333	1814.504883	60.508183
18.551064	5643.973333	1813.505859	-111.221680
18.551064	5643.973333	1812.506836	154.911331
18.551064	5643.973333	1811.507813	-19.237759
18.551064	5643.973333	1810.508789	-42.685005
18.551064	5643.973333	1809.508789	146.647903
18.551064	5643.973333	1808.508789	29.858515
18.551064	5643.973333	1807.508789	85.172958
18.551064	5643.973333	1806.508789	-36.419895
18.551064	5643.973333	1805.508789	100.045364
18.551064	5643.973333	1804.508789	116.972641
18.551064	5643.973333	1803.507813	95.632462
18.551064	5643.973333	1802.506836	7.395075
18.551064	5643.973333	1801.505859	358.461273
18.551064	5643.973333	1800.504883	198.509415
18.551064	5643.973333	1799.502930	155.517883
18.551064	5643.973333	1798.501953	26.601061
18.551064	5643.973333	1797.500000	-40.284904
18.551064	5643.973333	1796.498047	-40.401329
18.551064	5643.973333	1795.496094	143.072754
18.551064	5643.973333	1794.493164	56.989597
18.551064	5643.973333	1793.491211	-79.162941
18.551064	5643.973333	1792.488281	206.566040
18.551064	5643.973333	1791.485352	-8.299369
18.551064	5643.973333	1790.482422	36.574516
18.551064	5643.973333	1789.478516	157.609131
18.551064	5643.973333	1788.475586	64.203903
18.551064	5643.973333	1787.471680	46.982231
18.551064	5643.973333	1786.467773	113.047531
18.551064	5643.973333	1785.463867	71.925926
18.551064	5643.973333	1784.459961	-66.803719
18.551064	5643.973333	1783.455078	-107.976044
18.551064	5643.973333	1782.450195	155.329956
18.551064	5643.973333	1781.445313	-138.090988
18.551064	5643.973333	1780.440430	201.123215
18.551064	5643.973333	1779.435547	116.940147
18.551064	5643.973333	1778.429688	75.524979
18.551064	5643.973333	1777.424805	-32.467892
18.551064	5643.973333	1776.418945	106.660217
18.551064	5643.973333	1775.413086	-15.656604
18.551064	5643.973333	1774.406250	156.565033
18.551064	5643.973333	1773.400391	22.310970
18.551064	5643.973333	1772.393555	18.648708
18.551064	5643.973333	1771.386719	314.065277
18.551064	5643.973333	1770.379883	70.517601
18.551064	5643.973333	1769.373047	145.010452
18.551064	5643.973333	1768.365234	50.957649
18.551064	5643.973333	1767.358398	101.602493
18.551064	5643.973333	1766.350586	197.234634
18.551064	5643.973333	1765.342773	79.360977
18.551064	5643.973333	1764.334961	248.355469
18.551064	5643.973333	1763.326172	73.517509
18.551064	5643.973333	1762.318359	194.948303
18.551064	5643.973333	1761.309570	95.908783
18.551064	5643.973333	1760.300781	22.915865
18.551064	5643.973333	1759.291016	115.695564
18.551064	5643.973333	1758.282227	-30.789177
18.551064	5643.973333	1757.272461	166.041565
18.551064	5643.973333	1756.262695	175.733261
18.551064	5643.973333	1755.252930	33.892384
18.551064	5643.973333	1754.243164	76.630287
18.551064	5643.973333	1753.233398	79.079819
18.551064	5643.973333	1752.222656	-41.533283
18.551064	5643.973333	1751.211914	-43.901543
18.551064	5643.973333	1750.201172	128.656738
18.551064	5643.973333	1749.190430	225.446350
18.551064	5643.973333	1748.179688	-152.948685
18.551064	5643.973333	1747.167969	-131.875046
18.551064	5643.973333	1746.156250	-110.859955
18.551064	5643.973333	1745.144531	-127.702126
18.551064	5643.973333	1744.132813	53.807545
18.551064	5643.973333	1743.121094	41.561760
18.551064	5643.973333	1742.108398	118.978271
18.551064	5643.973333	1741.095703	-23.213017
18.551064	5643.973333	1740.083008	-49.758045
18.551064	5643.973333	1739.070313	140.740814
18.551064	5643.973333	1738.057617	106.995651
18.551064	5643.973333	1737.043945	-80.109184
18.551064	5643.973333	1736.030273	107.768806
18.551064	5643.973333	1735.016602	52.671806
18.551064	5643.973333	1734.002930	148.416428
18.551064	5643.973333	1732.989258	64.950165
18.551064	5643.973333	1731.974609	7.378871
18.551064	5643.973333	1730.959961	142.973038
18.551064	5643.973333	1729.945313	-48.955578
18.551064	5643.973333	1728.930664	-90.133278
18.551064	5643.973333	1727.916016	-81.896713
18.551064	5643.973333	1726.900391	-45.468327
18.551064	5643.973333	1725.885742	230.989120
18.551064	5643.973333	1724.870117	140.168182
18.551064	5643.973333	1723.853516	185.792633
18.551064	5643.973333	1722.837891	109.034981
18.551064	5643.973333	1721.822266	-50.058723
18.551064	5643.973333	1720.805664	11.894374
18.551064	5643.973333	1719.789063	-137.817108
18.551064	5643.973333	1718.772461	147.344284
18.551064	5643.973333	1717.754883	-28.288521
18.551064	5643.973333	1716.738281	-62.908714
18.551064	5643.973333	1715.720703	-5.948449
18.551064	5643.973333	1714.703125	-35.960648
18.551064	5643.973333	1713.685547	81.939827
18.551064	5643.973333	1712.667969	143.401794
18.551064	5643.973333	1711.649414	108.541222
18.551064	5643.973333	1710.630859	176.919617
18.551064	5643.973333	1709.612305	306.238556
18.551064	5643.973333	1708.593750	-33.756424
18.551064	5643.973333	1707.575195	-216.504349
18.551064	5643.973333	1706.555664	60.427963
18.551064	5643.973333	1705.536133	212.940155
18.551064	5643.973333	1704.516602	-340.283752
18.551064	5643.973333	1703.497070	-51.891708
18.551064	5643.973333	1702.477539	-21.425276
18.551064	5643.973333	1701.457031	90.984154
18.551064	5643.973333	1700.437500	-47.328930
18.551064	5643.973333	1699.416992	-59.164928
18.551064	5643.973333	1698.395508	60.085930
18.551064	5643.973333	1697.375000	-108.700638
18.551064	5643.973333	1696.354492	75.986511
18.551064	5643.973333	1695.333008	-29.634558
18.551064	5643.973333	1694.311523	-13.582704
18.551064	5643.973333	1693.290039	-84.128883
18.551064	5643.973333	1692.267578	11.369689
18.551064	5643.973333	1691.246094	-5.440341
18.551064	5643.973333	1690.223633	8.105952
18.551064	5643.973333	1689.201172	44.988922
18.551064	5643.973333	1688.178711	-72.425644
18.551064	5643.973333	1687.155273	-138.430603
18.551064	5643.973333	1686.132813	78.248917
18.551064	5643.973333	1685.109375	28.525661
18.551064	5643.973333	1684.085938	-9.531968
18.551064	5643.973333	1683.062500	279.273895
18.551064	5643.973333	1682.039063	182.761185
18.551064	5643.973333	1681.014648	18.560806
18.551064	5643.973333	1679.990234	43.409241
18.551064	5643.973333	1678.965820	72.885223
18.551064	5643.973333	1677.941406	-175.258682
18.551064	5643.973333	1676.916992	19.776993
18.551064	5643.973333	1675.891602	-18.470753
18.551064	5643.973333	1674.866211	15.540405
18.551064	5643.973333	1673.840820	326.879456
18.551064	5643.973333	1672.815430	190.643738
18.551064	5643.973333	1671.790039	236.168839
18.551064	5643.973333	1670.763672	263.008301
18.551064	5643.973333	1669.737305	164.046402
18.551064	5643.973333	1668.710938	297.957611
18.551064	5643.973333	1667.684570	31.358797
18.551064	5643.973333	1666.658203	39.507473
18.551064	5643.973333	1665.630859	224.491318
18.551064	5643.973333	1664.603516	244.182953
18.551064	5643.973333	1663.576172	89.374084
18.551064	5643.973333	1662.548828	241.622040
18.551064	5643.973333	1661.520508	268.210754
18.551064	5643.973333	1660.493164	301.757050
18.551064	5643.973333	1659.464844	388.727478
18.551064	5643.973333	1658.436523	275.779022
18.551064	5643.973333	1657.408203	518.373291
18.551064	5643.973333	1656.378906	426.312683
18.551064	5643.973333	1655.350586	160.078491
18.551064	5643.973333	1654.321289	107.574684
18.551064	5643.973333	1653.291992	345.308838
18.551064	5643.973333	1652.261719	267.221069
18.551064	5643.973333	1651.232422	365.554413
18.551064	5643.973333	1650.202148	273.548737
18.551064	5643.973333	1649.171875	248.851303
18.551064	5643.973333	1648.141602	326.216766
18.551064	5643.973333	1647.111328	333.970123
18.551064	5643.973333	1646.080078	550.386414
18.551064	5643.973333	1645.049805	588.217468
18.551064	5643.973333	1644.018555	313.115387
18.551064	5643.973333	1642.987305	552.567200
18.551064	5643.973333	1641.955078	641.312927
18.551064	5643.973333	1640.923828	611.892517
18.551064	5643.973333	1639.891602	598.682495
18.551064	5643.973333	1638.859375	726.724792
18.551064	5643.973333	1637.827148	831.566040
18.551064	5643.973333	1636.794922	621.573242
18.551064	5643.973333	1635.761719	663.900452
18.551064	5643.973333	1634.729492	750.183228
18.551064	5643.973333	1633.696289	630.541443
18.551064	5643.973333	1632.662109	864.805969
18.551064	5643.973333	1631.628906	680.447388
18.551064	5643.973333	1630.594727	611.752563
18.551064	5643.973333	1629.561523	938.367798
18.551064	5643.973333	1628.527344	871.971558
18.551064	5643.973333	1627.493164	821.782471
18.551064	5643.973333	1626.458008	757.749573
18.551064	5643.973333	1625.423828	864.679260
18.551064	5643.973333	1624.388672	1100.884888
18.551064	5643.973333	1623.353516	840.613342
18.551064	5643.973333	1622.318359	922.091919
18.551064	5643.973333	1621.282227	1042.774658
18.551064	5643.973333	1620.247070	1075.750000
18.551064	5643.973333	1619.210938	1113.328613
18.551064	5643.973333	1618.174805	841.826599
18.551064	5643.973333	1617.137695	1024.741943
18.551064	5643.973333	1616.101563	1080.797852
18.551064	5643.973333	1615.064453	1079.209229
18.551064	5643.973333	1614.027344	1043.066528
18.551064	5643.973333	1612.990234	1212.040649
18.551064	5643.973333	1611.953125	993.916382
18.551064	5643.973333	1610.916016	1280.346924
18.551064	5643.973333	1609.877930	1306.440918
18.551064	5643.973333	1608.839844	1189.788452
18.551064	5643.973333	1607.801758	1174.494995
18.551064	5643.973333	1606.763672	1562.016479
18.551064	5643.973333	1605.724609	1318.875488
18.551064	5643.973333	1604.685547	1278.319580
18.551064	5643.973333	1603.646484	1318.314209
18.551064	5643.973333	1602.607422	1112.236328
18.551064	5643.973333	1601.568359	1094.815186
18.551064	5643.973333	1600.528320	1380.880371
18.551064	5643.973333	1599.489258	1464.604126
18.551064	5643.973333	1598.449219	1398.941772
18.551064	5643.973333	1597.408203	1151.816040
18.551064	5643.973333	1596.368164	1233.318970
18.551064	5643.973333	1595.327148	1103.516479
18.551064	5643.973333	1594.287109	1125.358032
18.551064	5643.973333	1593.246094	1002.580078
18.551064	5643.973333	1592.204102	907.420044
18.551064	5643.973333	1591.163086	1230.012695
18.551064	5643.973333	1590.121094	1063.787354
18.551064	5643.973333	1589.079102	1099.535889
18.551064	5643.973333	1588.037109	1158.244507
18.551064	5643.973333	1586.995117	1056.448853
18.551064	5643.973333	1585.953125	1055.609009
18.551064	5643.973333	1584.910156	1066.261841
18.551064	5643.973333	1583.867188	863.817261
18.551064	5643.973333	1582.824219	1122.047485
18.551064	5643.973333	1581.781250	990.770691
18.551064	5643.973333	1580.737305	708.411743
18.551064	5643.973333	1579.693359	996.410645
18.551064	5643.973333	1578.649414	982.123535
18.551064	5643.973333	1577.605469	727.533691
18.551064	5643.973333	1576.561523	1038.380981
18.551064	5643.973333	1575.516602	1108.885498
18.551064	5643.973333	1574.472656	831.683716
18.551064	5643.973333	1573.427734	1012.086975
18.551064	5643.973333	1572.381836	1004.939941
18.551064	5643.973333	1571.336914	936.120911
18.551064	5643.973333	1570.291016	970.238525
18.551064	5643.973333	1569.246094	1004.401184
18.551064	5643.973333	1568.200195	810.090942
18.551064	5643.973333	1567.153320	967.729431
18.551064	5643.973333	1566.107422	1113.946411
18.551064	5643.973333	1565.060547	878.775818
18.551064	5643.973333	1564.013672	979.389160
18.551064	5643.973333	1562.966797	749.013855
18.551064	5643.973333	1561.919922	1007.208069
18.551064	5643.973333	1560.872070	904.808838
18.551064	5643.973333	1559.825195	1010.128723
18.551064	5643.973333	1558.777344	930.696411
18.551064	5643.973333	1557.729492	969.943970
18.551064	5643.973333	1556.680664	867.862854
18.551064	5643.973333	1555.632813	768.168457
18.551064	5643.973333	1554.583984	823.554016
18.551064	5643.973333	1553.535156	860.751099
18.551064	5643.973333	1552.486328	868.377563
18.551064	5643.973333	1551.436523	912.503296
18.551064	5643.973333	1550.387695	610.515808
18.551064	5643.973333	1549.337891	811.914795
18.551064	5643.973333	1548.288086	687.758484
18.551064	5643.973333	1547.238281	691.177429
18.551064	5643.973333	1546.187500	615.008423
18.551064	5643.973333	1545.136719	493.433655
18.551064	5643.973333	1544.086914	665.422058
18.551064	5643.973333	1543.035156	735.055481
18.551064	5643.973333	1541.984375	584.176147
18.551064	5643.973333	1540.933594	435.700104
18.551064	5643.973333	1539.881836	528.278931
18.551064	5643.973333	1538.830078	614.075867
18.551064	5643.973333	1537.778320	434.081696
18.551064	5643.973333	1536.725586	594.964844
18.551064	5643.973333	1535.673828	446.987885
18.551064	5643.973333	1534.621094	498.958862
18.551064	5643.973333	1533.568359	566.876465
18.551064	5643.973333	1532.515625	591.716919
18.551064	5643.973333	1531.461914	564.422363
18.551064	5643.973333	1530.409180	686.968445
18.551064	5643.973333	1529.355469	637.134766
18.551064	5643.973333	1528.301758	712.139221
18.551064	5643.973333	1527.247070	571.769104
18.551064	5643.973333	1526.193359	533.559021
18.551064	5643.973333	1525.138672	425.171814
18.551064	5643.973333	1524.083984	543.529297
18.551064	5643.973333	1523.029297	723.096863
18.551064	5643.973333	1521.974609	465.466797
18.551064	5643.973333	1520.918945	418.649353
18.551064	5643.973333	1519.863281	430.808228
18.551064	5643.973333	1518.807617	295.886322
18.551064	5643.973333	1517.751953	9.444583
18.551064	5643.973333	1516.696289	214.289185
18.551064	5643.973333	1515.639648	129.515762
18.551064	5643.973333	1514.583008	108.202583
18.551064	5643.973333	1513.526367	114.123543
18.551064	5643.973333	1512.469727	-6.504135
18.551064	5643.973333	1511.412109	198.561005
18.551064	5643.973333	1510.355469	71.356972
18.551064	5643.973333	1509.297852	-128.031174
18.551064	5643.973333	1508.240234	-234.612579
18.551064	5643.973333	1507.181641	-20.282213
18.551064	5643.973333	1506.124023	11.109531
18.551064	5643.973333	1505.065430	-36.460011
18.551064	5643.973333	1504.006836	-43.283577
18.551064	5643.973333	1502.948242	-268.967224
18.551064	5643.973333	1501.888672	-128.870377
18.551064	5643.973333	1500.830078	115.058029
18.551064	5643.973333	1499.770508	4.799088
18.551064	5643.973333	1498.710938	160.821320
18.551064	5643.973333	1497.650391	-120.602539
18.551064	5643.973333	1496.590820	67.132545
18.551064	5643.973333	1495.530273	-44.915501
18.551064	5643.973333	1494.469727	154.182404
18.551064	5643.973333	1493.409180	-108.616394
18.551064	5643.973333	1492.348633	-64.838936
18.551064	5643.973333	1491.287109	-43.508850
18.551064	5643.973333	1490.225586	99.509590
18.551064	5643.973333	1489.164063	-47.869267
18.551064	5643.973333	1488.102539	-242.363892
18.551064	5643.973333	1487.041016	155.207611
18.551064	5643.973333	1485.978516	149.949005
18.551064	5643.973333	1484.916016	203.290421
18.551064	5643.973333	1483.853516	202.708694
18.551064	5643.973333	1482.791016	29.082975
18.551064	5643.973333	1481.727539	338.997772
18.551064	5643.973333	1480.664063	340.933685
18.551064	5643.973333	1479.600586	264.337189
18.551064	5643.973333	1478.537109	196.844238
18.551064	5643.973333	1477.473633	275.493134
18.551064	5643.973333	1476.409180	111.640312
18.551064	5643.973333	1475.344727	257.864471
18.551064	5643.973333	1474.280273	-20.089096
18.551064	5643.973333	1473.215820	153.185059
18.551064	5643.973333	1472.151367	-34.717201
18.551064	5643.973333	1471.085938	143.176239
18.551064	5643.973333	1470.020508	105.930870
18.551064	5643.973333	1468.955078	124.745079
18.551064	5643.973333	1467.888672	165.952576
18.551064	5643.973333	1466.823242	57.586613
18.551064	5643.973333	1465.756836	208.798935
18.551064	5643.973333	1464.690430	-36.212662
18.551064	5643.973333	1463.624023	99.588051
18.551064	5643.973333	1462.556641	224.293030
18.551064	5643.973333	1461.490234	102.698227
18.551064	5643.973333	1460.422852	135.738510
18.551064	5643.973333	1459.355469	429.743988
18.551064	5643.973333	1458.287109	311.409485
18.551064	5643.973333	1457.219727	315.700104
18.551064	5643.973333	1456.151367	239.469376
18.551064	5643.973333	1455.083008	101.090965
18.551064	5643.973333	1454.014648	253.307083
18.551064	5643.973333	1452.945313	529.540527
18.551064	5643.973333	1451.876953	320.321869
18.551064	5643.973333	1450.807617	211.565094
18.551064	5643.973333	1449.738281	357.194092
18.551064	5643.973333	1448.668945	381.238190
18.551064	5643.973333	1447.598633	184.589386
18.551064	5643.973333	1446.528320	412.928070
18.551064	5643.973333	1445.458008	197.852890
18.551064	5643.973333	1444.387695	347.570831
18.551064	5643.973333	1443.317383	473.796661
18.551064	5643.973333	1442.246094	161.668945
18.551064	5643.973333	1441.174805	389.429108
18.551064	5643.973333	1440.103516	319.037079
18.551064	5643.973333	1439.032227	206.130402
18.551064	5643.973333	1437.960938	223.803787
18.551064	5643.973333	1436.888672	346.946198
18.551064	5643.973333	1435.816406	234.542664
18.551064	5643.973333	1434.744141	234.924149
18.551064	5643.973333	1433.670898	-24.856033
18.551064	5643.973333	1432.598633	244.014206
18.551064	5643.973333	1431.525391	77.115280
18.551064	5643.973333	1430.452148	73.590919
18.551064	5643.973333	1429.378906	83.769112
18.551064	5643.973333	1428.304688	184.016083
18.551064	5643.973333	1427.231445	-89.021103
18.551064	5643.973333	1426.157227	13.733008
18.551064	5643.973333	1425.083008	115.664803
18.551064	5643.973333	1424.007813	200.385010
18.551064	5643.973333	1422.933594	-49.349770
18.551064	5643.973333	1421.858398	-115.456490
18.551064	5643.973333	1420.783203	-23.512083
18.551064	5643.973333	1419.708008	-227.114410
18.551064	5643.973333	1418.631836	-60.269497
18.551064	5643.973333	1417.555664	11.462018
18.551064	5643.973333	1416.479492	-13.017745
18.551064	5643.973333	1415.403320	-49.048866
18.551064	5643.973333	1414.327148	-213.472412
18.551064	5643.973333	1413.250000	-108.614311
18.551064	5643.973333	1412.173828	263.862152
18.551064	5643.973333	1411.096680	168.539871
18.551064	5643.973333	1410.018555	0.552602
18.551064	5643.973333	1408.941406	86.070488
18.551064	5643.973333	1407.863281	173.778473
18.551064	5643.973333	1406.785156	-32.092072
18.551064	5643.973333	1405.707031	291.895050
18.551064	5643.973333	1404.628906	119.777634
18.551064	5643.973333	1403.549805	160.577179
18.551064	5643.973333	1402.470703	121.446518
18.551064	5643.973333	1401.391602	99.170494
18.551064	5643.973333	1400.312500	195.352264
18.551064	5643.973333	1399.233398	126.597961
18.551064	5643.973333	1398.153320	84.360146
18.551064	5643.973333	1397.073242	359.163239
18.551064	5643.973333	1395.993164	305.863342
18.551064	5643.973333	1394.913086	171.306763
18.551064	5643.973333	1393.832031	7.495214
18.551064	5643.973333	1392.750977	187.036743
18.551064	5643.973333	1391.669922	109.269836
18.551064	5643.973333	1390.588867	150.085678
18.551064	5643.973333	1389.506836	193.841812
18.551064	5643.973333	1388.425781	167.413849
18.551064	5643.973333	1387.343750	239.775116
18.551064	5643.973333	1386.261719	73.119034
18.551064	5643.973333	1385.178711	193.675507
18.551064	5643.973333	1384.096680	60.564571
18.551064	5643.973333	1383.013672	105.822708
18.551064	5643.973333	1381.930664	223.840225
18.551064	5643.973333	1380.846680	270.138367
18.551064	5643.973333	1379.763672	293.111847
18.551064	5643.973333	1378.679688	411.236298
18.551064	5643.973333	1377.595703	179.036392
18.551064	5643.973333	1376.511719	140.857391
18.551064	5643.973333	1375.427734	98.924400
18.551064	5643.973333	1374.342773	335.627228
18.551064	5643.973333	1373.257813	254.578186
18.551064	5643.973333	1372.172852	169.593155
18.551064	5643.973333	1371.087891	64.844467
18.551064	5643.973333	1370.001953	235.379501
18.551064	5643.973333	1368.916992	438.685089
18.551064	5643.973333	1367.831055	275.407288
18.551064	5643.973333	1366.744141	440.193268
18.551064	5643.973333	1365.658203	250.792084
18.551064	5643.973333	1364.571289	281.498688
18.551064	5643.973333	1363.484375	270.983185
18.551064	5643.973333	1362.397461	237.680542
18.551064	5643.973333	1361.310547	238.870514
18.551064	5643.973333	1360.222656	403.551300
18.551064	5643.973333	1359.135742	381.217041
18.551064	5643.973333	1358.047852	513.402893
18.551064	5643.973333	1356.958984	464.768585
18.551064	5643.973333	1355.871094	518.054016
18.551064	5643.973333	1354.782227	544.419678
18.551064	5643.973333	1353.693359	461.314209
18.551064	5643.973333	1352.604492	498.275146
18.551064	5643.973333	1351.515625	627.718872
18.551064	5643.973333	1350.425781	571.095337
18.551064	5643.973333	1349.335938	442.534607
18.551064	5643.973333	1348.246094	582.388550
18.551064	5643.973333	1347.156250	550.093018
18.551064	5643.973333	1346.066406	264.457092
18.551064	5643.973333	1344.975586	349.235657
18.551064	5643.973333	1343.884766	473.430450
18.551064	5643.973333	1342.793945	587.357239
18.551064	5643.973333	1341.702148	428.107117
18.551064	5643.973333	1340.611328	425.855408
18.551064	5643.973333	1339.519531	318.514496
18.551064	5643.973333	1338.427734	360.469543
18.551064	5643.973333	1337.334961	274.519867
18.551064	5643.973333	1336.243164	311.141998
18.551064	5643.973333	1335.150391	190.376785
18.551064	5643.973333	1334.057617	228.855194
18.551064	5643.973333	1332.964844	327.335327
18.551064	5643.973333	1331.871094	209.748642
18.551064	5643.973333	1330.778320	215.583755
18.551064	5643.973333	1329.684570	161.203369
18.551064	5643.973333	1328.590820	101.500816
18.551064	5643.973333	1327.496094	254.300354
18.551064	5643.973333	1326.402344	169.089142
18.551064	5643.973333	1325.307617	247.343582
18.551064	5643.973333	1324.212891	119.343506
18.551064	5643.973333	1323.117188	108.623344
18.551064	5643.973333	1322.022461	258.933441
18.551064	5643.973333	1320.926758	284.144226
18.551064	5643.973333	1319.831055	271.035278
18.551064	5643.973333	1318.735352	204.004272
18.551064	5643.973333	1317.638672	150.441406
18.551064	5643.973333	1316.542969	279.087708
18.551064	5643.973333	1315.446289	147.627533
18.551064	5643.973333	1314.349609	250.441772
18.551064	5643.973333	1313.251953	286.377808
18.551064	5643.973333	1312.155273	292.694763
18.551064	5643.973333	1311.057617	268.621429
18.551064	5643.973333	1309.959961	256.516907
18.551064	5643.973333	1308.862305	231.865845
18.551064	5643.973333	1307.763672	359.536346
18.551064	5643.973333	1306.665039	292.153046
18.551064	5643.973333	1305.566406	200.951523
18.551064	5643.973333	1304.467773	204.996475
18.551064	5643.973333	1303.369141	155.361359
18.551064	5643.973333	1302.269531	252.788528
18.551064	5643.973333	1301.169922	310.246124
18.551064	5643.973333	1300.070313	323.243164
18.551064	5643.973333	1298.970703	351.518158
18.551064	5643.973333	1297.870117	381.006927
18.551064	5643.973333	1296.769531	324.969513
18.551064	5643.973333	1295.668945	111.109169
18.551064	5643.973333	1294.568359	323.241608
18.551064	5643.973333	1293.466797	286.916077
18.551064	5643.973333	1292.366211	222.204620
18.551064	5643.973333	1291.264648	261.210510
18.551064	5643.973333	1290.162109	300.002441
18.551064	5643.973333	1289.060547	256.909973
18.551064	5643.973333	1287.958008	16.834492
18.551064	5643.973333	1286.855469	7.269003
18.551064	5643.973333	1285.752930	24.923668
18.551064	5643.973333	1284.650391	83.063339
18.551064	5643.973333	1283.546875	1.378239
18.551064	5643.973333	1282.444336	-80.935265
18.551064	5643.973333	1281.339844	-42.550957
18.551064	5643.973333	1280.236328	-1.444062
18.551064	5643.973333	1279.132813	103.130356
18.551064	5643.973333	1278.028320	-99.845329
18.551064	5643.973333	1276.923828	32.823719
18.551064	5643.973333	1275.819336	52.901386
18.551064	5643.973333	1274.713867	83.825188
18.551064	5643.973333	1273.608398	-36.838039
18.551064	5643.973333	1272.503906	75.293877
18.551064	5643.973333	1271.397461	-49.216763
18.551064	5643.973333	1270.291992	-52.728733
18.551064	5643.973333	1269.185547	-36.009609
18.551064	5643.973333	1268.080078	-31.030720
18.551064	5643.973333	1266.972656	120.392578
18.551064	5643.973333	1265.866211	81.550659
18.551064	5643.973333	1264.759766	31.418285
18.551064	5643.973333	1263.652344	48.860935
18.551064	5643.973333	1262.544922	-14.806734
18.551064	5643.973333	1261.436523	12.455595
18.551064	5643.973333	1260.329102	-25.561968
18.551064	5643.973333	1259.220703	-11.145184
18.551064	5643.973333	1258.112305	58.499050
18.551064	5643.973333	1257.003906	-40.859535
18.551064	5643.973333	1255.895508	126.009743
18.551064	5643.973333	1254.786133	-107.364418
18.551064	5643.973333	1253.676758	-4.709491
18.551064	5643.973333	1252.567383	-28.199089
18.551064	5643.973333	1251.458008	-201.236328
18.551064	5643.973333	1250.347656	-151.011185
18.551064	5643.973333	1249.237305	-220.215073
18.551064	5643.973333	1248.126953	-103.967873
18.551064	5643.973333	1247.016602	-29.639496
18.551064	5643.973333	1245.905273	-14.555632
18.551064	5643.973333	1244.793945	-89.705559
18.551064	5643.973333	1243.682617	-27.792175
18.551064	5643.973333	1242.571289	-137.707840
18.551064	5643.973333	1241.459961	125.981277
18.551064	5643.973333	1240.347656	141.709274
18.551064	5643.973333	1239.235352	-16.700640
18.551064	5643.973333	1238.123047	19.155079
18.551064	5643.973333	1237.009766	14.158806
18.551064	5643.973333	1235.897461	-25.241579
18.551064	5643.973333	1234.784180	87.157890
18.551064	5643.973333	1233.670898	-43.284439
18.551064	5643.973333	1232.556641	-47.111965
18.551064	5643.973333	1231.443359	10.384899
18.551064	5643.973333	1230.329102	38.078117
18.551064	5643.973333	1229.214844	-56.780411
18.551064	5643.973333	1228.099609	-105.118843
18.551064	5643.973333	1226.985352	-14.843784
18.551064	5643.973333	1225.870117	-128.971939
18.551064	5643.973333	1224.754883	95.955620
18.551064	5643.973333	1223.639648	31.728235
18.551064	5643.973333	1222.523438	108.097427
18.551064	5643.973333	1221.408203	-138.353119
18.551064	5643.973333	1220.291992	-48.610840
18.551064	5643.973333	1219.174805	-51.491894
18.551064	5643.973333	1218.058594	8.137252
18.551064	5643.973333	1216.941406	-2.233335
18.551064	5643.973333	1215.824219	-10.900511
18.551064	5643.973333	1214.707031	-34.661839
18.551064	5643.973333	1213.589844	-32.961357
18.551064	5643.973333	1212.471680	113.948517
18.551064	5643.973333	1211.353516	25.436981
18.551064	5643.973333	1210.235352	-16.408741
18.551064	5643.973333	1209.117188	37.222206
18.551064	5643.973333	1207.998047	69.913307
18.551064	5643.973333	1206.878906	-11.246446
18.551064	5643.973333	1205.759766	127.877052
18.551064	5643.973333	1204.640625	-40.133846
18.551064	5643.973333	1203.520508	114.063095
18.551064	5643.973333	1202.401367	-68.359177
18.551064	5643.973333	1201.281250	-81.561256
18.551064	5643.973333	1200.160156	-107.756721
18.551064	5643.973333	1199.040039	-109.538139
18.551064	5643.973333	1197.918945	-77.897247
18.551064	5643.973333	1196.797852	-102.188255
18.551064	5643.973333	1195.676758	-63.986973
18.551064	5643.973333	1194.555664	165.346603
18.551064	5643.973333	1193.433594	0.526666
18.551064	5643.973333	1192.311523	56.282097
18.551064	5643.973333	1191.189453	54.502918
18.551064	5643.973333	1190.066406	52.699165
18.551064	5643.973333	1188.944336	-43.152020
18.551064	5643.973333	1187.821289	-143.161819
18.551064	5643.973333	1186.698242	43.479828
18.551064	5643.973333	1185.574219	189.838547
18.551064	5643.973333	1184.451172	-7.648339
18.551064	5643.973333	1183.327148	-118.913490
18.551064	5643.973333	1182.203125	-31.272697
18.551064	5643.973333	1181.078125	-44.444599
18.551064	5643.973333	1179.954102	-19.717255
18.551064	5643.973333	1178.829102	28.576117
18.551064	5643.973333	1177.704102	-156.556915
18.551064	5643.973333	1176.579102	-50.071972
18.551064	5643.973333	1175.453125	12.831728
18.551064	5643.973333	1174.327148	-95.451431
18.551064	5643.973333	1173.201172	4.797744
18.551064	5643.973333	1172.075195	-108.742554
18.551064	5643.973333	1170.949219	-87.426353
18.551064	5643.973333	1169.822266	-113.368042
18.551064	5643.973333	1168.695313	10.212682
18.551064	5643.973333	1167.568359	28.466681
18.551064	5643.973333	1166.440430	74.783401
18.551064	5643.973333	1165.313477	79.508415
18.551064	5643.973333	1164.185547	-87.965630
18.551064	5643.973333	1163.057617	-119.999863
18.551064	5643.973333	1161.928711	1.041163
18.551064	5643.973333	1160.800781	-78.213516
18.551064	5643.973333	1159.671875	11.215429
18.551064	5643.973333	1158.541992	-110.171577
18.551064	5643.973333	1157.413086	-54.833168
18.551064	5643.973333	1156.283203	-262.535309
18.551064	5643.973333	1155.154297	102.626793
18.551064	5643.973333	1154.023438	-51.912834
18.551064	5643.973333	1152.893555	-1.413296
18.551064	5643.973333	1151.763672	52.036079
18.551064	5643.973333	1150.632813	33.411255
18.551064	5643.973333	1149.501953	42.387703
18.551064	5643.973333	1148.370117	161.015549
18.551064	5643.973333	1147.239258	35.069279
18.551064	5643.973333	1146.107422	235.617279
18.551064	5643.973333	1144.975586	157.860596
18.551064	5643.973333	1143.843750	4.937528
18.551064	5643.973333	1142.710938	85.150932
18.551064	5643.973333	1141.578125	94.116066
18.551064	5643.973333	1140.445313	-28.857878
18.551064	5643.973333	1139.312500	24.134026
18.551064	5643.973333	1138.178711	91.877907
18.551064	5643.973333	1137.045898	203.253540
18.551064	5643.973333	1135.912109	82.996582
18.551064	5643.973333	1134.777344	155.806778
18.551064	5643.973333	1133.643555	69.680382
18.551064	5643.973333	1132.508789	145.324509
18.551064	5643.973333	1131.374023	145.696609
18.551064	5643.973333	1130.239258	294.815918
18.551064	5643.973333	1129.104492	413.990723
18.551064	5643.973333	1127.968750	230.052734
18.551064	5643.973333	1126.833008	374.151978
18.551064	5643.973333	1125.697266	414.232544
18.551064	5643.973333	1124.560547	249.567368
18.551064	5643.973333	1123.424805	407.754120
18.551064	5643.973333	1122.288086	487.816650
18.551064	5643.973333	1121.151367	504.701050
18.551064	5643.973333	1120.013672	382.892181
18.551064	5643.973333	1118.876953	456.676453
18.551064	5643.973333	1117.739258	319.782471
18.551064	5643.973333	1116.601563	358.236664
18.551064	5643.973333	1115.462891	273.942596
18.551064	5643.973333	1114.324219	272.122162
18.551064	5643.973333	1113.186523	184.824554
18.551064	5643.973333	1112.046875	274.776276
18.551064	5643.973333	1110.908203	166.934967
18.551064	5643.973333	1109.769531	201.441452
18.551064	5643.973333	1108.629883	56.447086
18.551064	5643.973333	1107.490234	178.674057
18.551064	5643.973333	1106.349609	226.905457
18.551064	5643.973333	1105.209961	33.084278
18.551064	5643.973333	1104.069336	274.477081
18.551064	5643.973333	1102.928711	229.115799
18.551064	5643.973333	1101.787109	339.316620
18.551064	5643.973333	1100.646484	164.399887
18.551064	5643.973333	1099.504883	230.689362
18.551064	5643.973333	1098.363281	245.613770
18.551064	5643.973333	1097.221680	344.756927
18.551064	5643.973333	1096.079102	370.087158
18.551064	5643.973333	1094.936523	379.534241
18.551064	5643.973333	1093.793945	198.169357
18.551064	5643.973333	1092.651367	53.663326
18.551064	5643.973333	1091.507813	321.114105
18.551064	5643.973333	1090.364258	435.602173
18.551064	5643.973333	1089.220703	165.777771
18.551064	5643.973333	1088.077148	195.677948
18.551064	5643.973333	1086.933594	274.950104
18.551064	5643.973333	1085.789063	362.614868
18.551064	5643.973333	1084.644531	96.734375
18.551064	5643.973333	1083.499023	23.032290
18.551064	5643.973333	1082.354492	93.130409
18.551064	5643.973333	1081.208984	267.267090
18.551064	5643.973333	1080.063477	235.772293
18.551064	5643.973333	1078.917969	280.114716
18.551064	5643.973333	1077.771484	197.053970
18.551064	5643.973333	1076.625977	71.917419
18.551064	5643.973333	1075.479492	109.964455
18.551064	5643.973333	1074.332031	226.325775
18.551064	5643.973333	1073.185547	208.810547
18.551064	5643.973333	1072.038086	138.441544
18.551064	5643.973333	1070.890625	268.575500
18.551064	5643.973333	1069.743164	208.099167
18.551064	5643.973333	1068.594727	266.444641
18.551064	5643.973333	1067.447266	355.676453
18.551064	5643.973333	1066.298828	185.627472
18.551064	5643.973333	1065.149414	177.474335
18.551064	5643.973333	1064.000977	241.249710
18.551064	5643.973333	1062.851563	324.036163
18.551064	5643.973333	1061.702148	358.037537
18.551064	5643.973333	1060.552734	290.308655
18.551064	5643.973333	1059.402344	483.044830
18.551064	5643.973333	1058.252930	323.092773
18.551064	5643.973333	1057.102539	350.705475
18.551064	5643.973333	1055.951172	99.764702
18.551064	5643.973333	1054.800781	311.355682
18.551064	5643.973333	1053.649414	143.130569
18.551064	5643.973333	1052.498047	188.460678
18.551064	5643.973333	1051.346680	244.575592
18.551064	5643.973333	1050.194336	323.697693
18.551064	5643.973333	1049.042969	77.313164
18.551064	5643.973333	1047.890625	-40.549397
18.551064	5643.973333	1046.738281	156.438644
18.551064	5643.973333	1045.584961	66.916473
18.551064	5643.973333	1044.431641	-64.963921
18.551064	5643.973333	1043.278320	33.396229
18.551064	5643.973333	1042.125000	101.630844
18.551064	5643.973333	1040.971680	242.359222
18.551064	5643.973333	1039.817383	33.518185
18.551064	5643.973333	1038.663086	80.359596
18.551064	5643.973333	1037.508789	157.039856
18.551064	5643.973333	1036.353516	224.848221
18.551064	5643.973333	1035.198242	122.420486
18.551064	5643.973333	1034.042969	242.879868
18.551064	5643.973333	1032.887695	211.906235
18.551064	5643.973333	1031.732422	307.368896
18.551064	5643.973333	1030.576172	337.434845
18.551064	5643.973333	1029.419922	253.009644
18.551064	5643.973333	1028.263672	255.906967
18.551064	5643.973333	1027.106445	175.666718
18.551064	5643.973333	1025.949219	177.766876
18.551064	5643.973333	1024.792969	87.227654
18.551064	5643.973333	1023.634766	58.133842
18.551064	5643.973333	1022.477539	233.415710
18.551064	5643.973333	1021.319336	308.633026
18.551064	5643.973333	1020.161133	79.067703
18.551064	5643.973333	1019.002930	14.552040
18.551064	5643.973333	1017.843750	305.359955
18.551064	5643.973333	1016.684570	141.233521
18.551064	5643.973333	1015.525391	136.964981
18.551064	5643.973333	1014.366211	-29.761845
18.551064	5643.973333	1013.207031	-43.463295
18.551064	5643.973333	1012.046875	196.003479
18.551064	5643.973333	1010.886719	20.137655
18.551064	5643.973333	1009.726563	-20.221663
18.551064	5643.973333	1008.565430	213.305573
18.551064	5643.973333	1007.404297	154.705002
18.551064	5643.973333	1006.243164	-90.863930
18.551064	5643.973333	1005.082031	119.409592
18.551064	5643.973333	1003.920898	53.306107
18.551064	5643.973333	1002.758789	334.536530
18.551064	5643.973333	1001.596680	-60.135952
18.551064	5643.973333	1000.433594	-14.852062
18.551064	5643.973333	999.271484	64.200752
18.551064	5643.973333	998.108398	125.413559
18.551064	5643.973333	996.945313	119.207924
18.551064	5643.973333	995.782227	31.953300
18.551064	5643.973333	994.618164	61.777306
18.551064	5643.973333	993.454102	179.277435
18.551064	5643.973333	992.290039	9.387594
18.551064	5643.973333	991.125977	32.393234
18.551064	5643.973333	989.960938	79.714806
18.551064	5643.973333	988.796875	146.132416
18.551064	5643.973333	987.630859	303.148865
18.551064	5643.973333	986.465820	183.021729
18.551064	5643.973333	985.300781	213.690979
18.551064	5643.973333	984.134766	75.195023
18.551064	5643.973333	982.968750	85.200104
18.551064	5643.973333	981.801758	59.504330
18.551064	5643.973333	980.635742	75.926476
18.551064	5643.973333	979.468750	110.875877
18.551064	5643.973333	978.301758	79.716202
18.551064	5643.973333	977.133789	100.065742
18.551064	5643.973333	975.966797	30.763098
18.551064	5643.973333	974.798828	120.778839
18.551064	5643.973333	973.630859	26.580315
18.551064	5643.973333	972.461914	-174.388168
18.551064	5643.973333	971.293945	33.956436
18.551064	5643.973333	970.125000	207.869568
18.551064	5643.973333	968.956055	-134.044556
18.551064	5643.973333	967.786133	-60.910107
18.551064	5643.973333	966.617188	44.173603
18.551064	5643.973333	965.447266	-56.500156
18.551064	5643.973333	964.276367	-56.840328
18.551064	5643.973333	963.106445	66.271782
18.551064	5643.973333	961.935547	73.038406
18.551064	5643.973333	960.764648	170.021042
18.551064	5643.973333	959.593750	-53.134468
18.551064	5643.973333	958.422852	-257.471741
18.551064	5643.973333	957.250977	-116.840790
18.551064	5643.973333	956.079102	12.608047
18.551064	5643.973333	954.907227	56.670052
18.551064	5643.973333	953.734375	120.508743
18.551064	5643.973333	952.562500	-93.582779
18.551064	5643.973333	951.389648	-98.085457
18.551064	5643.973333	950.215820	48.518520
18.551064	5643.973333	949.042969	-160.523438
18.551064	5643.973333	947.869141	125.932518
18.551064	5643.973333	946.695313	-35.469700
18.551064	5643.973333	945.521484	-151.143814
18.551064	5643.973333	944.346680	-80.529099
18.551064	5643.973333	943.172852	-48.369057
18.551064	5643.973333	941.998047	128.767944
18.551064	5643.973333	940.822266	-50.909821
18.551064	5643.973333	939.647461	58.235149
18.551064	5643.973333	938.471680	51.598194
18.551064	5643.973333	937.295898	-119.466583
18.551064	5643.973333	936.119141	92.078880
18.551064	5643.973333	934.943359	-46.913818
18.551064	5643.973333	933.766602	141.745361
18.551064	5643.973333	932.589844	118.711411
18.551064	5643.973333	931.413086	57.054962
18.551064	5643.973333	930.235352	97.738762
18.551064	5643.973333	929.057617	172.354385
18.551064	5643.973333	927.879883	58.300602
18.551064	5643.973333	926.702148	180.680283
18.551064	5643.973333	925.523438	-110.678711
18.551064	5643.973333	924.344727	202.558456
18.551064	5643.973333	923.166016	154.344284
18.551064	5643.973333	921.987305	6.179054
18.551064	5643.973333	920.807617	-91.985420
18.551064	5643.973333	919.627930	-88.104256
18.551064	5643.973333	919.497070	139.582550
18.551064	5643.973333	918.331055	-178.905106
18.551064	5643.973333	917.165039	47.517452
18.551064	5643.973333	915.999023	-64.344780
18.551064	5643.973333	914.833008	0.804401
18.551064	5643.973333	913.666016	265.544525
18.551064	5643.973333	912.499023	101.464592
18.551064	5643.973333	911.332031	-110.196869
18.551064	5643.973333	910.165039	-108.672943
18.551064	5643.973333	908.997070	-136.641022
18.551064	5643.973333	907.830078	-10.512125
18.551064	5643.973333	906.661133	63.430992
18.551064	5643.973333	905.493164	-132.268585
18.551064	5643.973333	904.325195	45.807442
18.551064	5643.973333	903.156250	-18.511587
18.551064	5643.973333	901.987305	-12.641429
18.551064	5643.973333	900.818359	-4.533967
18.551064	5643.973333	899.648438	-57.553284
18.551064	5643.973333	898.478516	90.802887
18.551064	5643.973333	897.308594	-127.398796
18.551064	5643.973333	896.138672	-126.145378
18.551064	5643.973333	894.968750	1.716700
18.551064	5643.973333	893.797852	39.076187
18.551064	5643.973333	892.626953	193.937378
18.551064	5643.973333	891.456055	34.589569
18.551064	5643.973333	890.284180	146.420471
18.551064	5643.973333	889.113281	11.954185
18.551064	5643.973333	887.941406	4.001996
18.551064	5643.973333	886.768555	-60.415417
18.551064	5643.973333	885.596680	286.051361
18.551064	5643.973333	884.423828	158.362885
18.551064	5643.973333	883.250977	8.141732
18.551064	5643.973333	882.078125	0.102967
18.551064	5643.973333	880.905273	7.837612
18.551064	5643.973333	879.731445	-52.104710
18.551064	5643.973333	878.557617	142.752151
18.551064	5643.973333	877.383789	260.863434
18.551064	5643.973333	876.209961	103.932510
18.551064	5643.973333	875.035156	68.736427
18.551064	5643.973333	873.860352	40.294350
18.551064	5643.973333	872.685547	79.421883
18.551064	5643.973333	871.510742	-5.346606
18.551064	5643.973333	870.334961	76.520760
18.551064	5643.973333	869.159180	16.516827
18.551064	5643.973333	867.983398	-68.236183
18.551064	5643.973333	866.807617	-83.216621
18.551064	5643.973333	865.630859	27.781153
18.551064	5643.973333	864.454102	41.997089
18.551064	5643.973333	863.277344	29.204763
18.551064	5643.973333	862.100586	-100.513649
18.551064	5643.973333	860.922852	-18.891050
18.551064	5643.973333	859.745117	105.382851
18.551064	5643.973333	858.567383	146.452713
18.551064	5643.973333	857.389648	61.683891
18.551064	5643.973333	856.210938	-41.032570
18.551064	5643.973333	855.032227	-121.266212
18.551064	5643.973333	853.853516	135.286774
18.551064	5643.973333	852.674805	-122.311012
18.551064	5643.973333	851.495117	-130.708618
18.551064	5643.973333	850.315430	69.549805
18.551064	5643.973333	849.135742	45.382336
18.551064	5643.973333	847.956055	14.480457
18.551064	5643.973333	846.775391	28.425501
18.551064	5643.973333	845.595703	102.878265
18.551064	5643.973333	844.415039	-109.616844
18.551064	5643.973333	843.233398	81.339600
18.551064	5643.973333	842.052734	101.920189
18.551064	5643.973333	840.871094	-54.486050
18.551064	5643.973333	839.689453	156.452805
18.551064	5643.973333	838.506836	-44.710354
18.551064	5643.973333	837.325195	-28.656385
18.551064	5643.973333	836.142578	-126.770790
18.551064	5643.973333	834.959961	-74.929619
18.551064	5643.973333	833.777344	-309.499054
18.551064	5643.973333	832.593750	84.565857
18.551064	5643.973333	831.410156	22.233849
18.551064	5643.973333	830.226563	78.415077
18.551064	5643.973333	829.042969	31.728678
18.551064	5643.973333	827.858398	-10.482574
18.551064	5643.973333	826.673828	7.641644
18.551064	5643.973333	825.489258	19.040777
18.551064	5643.973333	824.304688	-0.850621
18.551064	5643.973333	823.120117	142.272110
18.551064	5643.973333	821.934570	111.171585
18.551064	5643.973333	820.749023	-9.219576
18.551064	5643.973333	819.562500	15.490097
18.551064	5643.973333	818.376953	116.038040
18.551064	5643.973333	817.190430	149.604675
18.551064	5643.973333	816.003906	-84.504280
18.551064	5643.973333	814.817383	0.347816
18.551064	5643.973333	813.629883	58.398056
18.551064	5643.973333	812.442383	76.286156
18.551064	5643.973333	811.254883	-110.875648
18.551064	5643.973333	810.067383	-257.869659
18.551064	5643.973333	808.878906	-26.120993
18.551064	5643.973333	807.690430	-55.061172
18.551064	5643.973333	806.501953	-10.525253
18.551064	5643.973333	805.313477	-237.625641
18.551064	5643.973333	804.124023	9.444918
18.551064	5643.973333	802.934570	102.850616
18.551064	5643.973333	801.745117	56.034702
18.551064	5643.973333	800.555664	-1.901380
18.551064	5643.973333	799.365234	78.056580
18.551064	5643.973333	798.175781	-71.055763
18.551064	5643.973333	796.985352	17.741280
18.551064	5643.973333	795.793945	139.824478
18.551064	5643.973333	794.603516	-24.813406
18.551064	5643.973333	793.412109	-100.532631
18.551064	5643.973333	792.220703	-16.313459
18.551064	5643.973333	791.028320	-27.635946
18.551064	5643.973333	789.836914	167.510330
18.551064	5643.973333	788.644531	9.610685
18.551064	5643.973333	787.452148	-17.300447
18.551064	5643.973333	786.258789	-95.252045
18.551064	5643.973333	785.066406	24.247881
18.551064	5643.973333	783.873047	72.706955
18.551064	5643.973333	782.679688	-34.099133
18.551064	5643.973333	781.485352	-25.592987
18.551064	5643.973333	780.291992	100.367859
18.551064	5643.973333	779.097656	-146.049911
18.551064	5643.973333	777.903320	-122.074478
18.551064	5643.973333	776.708008	-180.091415
18.551064	5643.973333	775.512695	-60.924583
18.551064	5643.973333	774.318359	27.170584
18.551064	5643.973333	773.122070	139.562073
18.551064	5643.973333	771.926758	231.965439
18.551064	5643.973333	770.730469	47.697510
18.551064	5643.973333	769.534180	13.930561
18.551064	5643.973333	768.337891	250.015930
18.551064	5643.973333	767.141602	-33.724339
18.551064	5643.973333	765.944336	20.923586
18.551064	5643.973333	764.747070	-65.951920
18.551064	5643.973333	763.549805	-20.206575
18.551064	5643.973333	762.351563	193.433945
18.551064	5643.973333	761.154297	168.365555
18.551064	5643.973333	759.956055	94.691788
18.551064	5643.973333	758.757813	76.232552
18.551064	5643.973333	757.558594	296.203491
18.551064	5643.973333	756.359375	191.573929
18.551064	5643.973333	755.160156	95.791870
18.551064	5643.973333	753.960938	191.984955
18.551064	5643.973333	752.761719	213.108978
18.551064	5643.973333	751.561523	236.405807
18.551064	5643.973333	750.361328	235.410339
18.551064	5643.973333	749.160156	276.277466
18.551064	5643.973333	747.959961	94.480675
18.551064	5643.973333	746.758789	159.546860
18.551064	5643.973333	745.557617	121.007057
18.551064	5643.973333	744.356445	58.225227
18.551064	5643.973333	743.154297	151.807358
18.551064	5643.973333	741.952148	179.265991
18.551064	5643.973333	740.750000	175.865479
18.551064	5643.973333	739.547852	-155.502884
18.551064	5643.973333	738.344727	168.982605
18.551064	5643.973333	737.142578	-105.103600
18.551064	5643.973333	735.939453	106.998367
18.551064	5643.973333	734.735352	294.793030
18.551064	5643.973333	733.532227	104.310013
18.551064	5643.973333	732.328125	153.479980
18.551064	5643.973333	731.124023	-14.977315
18.551064	5643.973333	729.918945	128.617081
18.551064	5643.973333	728.714844	102.964859
18.551064	5643.973333	727.509766	-87.434174
18.551064	5643.973333	726.303711	-47.217140
18.551064	5643.973333	725.098633	-7.050331
18.551064	5643.973333	723.892578	145.011185
18.551064	5643.973333	722.686523	-1.478674
18.551064	5643.973333	721.480469	58.300098
18.551064	5643.973333	720.274414	85.115753
18.551064	5643.973333	719.067383	-94.267067
18.551064	5643.973333	717.860352	-45.572659
18.551064	5643.973333	716.653320	-196.425339
18.551064	5643.973333	715.445313	-106.156258
18.551064	5643.973333	714.238281	76.072685
18.551064	5643.973333	713.030273	312.960815
18.551064	5643.973333	711.821289	-72.353561
18.551064	5643.973333	710.613281	-131.245087
18.551064	5643.973333	709.404297	129.510788
18.551064	5643.973333	708.195313	-32.355881
18.551064	5643.973333	706.986328	0.587210
18.551064	5643.973333	705.776367	-141.567459
18.551064	5643.973333	704.566406	-18.998957
18.551064	5643.973333	703.356445	-43.060093
18.551064	5643.973333	702.146484	22.504700
18.551064	5643.973333	700.935547	-130.622391
18.551064	5643.973333	699.724609	50.701019
18.551064	5643.973333	698.513672	-89.334930
18.551064	5643.973333	697.302734	-26.160210
18.551064	5643.973333	696.090820	54.422894
18.551064	5643.973333	694.878906	-131.510498
18.551064	5643.973333	693.666992	119.291290
18.551064	5643.973333	692.455078	70.870972
18.551064	5643.973333	691.242188	168.661469
18.551064	5643.973333	690.029297	152.898224
18.551064	5643.973333	688.816406	137.099533
18.551064	5643.973333	687.602539	208.512680
18.551064	5643.973333	686.389648	85.767281
18.551064	5643.973333	685.175781	-215.753159
18.551064	5643.973333	683.960938	230.488129
18.551064	5643.973333	682.747070	-12.179801
18.551064	5643.973333	681.532227	87.297241
18.551064	5643.973333	680.317383	53.802452
18.551064	5643.973333	679.102539	116.109039
18.551064	5643.973333	677.886719	106.485542
18.551064	5643.973333	676.670898	77.227379
18.551064	5643.973333	675.455078	185.062851
18.551064	5643.973333	674.239258	131.772049
18.551064	5643.973333	673.022461	50.173176
18.551064	5643.973333	671.805664	-57.539749
18.551064	5643.973333	670.588867	132.690704
18.551064	5643.973333	669.372070	20.564560
18.551064	5643.973333	668.154297	91.041519
18.551064	5643.973333	666.936523	150.575516
18.551064	5643.973333	665.718750	364.315826
18.551064	5643.973333	664.500977	165.147034
18.551064	5643.973333	663.282227	168.012131
18.551064	5643.973333	662.063477	290.263672
18.551064	5643.973333	660.844727	117.146652
18.551064	5643.973333	659.625000	54.755306
18.551064	5643.973333	658.405273	-20.677782
18.551064	5643.973333	657.185547	12.358985
18.551064	5643.973333	655.965820	116.919212
18.551064	5643.973333	654.745117	106.437859
18.551064	5643.973333	653.525391	128.439209
18.551064	5643.973333	652.303711	195.905975
18.551064	5643.973333	651.083008	204.775223
18.551064	5643.973333	649.861328	150.747833
18.551064	5643.973333	648.640625	40.366039
18.551064	5643.973333	647.417969	64.275192
18.551064	5643.973333	646.196289	85.960686
18.551064	5643.973333	644.973633	-7.166872
18.551064	5643.973333	643.750977	202.751602
18.551064	5643.973333	642.528320	142.003204
18.551064	5643.973333	641.305664	87.721710
18.551064	5643.973333	640.082031	202.151291
18.551064	5643.973333	638.858398	294.854370
18.551064	5643.973333	637.634766	205.826035
18.551064	5643.973333	636.410156	84.354340
18.551064	5643.973333	635.185547	211.455933
18.551064	5643.973333	633.960938	96.418953
18.551064	5643.973333	632.736328	154.226837
18.551064	5643.973333	631.510742	-99.098114
18.551064	5643.973333	630.285156	57.968735
18.551064	5643.973333	629.059570	83.208725
18.551064	5643.973333	627.833984	63.055542
18.551064	5643.973333	626.607422	256.528442
18.551064	5643.973333	625.380859	160.721573
18.551064	5643.973333	624.154297	218.079422
18.551064	5643.973333	622.927734	5.750560
18.551064	5643.973333	621.700195	106.144730
18.551064	5643.973333	620.472656	139.612167
18.551064	5643.973333	619.245117	28.595428
18.551064	5643.973333	618.016602	10.242461
18.551064	5643.973333	616.788086	349.516937
18.551064	5643.973333	615.559570	94.048889
18.551064	5643.973333	614.331055	196.156937
18.551064	5643.973333	613.101563	93.610977
18.551064	5643.973333	611.872070	264.466644
18.551064	5643.973333	610.642578	187.683197
18.551064	5643.973333	609.413086	177.592880
18.551064	5643.973333	608.182617	62.036823
18.551064	5643.973333	606.952148	-158.914505
18.551064	5643.973333	605.721680	-93.799881
18.551064	5643.973333	604.491211	-39.510624
18.551064	5643.973333	603.259766	-11.089493
18.551064	5643.973333	602.028320	113.986313
18.551064	5643.973333	600.796875	247.556961
18.551064	5643.973333	599.564453	11.527865
18.551064	5643.973333	598.332031	-13.964764
18.551064	5643.973333	597.099609	149.472015
18.551064	5643.973333	595.867188	74.494812
18.551064	5643.973333	594.633789	-124.989098
18.551064	5643.973333	593.400391	89.733826
18.551064	5643.973333	592.166992	-30.373119
18.551064	5643.973333	590.933594	12.550822
18.551064	5643.973333	589.699219	111.168694
18.551064	5643.973333	588.464844	78.911011
18.551064	5643.973333	587.230469	-58.413189
18.551064	5643.973333	585.995117	97.894226
18.551064	5643.973333	584.760742	71.964684
18.551064	5643.973333	583.525391	-13.981784
18.551064	5643.973333	582.289063	-80.658653
18.551064	5643.973333	581.053711	-80.960663
18.551064	5643.973333	579.817383	15.035206
18.551064	5643.973333	578.581055	-133.060516
18.551064	5643.973333	577.343750	65.545853
18.551064	5643.973333	576.107422	169.893478
18.551064	5643.973333	574.870117	233.512573
18.551064	5643.973333	573.631836	72.507133
18.551064	5643.973333	572.394531	-2.934115
18.551064	5643.973333	571.156250	150.353699
18.551064	5643.973333	569.917969	91.951111
18.551064	5643.973333	568.679688	20.719034
18.551064	5643.973333	567.440430	163.114120
18.551064	5643.973333	566.202148	96.100807
18.551064	5643.973333	564.961914	202.046829
18.551064	5643.973333	563.722656	120.039764
18.551064	5643.973333	562.482422	-60.155220
18.551064	5643.973333	561.243164	62.738033
18.551064	5643.973333	560.001953	145.001099
18.551064	5643.973333	558.761719	65.083168
18.551064	5643.973333	557.520508	-34.028076
18.551064	5643.973333	556.279297	-118.200020
18.551064	5643.973333	555.038086	0.156854
18.551064	5643.973333	553.795898	199.421890
18.551064	5643.973333	552.554688	89.602058
18.551064	5643.973333	551.311523	145.967804
18.551064	5643.973333	550.069336	-72.477531
18.551064	5643.973333	548.826172	132.914658
18.551064	5643.973333	547.583984	-34.385643
18.551064	5643.973333	546.339844	-44.129646
18.551064	5643.973333	545.096680	-64.528618
18.551064	5643.973333	543.852539	4.418428
18.551064	5643.973333	542.608398	-67.083374
18.551064	5643.973333	541.364258	-2.462044
18.551064	5643.973333	540.119141	-42.081543
18.551064	5643.973333	538.875000	-251.768509
18.551064	5643.973333	537.628906	-240.349670
18.551064	5643.973333	536.383789	43.044106
18.551064	5643.973333	535.137695	-7.251408
18.551064	5643.973333	533.892578	-0.187770
18.551064	5643.973333	532.645508	-107.825218
18.551064	5643.973333	531.399414	1.131257
18.551064	5643.973333	530.152344	39.974380
18.551064	5643.973333	528.905273	-107.969513
18.551064	5643.973333	527.658203	-9.736852
18.551064	5643.973333	526.410156	-60.055988
18.551064	5643.973333	525.163086	-159.140106
18.551064	5643.973333	523.914063	-192.469559
18.551064	5643.973333	522.666016	-189.751160
18.551064	5643.973333	521.416992	-70.477486
18.551064	5643.973333	520.167969	-105.953049
18.551064	5643.973333	518.918945	-158.370575
18.551064	5643.973333	517.669922	-155.703110
18.551064	5643.973333	516.419922	-6.929074
18.551064	5643.973333	515.169922	44.382328
18.551064	5643.973333	513.919922	-60.975349
18.551064	5643.973333	512.668945	28.403187
18.551064	5643.973333	511.417969	-68.457527
18.551064	5643.973333	510.166992	-74.318680
18.551064	5643.973333	508.916016	-8.274472
18.551064	5643.973333	507.664063	-206.576904
18.551064	5643.973333	506.412109	-108.832352
18.551064	5643.973333	505.160156	-21.700518
18.551064	5643.973333	503.907227	-67.740089
18.551064	5643.973333	502.655273	-77.842110
18.551064	5643.973333	501.402344	-221.014114
18.551064	5643.973333	500.148438	60.333138
18.551064	5643.973333	498.895508	79.761665
18.551064	5643.973333	497.641602	-88.689255
18.551064	5643.973333	496.387695	91.148232
18.551064	5643.973333	495.132813	5.051198
18.551064	5643.973333	493.878906	-116.865738
18.551064	5643.973333	492.624023	-93.209869
18.551064	5643.973333	491.368164	217.199661
18.551064	5643.973333	490.113281	-52.254078
18.551064	5643.973333	488.857422	28.278561
18.551064	5643.973333	487.601563	-80.871719
18.551064	5643.973333	486.344727	29.125675
18.551064	5643.973333	485.088867	29.553041
18.551064	5643.973333	483.832031	78.412270
18.551064	5643.973333	482.575195	-11.705369
18.551064	5643.973333	481.317383	93.972961
18.551064	5643.973333	480.059570	-95.022110
18.551064	5643.973333	478.801758	44.295559
18.551064	5643.973333	477.543945	-1.561577
18.551064	5643.973333	476.285156	171.322708
18.551064	5643.973333	475.027344	104.431473
18.551064	5643.973333	473.767578	18.639835
18.551064	5643.973333	472.508789	166.185135
18.551064	5643.973333	471.249023	298.952637
18.551064	5643.973333	469.989258	139.640549
18.551064	5643.973333	468.729492	-21.705893
18.551064	5643.973333	467.469727	85.809166
18.551064	5643.973333	466.208984	63.100536
18.551064	5643.973333	464.948242	29.901297
18.551064	5643.973333	463.686523	49.172028
18.551064	5643.973333	462.425781	106.198898
18.551064	5643.973333	461.164063	169.481918
18.551064	5643.973333	459.901367	56.557098
18.551064	5643.973333	458.639648	42.225090
18.551064	5643.973333	457.376953	-14.042686
18.551064	5643.973333	456.114258	93.179733
18.551064	5643.973333	454.851563	137.480835
18.551064	5643.973333	453.587891	83.278549
18.551064	5643.973333	452.324219	171.511307
18.551064	5643.973333	451.060547	117.290794
18.551064	5643.973333	449.796875	73.542046
18.551064	5643.973333	448.532227	44.438469
18.551064	5643.973333	447.267578	88.568573
18.551064	5643.973333	446.002930	166.130569
18.551064	5643.973333	444.737305	-45.042336
18.551064	5643.973333	443.471680	-82.571831
18.551064	5643.973333	442.206055	-82.480713
18.551064	5643.973333	440.940430	101.535255
18.551064	5643.973333	439.673828	226.910370
18.551064	5643.973333	438.407227	-99.150307
18.551064	5643.973333	437.140625	-17.740290
18.551064	5643.973333	435.873047	48.964867
18.551064	5643.973333	434.605469	249.236404
18.551064	5643.973333	433.337891	263.561462
18.551064	5643.973333	432.070313	163.025711
18.551064	5643.973333	430.801758	168.897308
18.551064	5643.973333	429.533203	-44.363457
18.551064	5643.973333	428.264648	71.978119
18.551064	5643.973333	426.996094	165.261063
18.551064	5643.973333	425.726563	129.153183
18.551064	5643.973333	424.457031	197.213043
18.551064	5643.973333	423.186523	42.155872
18.551064	5643.973333	421.916992	66.280693
18.551064	5643.973333	420.646484	161.128204
18.551064	5643.973333	419.375977	101.716576
18.551064	5643.973333	418.104492	100.528679
18.551064	5643.973333	416.833008	180.430145
18.551064	5643.973333	415.561523	-137.362488
18.551064	5643.973333	414.290039	87.997078
18.551064	5643.973333	413.017578	96.759247
18.551064	5643.973333	411.746094	126.196564
18.551064	5643.973333	410.472656	9.905521
18.551064	5643.973333	409.200195	-31.618702
18.551064	5643.973333	407.926758	51.445366
18.551064	5643.973333	406.653320	-63.111633
18.551064	5643.973333	405.379883	152.592377
18.551064	5643.973333	404.105469	108.362358
18.551064	5643.973333	402.831055	-93.864845
18.551064	5643.973333	401.556641	33.970932
18.551064	5643.973333	400.282227	-68.872108
18.551064	5643.973333	399.006836	-115.832611
18.551064	5643.973333	397.731445	104.711464
18.551064	5643.973333	396.456055	144.453201
18.551064	5643.973333	395.179688	130.021133
18.551064	5643.973333	393.903320	61.450146
18.551064	5643.973333	392.626953	44.501923
18.551064	5643.973333	391.350586	35.606857
18.551064	5643.973333	390.073242	154.937683
18.551064	5643.973333	388.795898	43.965481
18.551064	5643.973333	387.518555	65.340584
18.551064	5643.973333	386.240234	51.202065
18.551064	5643.973333	384.961914	-79.180374
18.551064	5643.973333	383.683594	129.688477
18.551064	5643.973333	382.405273	77.366051
18.551064	5643.973333	381.125977	10.241301
18.551064	5643.973333	379.846680	145.543640
18.551064	5643.973333	378.567383	125.306190
18.551064	5643.973333	377.287109	158.465988
18.551064	5643.973333	376.006836	-75.469368
18.551064	5643.973333	374.726563	277.328186
18.551064	5643.973333	373.446289	158.395370
18.551064	5643.973333	372.165039	63.875755
18.551064	5643.973333	370.883789	-0.053312
18.551064	5643.973333	369.602539	-95.381493
18.551064	5643.973333	368.320313	69.013191
18.551064	5643.973333	367.039063	14.055771
18.551064	5643.973333	365.755859	-66.165543
18.551064	5643.973333	364.473633	-87.009789
18.551064	5643.973333	363.190430	-19.679981
18.551064	5643.973333	361.907227	7.889783
18.551064	5643.973333	360.624023	-49.655983
18.551064	5643.973333	359.340820	-0.551072
18.551064	5643.973333	358.056641	-20.097731
18.551064	5643.973333	356.772461	-42.310085
18.551064	5643.973333	355.487305	-157.873993
18.551064	5643.973333	354.202148	94.663254
18.551064	5643.973333	352.916992	138.425156
18.551064	5643.973333	351.631836	200.005478
18.551064	5643.973333	350.346680	310.250519
18.551064	5643.973333	349.060547	-18.659304
18.551064	5643.973333	347.774414	94.192917
18.551064	5643.973333	346.487305	88.943535
18.551064	5643.973333	345.200195	-202.978729
18.551064	5643.973333	343.913086	88.366730
18.551064	5643.973333	342.625977	60.096809
18.551064	5643.973333	341.338867	96.740028
18.551064	5643.973333	340.050781	64.639053
18.551064	5643.973333	338.762695	56.285671
18.551064	5643.973333	337.473633	114.747620
18.551064	5643.973333	336.184570	16.143896
18.551064	5643.973333	334.895508	-167.589462
18.551064	5643.973333	333.606445	-126.479820
18.551064	5643.973333	332.317383	-203.414490
18.551064	5643.973333	331.027344	-369.648712
18.551064	5643.973333	329.736328	180.995926
18.551064	5643.973333	328.446289	12.499833
18.551064	5643.973333	327.155273	45.862961
18.551064	5643.973333	325.864258	-106.482590
18.551064	5643.973333	324.573242	10.537175
18.551064	5643.973333	323.281250	79.078941
18.551064	5643.973333	321.989258	-132.315048
18.551064	5643.973333	320.697266	-127.845169
18.551064	5643.973333	319.405273	-241.461426
18.551064	5643.973333	318.112305	-100.558701
18.551064	5643.973333	316.819336	-102.383545
18.551064	5643.973333	315.526367	-32.011047
18.551064	5643.973333	314.232422	32.688797
18.551064	5643.973333	312.938477	-39.187691
18.551064	5643.973333	311.644531	192.088913
18.551064	5643.973333	310.349609	108.775703
18.551064	5643.973333	309.054688	189.406738
18.551064	5643.973333	307.759766	211.073471
18.551064	5643.973333	306.464844	139.039490
18.551064	5643.973333	305.168945	298.073212
18.551064	5643.973333	303.873047	220.336563
18.551064	5643.973333	302.577148	426.620056
18.551064	5643.973333	301.281250	551.276917
18.551064	5643.973333	299.984375	594.257080
