#X		#Y		#Wave		#Intensity
-246.560638	5296.310000	1999.946289	-41.177288
-246.560638	5296.310000	1998.981445	262.551331
-246.560638	5296.310000	1998.017578	177.485214
-246.560638	5296.310000	1997.052734	285.752533
-246.560638	5296.310000	1996.088867	334.532227
-246.560638	5296.310000	1995.124023	29.064766
-246.560638	5296.310000	1994.159180	85.327118
-246.560638	5296.310000	1993.193359	144.057541
-246.560638	5296.310000	1992.228516	-12.612089
-246.560638	5296.310000	1991.262695	63.472759
-246.560638	5296.310000	1990.296875	171.719589
-246.560638	5296.310000	1989.331055	190.864304
-246.560638	5296.310000	1988.365234	-193.240036
-246.560638	5296.310000	1987.398438	147.554962
-246.560638	5296.310000	1986.432617	213.736267
-246.560638	5296.310000	1985.465820	-29.167480
-246.560638	5296.310000	1984.499023	-93.966782
-246.560638	5296.310000	1983.532227	234.276276
-246.560638	5296.310000	1982.565430	11.334557
-246.560638	5296.310000	1981.597656	240.642563
-246.560638	5296.310000	1980.629883	86.989212
-246.560638	5296.310000	1979.662109	200.159042
-246.560638	5296.310000	1978.694336	66.369148
-246.560638	5296.310000	1977.726563	135.104218
-246.560638	5296.310000	1976.758789	171.745392
-246.560638	5296.310000	1975.790039	176.308258
-246.560638	5296.310000	1974.821289	84.658623
-246.560638	5296.310000	1973.852539	76.947121
-246.560638	5296.310000	1972.883789	-2.270381
-246.560638	5296.310000	1971.915039	128.189896
-246.560638	5296.310000	1970.945313	-76.714989
-246.560638	5296.310000	1969.975586	-168.117493
-246.560638	5296.310000	1969.005859	31.385845
-246.560638	5296.310000	1968.036133	-94.454842
-246.560638	5296.310000	1967.066406	173.998260
-246.560638	5296.310000	1966.096680	237.911240
-246.560638	5296.310000	1965.125977	85.080078
-246.560638	5296.310000	1964.155273	52.995136
-246.560638	5296.310000	1963.184570	171.132050
-246.560638	5296.310000	1962.213867	50.474251
-246.560638	5296.310000	1961.242188	163.691772
-246.560638	5296.310000	1960.271484	75.119438
-246.560638	5296.310000	1959.299805	82.551392
-246.560638	5296.310000	1958.328125	82.626183
-246.560638	5296.310000	1957.356445	213.069382
-246.560638	5296.310000	1956.384766	82.850670
-246.560638	5296.310000	1955.412109	164.124527
-246.560638	5296.310000	1954.439453	-111.008705
-246.560638	5296.310000	1953.467773	-41.963497
-246.560638	5296.310000	1952.495117	-71.203217
-246.560638	5296.310000	1951.521484	194.378571
-246.560638	5296.310000	1950.548828	-117.298065
-246.560638	5296.310000	1949.575195	45.105404
-246.560638	5296.310000	1948.601563	109.264259
-246.560638	5296.310000	1947.627930	4.046516
-246.560638	5296.310000	1946.654297	144.320190
-246.560638	5296.310000	1945.680664	156.966934
-246.560638	5296.310000	1944.706055	130.376785
-246.560638	5296.310000	1943.732422	130.804352
-246.560638	5296.310000	1942.757813	42.963428
-246.560638	5296.310000	1941.783203	153.791763
-246.560638	5296.310000	1940.807617	12.089581
-246.560638	5296.310000	1939.833008	54.297791
-246.560638	5296.310000	1938.857422	-170.608902
-246.560638	5296.310000	1937.881836	-59.734871
-246.560638	5296.310000	1936.906250	-0.323548
-246.560638	5296.310000	1935.930664	235.434402
-246.560638	5296.310000	1934.955078	96.458626
-246.560638	5296.310000	1933.978516	204.837570
-246.560638	5296.310000	1933.001953	-73.571411
-246.560638	5296.310000	1932.025391	-16.554718
-246.560638	5296.310000	1931.048828	126.105125
-246.560638	5296.310000	1930.072266	50.990841
-246.560638	5296.310000	1929.094727	34.629410
-246.560638	5296.310000	1928.118164	-55.073082
-246.560638	5296.310000	1927.140625	-29.802586
-246.560638	5296.310000	1926.163086	19.925991
-246.560638	5296.310000	1925.184570	-37.895462
-246.560638	5296.310000	1924.207031	82.723915
-246.560638	5296.310000	1923.228516	-43.464195
-246.560638	5296.310000	1922.250000	-132.942566
-246.560638	5296.310000	1921.271484	21.872433
-246.560638	5296.310000	1920.292969	8.150388
-246.560638	5296.310000	1919.314453	35.957352
-246.560638	5296.310000	1918.334961	-9.463707
-246.560638	5296.310000	1917.355469	94.025406
-246.560638	5296.310000	1916.375977	82.804199
-246.560638	5296.310000	1915.396484	56.966080
-246.560638	5296.310000	1914.416992	-66.418053
-246.560638	5296.310000	1913.436523	39.503246
-246.560638	5296.310000	1912.457031	162.469360
-246.560638	5296.310000	1911.476563	48.928661
-246.560638	5296.310000	1910.496094	-6.057956
-246.560638	5296.310000	1909.515625	16.972017
-246.560638	5296.310000	1908.534180	88.735306
-246.560638	5296.310000	1907.552734	72.785919
-246.560638	5296.310000	1906.572266	42.243248
-246.560638	5296.310000	1905.590820	-90.553566
-246.560638	5296.310000	1904.608398	-152.684967
-246.560638	5296.310000	1903.626953	-37.081738
-246.560638	5296.310000	1902.644531	124.729103
-246.560638	5296.310000	1901.663086	-178.273117
-246.560638	5296.310000	1900.680664	-65.132965
-246.560638	5296.310000	1899.698242	-212.294571
-246.560638	5296.310000	1898.714844	80.791901
-246.560638	5296.310000	1897.732422	74.704285
-246.560638	5296.310000	1896.749023	168.298523
-246.560638	5296.310000	1895.765625	-34.667431
-246.560638	5296.310000	1894.782227	29.765972
-246.560638	5296.310000	1893.798828	203.518250
-246.560638	5296.310000	1892.814453	-106.207397
-246.560638	5296.310000	1891.831055	128.238052
-246.560638	5296.310000	1890.846680	110.054405
-246.560638	5296.310000	1889.862305	-10.087385
-246.560638	5296.310000	1888.877930	39.740025
-246.560638	5296.310000	1887.892578	-26.941772
-246.560638	5296.310000	1886.908203	61.702705
-246.560638	5296.310000	1885.922852	162.447525
-246.560638	5296.310000	1884.937500	27.874771
-246.560638	5296.310000	1883.952148	211.049469
-246.560638	5296.310000	1882.965820	154.112381
-246.560638	5296.310000	1881.980469	213.563995
-246.560638	5296.310000	1880.994141	-25.131165
-246.560638	5296.310000	1880.007813	99.763283
-246.560638	5296.310000	1879.021484	-196.967926
-246.560638	5296.310000	1878.035156	-57.550743
-246.560638	5296.310000	1877.047852	-12.644217
-246.560638	5296.310000	1876.061523	-188.111160
-246.560638	5296.310000	1875.074219	2.065721
-246.560638	5296.310000	1874.086914	-61.992428
-246.560638	5296.310000	1873.098633	70.002632
-246.560638	5296.310000	1872.111328	73.703712
-246.560638	5296.310000	1871.123047	-31.465626
-246.560638	5296.310000	1870.135742	39.975559
-246.560638	5296.310000	1869.147461	4.978174
-246.560638	5296.310000	1868.158203	-85.621246
-246.560638	5296.310000	1867.169922	-19.056602
-246.560638	5296.310000	1866.180664	8.806616
-246.560638	5296.310000	1865.192383	-190.496918
-246.560638	5296.310000	1864.203125	124.890930
-246.560638	5296.310000	1863.213867	-158.917480
-246.560638	5296.310000	1862.223633	-80.351662
-246.560638	5296.310000	1861.234375	15.084032
-246.560638	5296.310000	1860.244141	40.462551
-246.560638	5296.310000	1859.253906	3.065245
-246.560638	5296.310000	1858.263672	59.796055
-246.560638	5296.310000	1857.273438	82.718102
-246.560638	5296.310000	1856.282227	-39.123539
-246.560638	5296.310000	1855.291992	51.328384
-246.560638	5296.310000	1854.300781	93.506149
-246.560638	5296.310000	1853.309570	-18.649664
-246.560638	5296.310000	1852.317383	11.452864
-246.560638	5296.310000	1851.326172	297.015594
-246.560638	5296.310000	1850.333984	134.251038
-246.560638	5296.310000	1849.342773	-81.466064
-246.560638	5296.310000	1848.350586	109.978142
-246.560638	5296.310000	1847.357422	96.626266
-246.560638	5296.310000	1846.365234	88.086540
-246.560638	5296.310000	1845.372070	62.684658
-246.560638	5296.310000	1844.379883	32.467377
-246.560638	5296.310000	1843.386719	57.600204
-246.560638	5296.310000	1842.393555	205.421326
-246.560638	5296.310000	1841.399414	-22.107306
-246.560638	5296.310000	1840.406250	17.413708
-246.560638	5296.310000	1839.412109	169.930084
-246.560638	5296.310000	1838.417969	173.308365
-246.560638	5296.310000	1837.423828	289.651794
-246.560638	5296.310000	1836.429688	256.927887
-246.560638	5296.310000	1835.434570	-25.704205
-246.560638	5296.310000	1834.440430	-22.348806
-246.560638	5296.310000	1833.445313	153.936737
-246.560638	5296.310000	1832.450195	75.572792
-246.560638	5296.310000	1831.454102	9.226321
-246.560638	5296.310000	1830.458984	144.547974
-246.560638	5296.310000	1829.462891	18.177589
-246.560638	5296.310000	1828.466797	134.214310
-246.560638	5296.310000	1827.470703	36.652050
-246.560638	5296.310000	1826.474609	-116.063148
-246.560638	5296.310000	1825.478516	268.506012
-246.560638	5296.310000	1824.481445	166.125015
-246.560638	5296.310000	1823.484375	238.784729
-246.560638	5296.310000	1822.487305	172.368713
-246.560638	5296.310000	1821.490234	62.822094
-246.560638	5296.310000	1820.493164	-1.174693
-246.560638	5296.310000	1819.495117	-17.253632
-246.560638	5296.310000	1818.498047	160.672867
-246.560638	5296.310000	1817.500000	223.560745
-246.560638	5296.310000	1816.500977	312.741760
-246.560638	5296.310000	1815.502930	236.694305
-246.560638	5296.310000	1814.504883	55.344929
-246.560638	5296.310000	1813.505859	8.048869
-246.560638	5296.310000	1812.506836	46.883141
-246.560638	5296.310000	1811.507813	85.683510
-246.560638	5296.310000	1810.508789	224.897095
-246.560638	5296.310000	1809.508789	-42.464687
-246.560638	5296.310000	1808.508789	8.221170
-246.560638	5296.310000	1807.508789	252.480881
-246.560638	5296.310000	1806.508789	257.644409
-246.560638	5296.310000	1805.508789	451.545563
-246.560638	5296.310000	1804.508789	310.902954
-246.560638	5296.310000	1803.507813	184.622528
-246.560638	5296.310000	1802.506836	75.084206
-246.560638	5296.310000	1801.505859	204.322067
-246.560638	5296.310000	1800.504883	37.488327
-246.560638	5296.310000	1799.502930	80.719292
-246.560638	5296.310000	1798.501953	33.239109
-246.560638	5296.310000	1797.500000	64.482567
-246.560638	5296.310000	1796.498047	47.987011
-246.560638	5296.310000	1795.496094	-9.067964
-246.560638	5296.310000	1794.493164	172.316162
-246.560638	5296.310000	1793.491211	-37.357914
-246.560638	5296.310000	1792.488281	-58.679989
-246.560638	5296.310000	1791.485352	122.542664
-246.560638	5296.310000	1790.482422	248.875412
-246.560638	5296.310000	1789.478516	20.193666
-246.560638	5296.310000	1788.475586	408.439789
-246.560638	5296.310000	1787.471680	165.481812
-246.560638	5296.310000	1786.467773	163.054565
-246.560638	5296.310000	1785.463867	222.493988
-246.560638	5296.310000	1784.459961	248.569550
-246.560638	5296.310000	1783.455078	69.977852
-246.560638	5296.310000	1782.450195	-96.674088
-246.560638	5296.310000	1781.445313	72.088318
-246.560638	5296.310000	1780.440430	117.103920
-246.560638	5296.310000	1779.435547	169.211578
-246.560638	5296.310000	1778.429688	166.598038
-246.560638	5296.310000	1777.424805	109.300903
-246.560638	5296.310000	1776.418945	280.122375
-246.560638	5296.310000	1775.413086	-31.436798
-246.560638	5296.310000	1774.406250	27.654793
-246.560638	5296.310000	1773.400391	143.702515
-246.560638	5296.310000	1772.393555	41.228157
-246.560638	5296.310000	1771.386719	119.195450
-246.560638	5296.310000	1770.379883	23.838806
-246.560638	5296.310000	1769.373047	85.122124
-246.560638	5296.310000	1768.365234	-0.749451
-246.560638	5296.310000	1767.358398	195.685974
-246.560638	5296.310000	1766.350586	-46.757092
-246.560638	5296.310000	1765.342773	85.537605
-246.560638	5296.310000	1764.334961	4.380674
-246.560638	5296.310000	1763.326172	-152.624390
-246.560638	5296.310000	1762.318359	98.046036
-246.560638	5296.310000	1761.309570	59.512962
-246.560638	5296.310000	1760.300781	106.258949
-246.560638	5296.310000	1759.291016	100.851303
-246.560638	5296.310000	1758.282227	112.003296
-246.560638	5296.310000	1757.272461	104.184402
-246.560638	5296.310000	1756.262695	271.523773
-246.560638	5296.310000	1755.252930	116.889694
-246.560638	5296.310000	1754.243164	130.304688
-246.560638	5296.310000	1753.233398	278.549164
-246.560638	5296.310000	1752.222656	123.932487
-246.560638	5296.310000	1751.211914	156.189392
-246.560638	5296.310000	1750.201172	167.130569
-246.560638	5296.310000	1749.190430	-3.990947
-246.560638	5296.310000	1748.179688	144.025162
-246.560638	5296.310000	1747.167969	147.804611
-246.560638	5296.310000	1746.156250	23.971912
-246.560638	5296.310000	1745.144531	23.005714
-246.560638	5296.310000	1744.132813	90.511627
-246.560638	5296.310000	1743.121094	-120.675247
-246.560638	5296.310000	1742.108398	29.421328
-246.560638	5296.310000	1741.095703	-77.855286
-246.560638	5296.310000	1740.083008	-81.269577
-246.560638	5296.310000	1739.070313	-287.629974
-246.560638	5296.310000	1738.057617	79.344910
-246.560638	5296.310000	1737.043945	106.501373
-246.560638	5296.310000	1736.030273	91.178009
-246.560638	5296.310000	1735.016602	191.374023
-246.560638	5296.310000	1734.002930	-76.235626
-246.560638	5296.310000	1732.989258	172.399063
-246.560638	5296.310000	1731.974609	-88.077843
-246.560638	5296.310000	1730.959961	14.350075
-246.560638	5296.310000	1729.945313	166.186920
-246.560638	5296.310000	1728.930664	-75.356171
-246.560638	5296.310000	1727.916016	-166.127640
-246.560638	5296.310000	1726.900391	-181.551834
-246.560638	5296.310000	1725.885742	-60.466957
-246.560638	5296.310000	1724.870117	51.136467
-246.560638	5296.310000	1723.853516	-154.960159
-246.560638	5296.310000	1722.837891	-29.301928
-246.560638	5296.310000	1721.822266	44.547119
-246.560638	5296.310000	1720.805664	120.698685
-246.560638	5296.310000	1719.789063	41.634262
-246.560638	5296.310000	1718.772461	-60.923271
-246.560638	5296.310000	1717.754883	-316.221619
-246.560638	5296.310000	1716.738281	-89.745163
-246.560638	5296.310000	1715.720703	-23.125286
-246.560638	5296.310000	1714.703125	-48.149952
-246.560638	5296.310000	1713.685547	-108.406815
-246.560638	5296.310000	1712.667969	-32.476673
-246.560638	5296.310000	1711.649414	-50.493046
-246.560638	5296.310000	1710.630859	81.690742
-246.560638	5296.310000	1709.612305	141.065186
-246.560638	5296.310000	1708.593750	99.520187
-246.560638	5296.310000	1707.575195	205.753265
-246.560638	5296.310000	1706.555664	-35.163078
-246.560638	5296.310000	1705.536133	-43.870178
-246.560638	5296.310000	1704.516602	-144.015228
-246.560638	5296.310000	1703.497070	-89.440742
-246.560638	5296.310000	1702.477539	65.866257
-246.560638	5296.310000	1701.457031	-92.858696
-246.560638	5296.310000	1700.437500	205.256897
-246.560638	5296.310000	1699.416992	187.064713
-246.560638	5296.310000	1698.395508	86.906799
-246.560638	5296.310000	1697.375000	-174.760315
-246.560638	5296.310000	1696.354492	-136.727448
-246.560638	5296.310000	1695.333008	-72.981750
-246.560638	5296.310000	1694.311523	51.563110
-246.560638	5296.310000	1693.290039	225.176956
-246.560638	5296.310000	1692.267578	-52.699635
-246.560638	5296.310000	1691.246094	53.031578
-246.560638	5296.310000	1690.223633	-33.009300
-246.560638	5296.310000	1689.201172	63.304153
-246.560638	5296.310000	1688.178711	-74.139084
-246.560638	5296.310000	1687.155273	47.826134
-246.560638	5296.310000	1686.132813	-47.528034
-246.560638	5296.310000	1685.109375	-89.135254
-246.560638	5296.310000	1684.085938	46.750088
-246.560638	5296.310000	1683.062500	-95.273071
-246.560638	5296.310000	1682.039063	49.883465
-246.560638	5296.310000	1681.014648	-40.757740
-246.560638	5296.310000	1679.990234	-108.035034
-246.560638	5296.310000	1678.965820	151.336075
-246.560638	5296.310000	1677.941406	-25.598204
-246.560638	5296.310000	1676.916992	40.075542
-246.560638	5296.310000	1675.891602	66.074196
-246.560638	5296.310000	1674.866211	26.783060
-246.560638	5296.310000	1673.840820	-103.400070
-246.560638	5296.310000	1672.815430	97.375702
-246.560638	5296.310000	1671.790039	-21.129532
-246.560638	5296.310000	1670.763672	-79.031891
-246.560638	5296.310000	1669.737305	37.762928
-246.560638	5296.310000	1668.710938	147.522842
-246.560638	5296.310000	1667.684570	-1.184452
-246.560638	5296.310000	1666.658203	141.121857
-246.560638	5296.310000	1665.630859	218.205521
-246.560638	5296.310000	1664.603516	-35.144806
-246.560638	5296.310000	1663.576172	107.076103
-246.560638	5296.310000	1662.548828	-57.774982
-246.560638	5296.310000	1661.520508	-29.556360
-246.560638	5296.310000	1660.493164	-10.645153
-246.560638	5296.310000	1659.464844	8.254400
-246.560638	5296.310000	1658.436523	15.525683
-246.560638	5296.310000	1657.408203	-42.266514
-246.560638	5296.310000	1656.378906	-41.959969
-246.560638	5296.310000	1655.350586	81.455872
-246.560638	5296.310000	1654.321289	67.807068
-246.560638	5296.310000	1653.291992	19.337357
-246.560638	5296.310000	1652.261719	-50.007828
-246.560638	5296.310000	1651.232422	6.010554
-246.560638	5296.310000	1650.202148	231.401230
-246.560638	5296.310000	1649.171875	134.223312
-246.560638	5296.310000	1648.141602	39.405891
-246.560638	5296.310000	1647.111328	139.436584
-246.560638	5296.310000	1646.080078	86.394669
-246.560638	5296.310000	1645.049805	109.884354
-246.560638	5296.310000	1644.018555	-54.375618
-246.560638	5296.310000	1642.987305	247.219757
-246.560638	5296.310000	1641.955078	226.650192
-246.560638	5296.310000	1640.923828	189.884064
-246.560638	5296.310000	1639.891602	65.126526
-246.560638	5296.310000	1638.859375	239.130005
-246.560638	5296.310000	1637.827148	230.180023
-246.560638	5296.310000	1636.794922	184.205597
-246.560638	5296.310000	1635.761719	145.195282
-246.560638	5296.310000	1634.729492	46.054874
-246.560638	5296.310000	1633.696289	97.321640
-246.560638	5296.310000	1632.662109	125.445175
-246.560638	5296.310000	1631.628906	278.440613
-246.560638	5296.310000	1630.594727	193.249542
-246.560638	5296.310000	1629.561523	126.598015
-246.560638	5296.310000	1628.527344	129.310501
-246.560638	5296.310000	1627.493164	201.349304
-246.560638	5296.310000	1626.458008	150.929611
-246.560638	5296.310000	1625.423828	190.623016
-246.560638	5296.310000	1624.388672	214.142807
-246.560638	5296.310000	1623.353516	108.372101
-246.560638	5296.310000	1622.318359	99.606155
-246.560638	5296.310000	1621.282227	35.461597
-246.560638	5296.310000	1620.247070	86.732552
-246.560638	5296.310000	1619.210938	147.221283
-246.560638	5296.310000	1618.174805	48.545227
-246.560638	5296.310000	1617.137695	351.184357
-246.560638	5296.310000	1616.101563	128.029327
-246.560638	5296.310000	1615.064453	310.691162
-246.560638	5296.310000	1614.027344	350.400452
-246.560638	5296.310000	1612.990234	51.373413
-246.560638	5296.310000	1611.953125	63.501926
-246.560638	5296.310000	1610.916016	87.159370
-246.560638	5296.310000	1609.877930	433.236938
-246.560638	5296.310000	1608.839844	166.722061
-246.560638	5296.310000	1607.801758	397.577911
-246.560638	5296.310000	1606.763672	363.673004
-246.560638	5296.310000	1605.724609	217.037247
-246.560638	5296.310000	1604.685547	164.806442
-246.560638	5296.310000	1603.646484	296.638123
-246.560638	5296.310000	1602.607422	329.542328
-246.560638	5296.310000	1601.568359	539.506714
-246.560638	5296.310000	1600.528320	75.813263
-246.560638	5296.310000	1599.489258	368.529785
-246.560638	5296.310000	1598.449219	302.651642
-246.560638	5296.310000	1597.408203	402.243622
-246.560638	5296.310000	1596.368164	697.078491
-246.560638	5296.310000	1595.327148	245.387115
-246.560638	5296.310000	1594.287109	540.179443
-246.560638	5296.310000	1593.246094	568.560364
-246.560638	5296.310000	1592.204102	408.729462
-246.560638	5296.310000	1591.163086	361.436859
-246.560638	5296.310000	1590.121094	502.327606
-246.560638	5296.310000	1589.079102	301.377960
-246.560638	5296.310000	1588.037109	320.712280
-246.560638	5296.310000	1586.995117	333.182343
-246.560638	5296.310000	1585.953125	143.916397
-246.560638	5296.310000	1584.910156	387.974091
-246.560638	5296.310000	1583.867188	317.987793
-246.560638	5296.310000	1582.824219	500.098450
-246.560638	5296.310000	1581.781250	530.965454
-246.560638	5296.310000	1580.737305	412.964966
-246.560638	5296.310000	1579.693359	482.813263
-246.560638	5296.310000	1578.649414	502.290894
-246.560638	5296.310000	1577.605469	647.685242
-246.560638	5296.310000	1576.561523	635.134216
-246.560638	5296.310000	1575.516602	629.475098
-246.560638	5296.310000	1574.472656	500.311584
-246.560638	5296.310000	1573.427734	597.662598
-246.560638	5296.310000	1572.381836	683.566528
-246.560638	5296.310000	1571.336914	607.132874
-246.560638	5296.310000	1570.291016	555.900208
-246.560638	5296.310000	1569.246094	634.991577
-246.560638	5296.310000	1568.200195	394.171112
-246.560638	5296.310000	1567.153320	582.975403
-246.560638	5296.310000	1566.107422	483.934479
-246.560638	5296.310000	1565.060547	451.185791
-246.560638	5296.310000	1564.013672	480.126831
-246.560638	5296.310000	1562.966797	502.239288
-246.560638	5296.310000	1561.919922	314.395447
-246.560638	5296.310000	1560.872070	229.339127
-246.560638	5296.310000	1559.825195	329.146912
-246.560638	5296.310000	1558.777344	114.165588
-246.560638	5296.310000	1557.729492	220.857864
-246.560638	5296.310000	1556.680664	211.250885
-246.560638	5296.310000	1555.632813	393.173859
-246.560638	5296.310000	1554.583984	171.634033
-246.560638	5296.310000	1553.535156	253.289246
-246.560638	5296.310000	1552.486328	152.678787
-246.560638	5296.310000	1551.436523	166.031097
-246.560638	5296.310000	1550.387695	213.575500
-246.560638	5296.310000	1549.337891	311.224762
-246.560638	5296.310000	1548.288086	44.624863
-246.560638	5296.310000	1547.238281	226.549454
-246.560638	5296.310000	1546.187500	296.929260
-246.560638	5296.310000	1545.136719	-5.814410
-246.560638	5296.310000	1544.086914	126.071579
-246.560638	5296.310000	1543.035156	-26.350195
-246.560638	5296.310000	1541.984375	126.018227
-246.560638	5296.310000	1540.933594	96.490471
-246.560638	5296.310000	1539.881836	267.025787
-246.560638	5296.310000	1538.830078	60.296227
-246.560638	5296.310000	1537.778320	17.270687
-246.560638	5296.310000	1536.725586	119.677094
-246.560638	5296.310000	1535.673828	-104.964249
-246.560638	5296.310000	1534.621094	-52.457413
-246.560638	5296.310000	1533.568359	97.685837
-246.560638	5296.310000	1532.515625	229.647308
-246.560638	5296.310000	1531.461914	252.662872
-246.560638	5296.310000	1530.409180	153.187073
-246.560638	5296.310000	1529.355469	303.315552
-246.560638	5296.310000	1528.301758	-38.736080
-246.560638	5296.310000	1527.247070	68.359978
-246.560638	5296.310000	1526.193359	227.597015
-246.560638	5296.310000	1525.138672	-55.192692
-246.560638	5296.310000	1524.083984	-133.873795
-246.560638	5296.310000	1523.029297	-60.679543
-246.560638	5296.310000	1521.974609	105.402878
-246.560638	5296.310000	1520.918945	-102.247734
-246.560638	5296.310000	1519.863281	16.298748
-246.560638	5296.310000	1518.807617	-23.641142
-246.560638	5296.310000	1517.751953	60.967869
-246.560638	5296.310000	1516.696289	-46.779377
-246.560638	5296.310000	1515.639648	-66.204109
-246.560638	5296.310000	1514.583008	-24.502375
-246.560638	5296.310000	1513.526367	-23.489500
-246.560638	5296.310000	1512.469727	70.275055
-246.560638	5296.310000	1511.412109	62.303196
-246.560638	5296.310000	1510.355469	83.760895
-246.560638	5296.310000	1509.297852	125.587921
-246.560638	5296.310000	1508.240234	-94.663963
-246.560638	5296.310000	1507.181641	134.762405
-246.560638	5296.310000	1506.124023	251.208450
-246.560638	5296.310000	1505.065430	342.808594
-246.560638	5296.310000	1504.006836	73.178871
-246.560638	5296.310000	1502.948242	-99.240227
-246.560638	5296.310000	1501.888672	87.281326
-246.560638	5296.310000	1500.830078	50.390205
-246.560638	5296.310000	1499.770508	173.724121
-246.560638	5296.310000	1498.710938	292.538574
-246.560638	5296.310000	1497.650391	276.046082
-246.560638	5296.310000	1496.590820	135.600113
-246.560638	5296.310000	1495.530273	-92.661385
-246.560638	5296.310000	1494.469727	-43.587563
-246.560638	5296.310000	1493.409180	-68.848297
-246.560638	5296.310000	1492.348633	72.647270
-246.560638	5296.310000	1491.287109	-58.403698
-246.560638	5296.310000	1490.225586	197.962936
-246.560638	5296.310000	1489.164063	-9.527215
-246.560638	5296.310000	1488.102539	132.011627
-246.560638	5296.310000	1487.041016	309.543365
-246.560638	5296.310000	1485.978516	111.280960
-246.560638	5296.310000	1484.916016	99.851410
-246.560638	5296.310000	1483.853516	-104.944466
-246.560638	5296.310000	1482.791016	-60.013897
-246.560638	5296.310000	1481.727539	41.144321
-246.560638	5296.310000	1480.664063	95.088669
-246.560638	5296.310000	1479.600586	-71.128113
-246.560638	5296.310000	1478.537109	-46.325359
-246.560638	5296.310000	1477.473633	-102.316544
-246.560638	5296.310000	1476.409180	41.645805
-246.560638	5296.310000	1475.344727	-34.428879
-246.560638	5296.310000	1474.280273	-144.147049
-246.560638	5296.310000	1473.215820	-22.779219
-246.560638	5296.310000	1472.151367	-82.957245
-246.560638	5296.310000	1471.085938	-64.543823
-246.560638	5296.310000	1470.020508	-120.170349
-246.560638	5296.310000	1468.955078	-86.043892
-246.560638	5296.310000	1467.888672	-31.756525
-246.560638	5296.310000	1466.823242	-68.790146
-246.560638	5296.310000	1465.756836	16.719000
-246.560638	5296.310000	1464.690430	-163.668335
-246.560638	5296.310000	1463.624023	111.917953
-246.560638	5296.310000	1462.556641	43.564648
-246.560638	5296.310000	1461.490234	-77.152924
-246.560638	5296.310000	1460.422852	31.810026
-246.560638	5296.310000	1459.355469	202.220108
-246.560638	5296.310000	1458.287109	55.320526
-246.560638	5296.310000	1457.219727	12.139394
-246.560638	5296.310000	1456.151367	-11.695191
-246.560638	5296.310000	1455.083008	82.814659
-246.560638	5296.310000	1454.014648	153.143494
-246.560638	5296.310000	1452.945313	13.938979
-246.560638	5296.310000	1451.876953	79.755203
-246.560638	5296.310000	1450.807617	230.350525
-246.560638	5296.310000	1449.738281	158.287064
-246.560638	5296.310000	1448.668945	168.201462
-246.560638	5296.310000	1447.598633	61.017944
-246.560638	5296.310000	1446.528320	37.417664
-246.560638	5296.310000	1445.458008	75.262833
-246.560638	5296.310000	1444.387695	87.357079
-246.560638	5296.310000	1443.317383	50.940521
-246.560638	5296.310000	1442.246094	81.928795
-246.560638	5296.310000	1441.174805	142.973526
-246.560638	5296.310000	1440.103516	-23.033773
-246.560638	5296.310000	1439.032227	125.315964
-246.560638	5296.310000	1437.960938	41.494305
-246.560638	5296.310000	1436.888672	89.590874
-246.560638	5296.310000	1435.816406	281.020782
-246.560638	5296.310000	1434.744141	182.389374
-246.560638	5296.310000	1433.670898	-146.340576
-246.560638	5296.310000	1432.598633	71.600372
-246.560638	5296.310000	1431.525391	139.994354
-246.560638	5296.310000	1430.452148	95.074661
-246.560638	5296.310000	1429.378906	134.039383
-246.560638	5296.310000	1428.304688	15.242085
-246.560638	5296.310000	1427.231445	-45.190742
-246.560638	5296.310000	1426.157227	-118.950241
-246.560638	5296.310000	1425.083008	-36.586540
-246.560638	5296.310000	1424.007813	-16.177582
-246.560638	5296.310000	1422.933594	45.978985
-246.560638	5296.310000	1421.858398	-102.343826
-246.560638	5296.310000	1420.783203	-20.271509
-246.560638	5296.310000	1419.708008	-19.107922
-246.560638	5296.310000	1418.631836	86.361153
-246.560638	5296.310000	1417.555664	31.063833
-246.560638	5296.310000	1416.479492	-116.206108
-246.560638	5296.310000	1415.403320	350.722076
-246.560638	5296.310000	1414.327148	103.256386
-246.560638	5296.310000	1413.250000	59.333900
-246.560638	5296.310000	1412.173828	28.210903
-246.560638	5296.310000	1411.096680	172.711868
-246.560638	5296.310000	1410.018555	-28.510918
-246.560638	5296.310000	1408.941406	108.098419
-246.560638	5296.310000	1407.863281	431.596985
-246.560638	5296.310000	1406.785156	246.530655
-246.560638	5296.310000	1405.707031	311.220581
-246.560638	5296.310000	1404.628906	176.744644
-246.560638	5296.310000	1403.549805	353.797028
-246.560638	5296.310000	1402.470703	-100.453438
-246.560638	5296.310000	1401.391602	124.104340
-246.560638	5296.310000	1400.312500	159.760223
-246.560638	5296.310000	1399.233398	214.322586
-246.560638	5296.310000	1398.153320	58.796310
-246.560638	5296.310000	1397.073242	-17.984949
-246.560638	5296.310000	1395.993164	272.240326
-246.560638	5296.310000	1394.913086	339.350800
-246.560638	5296.310000	1393.832031	243.186478
-246.560638	5296.310000	1392.750977	148.197052
-246.560638	5296.310000	1391.669922	103.936996
-246.560638	5296.310000	1390.588867	-25.588034
-246.560638	5296.310000	1389.506836	-38.177631
-246.560638	5296.310000	1388.425781	-32.699074
-246.560638	5296.310000	1387.343750	220.933289
-246.560638	5296.310000	1386.261719	211.005890
-246.560638	5296.310000	1385.178711	92.969276
-246.560638	5296.310000	1384.096680	150.452972
-246.560638	5296.310000	1383.013672	311.231354
-246.560638	5296.310000	1381.930664	195.234268
-246.560638	5296.310000	1380.846680	24.648705
-246.560638	5296.310000	1379.763672	198.868591
-246.560638	5296.310000	1378.679688	39.423412
-246.560638	5296.310000	1377.595703	255.613998
-246.560638	5296.310000	1376.511719	124.830727
-246.560638	5296.310000	1375.427734	165.894653
-246.560638	5296.310000	1374.342773	120.729233
-246.560638	5296.310000	1373.257813	-19.360914
-246.560638	5296.310000	1372.172852	204.814392
-246.560638	5296.310000	1371.087891	125.716835
-246.560638	5296.310000	1370.001953	114.780693
-246.560638	5296.310000	1368.916992	198.439377
-246.560638	5296.310000	1367.831055	36.802982
-246.560638	5296.310000	1366.744141	-99.037849
-246.560638	5296.310000	1365.658203	20.371603
-246.560638	5296.310000	1364.571289	97.658188
-246.560638	5296.310000	1363.484375	86.082314
-246.560638	5296.310000	1362.397461	-156.707840
-246.560638	5296.310000	1361.310547	-7.114863
-246.560638	5296.310000	1360.222656	-121.817528
-246.560638	5296.310000	1359.135742	41.282116
-246.560638	5296.310000	1358.047852	86.885452
-246.560638	5296.310000	1356.958984	28.332121
-246.560638	5296.310000	1355.871094	-24.773245
-246.560638	5296.310000	1354.782227	245.911499
-246.560638	5296.310000	1353.693359	34.919971
-246.560638	5296.310000	1352.604492	-34.765694
-246.560638	5296.310000	1351.515625	10.779043
-246.560638	5296.310000	1350.425781	144.758453
-246.560638	5296.310000	1349.335938	-23.198271
-246.560638	5296.310000	1348.246094	79.076584
-246.560638	5296.310000	1347.156250	150.978226
-246.560638	5296.310000	1346.066406	263.675354
-246.560638	5296.310000	1344.975586	188.306870
-246.560638	5296.310000	1343.884766	-6.501036
-246.560638	5296.310000	1342.793945	52.973026
-246.560638	5296.310000	1341.702148	150.787003
-246.560638	5296.310000	1340.611328	-25.791058
-246.560638	5296.310000	1339.519531	242.913635
-246.560638	5296.310000	1338.427734	121.399185
-246.560638	5296.310000	1337.334961	132.125992
-246.560638	5296.310000	1336.243164	-9.629317
-246.560638	5296.310000	1335.150391	307.411743
-246.560638	5296.310000	1334.057617	152.378082
-246.560638	5296.310000	1332.964844	119.039909
-246.560638	5296.310000	1331.871094	122.649666
-246.560638	5296.310000	1330.778320	4.950622
-246.560638	5296.310000	1329.684570	16.650146
-246.560638	5296.310000	1328.590820	19.131916
-246.560638	5296.310000	1327.496094	6.004906
-246.560638	5296.310000	1326.402344	-56.992668
-246.560638	5296.310000	1325.307617	28.382853
-246.560638	5296.310000	1324.212891	228.615646
-246.560638	5296.310000	1323.117188	54.195621
-246.560638	5296.310000	1322.022461	54.264168
-246.560638	5296.310000	1320.926758	24.663712
-246.560638	5296.310000	1319.831055	0.766060
-246.560638	5296.310000	1318.735352	-31.798223
-246.560638	5296.310000	1317.638672	214.213776
-246.560638	5296.310000	1316.542969	79.635658
-246.560638	5296.310000	1315.446289	-98.672401
-246.560638	5296.310000	1314.349609	-78.874817
-246.560638	5296.310000	1313.251953	149.765533
-246.560638	5296.310000	1312.155273	166.799896
-246.560638	5296.310000	1311.057617	-151.803055
-246.560638	5296.310000	1309.959961	-35.292725
-246.560638	5296.310000	1308.862305	-29.118647
-246.560638	5296.310000	1307.763672	-112.312195
-246.560638	5296.310000	1306.665039	-43.740993
-246.560638	5296.310000	1305.566406	-143.123123
-246.560638	5296.310000	1304.467773	-37.132721
-246.560638	5296.310000	1303.369141	-72.108940
-246.560638	5296.310000	1302.269531	55.166904
-246.560638	5296.310000	1301.169922	71.748985
-246.560638	5296.310000	1300.070313	-115.467484
-246.560638	5296.310000	1298.970703	31.245710
-246.560638	5296.310000	1297.870117	71.540894
-246.560638	5296.310000	1296.769531	79.042511
-246.560638	5296.310000	1295.668945	-71.493881
-246.560638	5296.310000	1294.568359	54.199001
-246.560638	5296.310000	1293.466797	-73.609291
-246.560638	5296.310000	1292.366211	-139.737076
-246.560638	5296.310000	1291.264648	34.715435
-246.560638	5296.310000	1290.162109	196.617096
-246.560638	5296.310000	1289.060547	87.354622
-246.560638	5296.310000	1287.958008	283.969421
-246.560638	5296.310000	1286.855469	-9.434621
-246.560638	5296.310000	1285.752930	-18.974045
-246.560638	5296.310000	1284.650391	1.010045
-246.560638	5296.310000	1283.546875	24.307791
-246.560638	5296.310000	1282.444336	-17.451031
-246.560638	5296.310000	1281.339844	75.183723
-246.560638	5296.310000	1280.236328	5.176359
-246.560638	5296.310000	1279.132813	-11.815781
-246.560638	5296.310000	1278.028320	55.428146
-246.560638	5296.310000	1276.923828	8.837117
-246.560638	5296.310000	1275.819336	-12.634081
-246.560638	5296.310000	1274.713867	-136.063416
-246.560638	5296.310000	1273.608398	16.616747
-246.560638	5296.310000	1272.503906	58.764057
-246.560638	5296.310000	1271.397461	32.023155
-246.560638	5296.310000	1270.291992	86.606247
-246.560638	5296.310000	1269.185547	140.966125
-246.560638	5296.310000	1268.080078	-14.789063
-246.560638	5296.310000	1266.972656	78.665070
-246.560638	5296.310000	1265.866211	6.664704
-246.560638	5296.310000	1264.759766	53.204170
-246.560638	5296.310000	1263.652344	72.940903
-246.560638	5296.310000	1262.544922	81.080193
-246.560638	5296.310000	1261.436523	69.870293
-246.560638	5296.310000	1260.329102	39.066788
-246.560638	5296.310000	1259.220703	37.778778
-246.560638	5296.310000	1258.112305	-41.861694
-246.560638	5296.310000	1257.003906	66.146072
-246.560638	5296.310000	1255.895508	-129.798782
-246.560638	5296.310000	1254.786133	32.415291
-246.560638	5296.310000	1253.676758	-130.344315
-246.560638	5296.310000	1252.567383	-134.007553
-246.560638	5296.310000	1251.458008	-146.311020
-246.560638	5296.310000	1250.347656	-153.025970
-246.560638	5296.310000	1249.237305	-130.477417
-246.560638	5296.310000	1248.126953	-158.407776
-246.560638	5296.310000	1247.016602	-41.409145
-246.560638	5296.310000	1245.905273	-143.555481
-246.560638	5296.310000	1244.793945	-65.892494
-246.560638	5296.310000	1243.682617	-32.404804
-246.560638	5296.310000	1242.571289	-11.135653
-246.560638	5296.310000	1241.459961	-138.222015
-246.560638	5296.310000	1240.347656	-20.740801
-246.560638	5296.310000	1239.235352	-20.777731
-246.560638	5296.310000	1238.123047	46.288033
-246.560638	5296.310000	1237.009766	78.336609
-246.560638	5296.310000	1235.897461	66.679260
-246.560638	5296.310000	1234.784180	62.800117
-246.560638	5296.310000	1233.670898	53.234566
-246.560638	5296.310000	1232.556641	-20.915606
-246.560638	5296.310000	1231.443359	-29.380110
-246.560638	5296.310000	1230.329102	43.881790
-246.560638	5296.310000	1229.214844	-30.204840
-246.560638	5296.310000	1228.099609	123.217628
-246.560638	5296.310000	1226.985352	93.894142
-246.560638	5296.310000	1225.870117	-91.937340
-246.560638	5296.310000	1224.754883	108.790863
-246.560638	5296.310000	1223.639648	183.918335
-246.560638	5296.310000	1222.523438	97.601555
-246.560638	5296.310000	1221.408203	-114.262169
-246.560638	5296.310000	1220.291992	0.819991
-246.560638	5296.310000	1219.174805	-27.259642
-246.560638	5296.310000	1218.058594	107.048660
-246.560638	5296.310000	1216.941406	2.038450
-246.560638	5296.310000	1215.824219	-9.853404
-246.560638	5296.310000	1214.707031	140.412918
-246.560638	5296.310000	1213.589844	127.861595
-246.560638	5296.310000	1212.471680	151.434204
-246.560638	5296.310000	1211.353516	140.181885
-246.560638	5296.310000	1210.235352	132.894455
-246.560638	5296.310000	1209.117188	82.344193
-246.560638	5296.310000	1207.998047	104.932556
-246.560638	5296.310000	1206.878906	85.201973
-246.560638	5296.310000	1205.759766	287.017456
-246.560638	5296.310000	1204.640625	82.081932
-246.560638	5296.310000	1203.520508	131.039047
-246.560638	5296.310000	1202.401367	116.058884
-246.560638	5296.310000	1201.281250	-19.220467
-246.560638	5296.310000	1200.160156	42.709564
-246.560638	5296.310000	1199.040039	44.520088
-246.560638	5296.310000	1197.918945	11.506376
-246.560638	5296.310000	1196.797852	-57.495129
-246.560638	5296.310000	1195.676758	16.934326
-246.560638	5296.310000	1194.555664	16.789669
-246.560638	5296.310000	1193.433594	0.718395
-246.560638	5296.310000	1192.311523	41.068710
-246.560638	5296.310000	1191.189453	80.843361
-246.560638	5296.310000	1190.066406	-34.746708
-246.560638	5296.310000	1188.944336	-65.799721
-246.560638	5296.310000	1187.821289	116.127869
-246.560638	5296.310000	1186.698242	1.981995
-246.560638	5296.310000	1185.574219	-55.378983
-246.560638	5296.310000	1184.451172	-51.461391
-246.560638	5296.310000	1183.327148	5.301283
-246.560638	5296.310000	1182.203125	-120.903770
-246.560638	5296.310000	1181.078125	52.270058
-246.560638	5296.310000	1179.954102	9.881000
-246.560638	5296.310000	1178.829102	-25.386362
-246.560638	5296.310000	1177.704102	-72.964897
-246.560638	5296.310000	1176.579102	-170.351822
-246.560638	5296.310000	1175.453125	-35.959393
-246.560638	5296.310000	1174.327148	7.911425
-246.560638	5296.310000	1173.201172	-283.747345
-246.560638	5296.310000	1172.075195	-95.469048
-246.560638	5296.310000	1170.949219	2.193432
-246.560638	5296.310000	1169.822266	-55.772774
-246.560638	5296.310000	1168.695313	10.776727
-246.560638	5296.310000	1167.568359	-106.818359
-246.560638	5296.310000	1166.440430	46.387070
-246.560638	5296.310000	1165.313477	-11.332572
-246.560638	5296.310000	1164.185547	-21.987347
-246.560638	5296.310000	1163.057617	39.075035
-246.560638	5296.310000	1161.928711	-88.270691
-246.560638	5296.310000	1160.800781	57.000015
-246.560638	5296.310000	1159.671875	-122.710899
-246.560638	5296.310000	1158.541992	235.036819
-246.560638	5296.310000	1157.413086	26.364487
-246.560638	5296.310000	1156.283203	-68.504745
-246.560638	5296.310000	1155.154297	29.966507
-246.560638	5296.310000	1154.023438	84.813614
-246.560638	5296.310000	1152.893555	163.508789
-246.560638	5296.310000	1151.763672	75.145462
-246.560638	5296.310000	1150.632813	82.470322
-246.560638	5296.310000	1149.501953	-47.881729
-246.560638	5296.310000	1148.370117	224.607452
-246.560638	5296.310000	1147.239258	23.702057
-246.560638	5296.310000	1146.107422	51.719692
-246.560638	5296.310000	1144.975586	10.446715
-246.560638	5296.310000	1143.843750	105.805885
-246.560638	5296.310000	1142.710938	52.248863
-246.560638	5296.310000	1141.578125	40.029827
-246.560638	5296.310000	1140.445313	37.296158
-246.560638	5296.310000	1139.312500	-51.788174
-246.560638	5296.310000	1138.178711	135.124939
-246.560638	5296.310000	1137.045898	-81.348480
-246.560638	5296.310000	1135.912109	-16.947689
-246.560638	5296.310000	1134.777344	-8.975557
-246.560638	5296.310000	1133.643555	199.424301
-246.560638	5296.310000	1132.508789	368.700989
-246.560638	5296.310000	1131.374023	154.028763
-246.560638	5296.310000	1130.239258	409.910492
-246.560638	5296.310000	1129.104492	314.746490
-246.560638	5296.310000	1127.968750	358.745117
-246.560638	5296.310000	1126.833008	229.901932
-246.560638	5296.310000	1125.697266	102.912247
-246.560638	5296.310000	1124.560547	261.605408
-246.560638	5296.310000	1123.424805	211.115463
-246.560638	5296.310000	1122.288086	224.925415
-246.560638	5296.310000	1121.151367	341.696014
-246.560638	5296.310000	1120.013672	301.389404
-246.560638	5296.310000	1118.876953	380.240356
-246.560638	5296.310000	1117.739258	354.777649
-246.560638	5296.310000	1116.601563	101.148407
-246.560638	5296.310000	1115.462891	157.886017
-246.560638	5296.310000	1114.324219	43.538067
-246.560638	5296.310000	1113.186523	191.013550
-246.560638	5296.310000	1112.046875	232.376358
-246.560638	5296.310000	1110.908203	296.956085
-246.560638	5296.310000	1109.769531	306.055603
-246.560638	5296.310000	1108.629883	101.976723
-246.560638	5296.310000	1107.490234	195.322800
-246.560638	5296.310000	1106.349609	279.885864
-246.560638	5296.310000	1105.209961	271.596466
-246.560638	5296.310000	1104.069336	158.557159
-246.560638	5296.310000	1102.928711	232.245453
-246.560638	5296.310000	1101.787109	250.002136
-246.560638	5296.310000	1100.646484	193.888718
-246.560638	5296.310000	1099.504883	110.465691
-246.560638	5296.310000	1098.363281	343.690094
-246.560638	5296.310000	1097.221680	476.855896
-246.560638	5296.310000	1096.079102	315.130920
-246.560638	5296.310000	1094.936523	124.614830
-246.560638	5296.310000	1093.793945	362.738342
-246.560638	5296.310000	1092.651367	202.062927
-246.560638	5296.310000	1091.507813	444.079681
-246.560638	5296.310000	1090.364258	265.381470
-246.560638	5296.310000	1089.220703	250.940979
-246.560638	5296.310000	1088.077148	342.523865
-246.560638	5296.310000	1086.933594	225.878143
-246.560638	5296.310000	1085.789063	269.514313
-246.560638	5296.310000	1084.644531	48.591843
-246.560638	5296.310000	1083.499023	170.895554
-246.560638	5296.310000	1082.354492	78.839165
-246.560638	5296.310000	1081.208984	104.477730
-246.560638	5296.310000	1080.063477	152.028366
-246.560638	5296.310000	1078.917969	110.424690
-246.560638	5296.310000	1077.771484	47.825523
-246.560638	5296.310000	1076.625977	-11.576940
-246.560638	5296.310000	1075.479492	346.152069
-246.560638	5296.310000	1074.332031	148.945175
-246.560638	5296.310000	1073.185547	159.973175
-246.560638	5296.310000	1072.038086	-117.802887
-246.560638	5296.310000	1070.890625	269.089142
-246.560638	5296.310000	1069.743164	102.024338
-246.560638	5296.310000	1068.594727	67.510956
-246.560638	5296.310000	1067.447266	237.647751
-246.560638	5296.310000	1066.298828	379.520599
-246.560638	5296.310000	1065.149414	250.457642
-246.560638	5296.310000	1064.000977	303.083099
-246.560638	5296.310000	1062.851563	340.006165
-246.560638	5296.310000	1061.702148	389.304657
-246.560638	5296.310000	1060.552734	370.812561
-246.560638	5296.310000	1059.402344	297.636749
-246.560638	5296.310000	1058.252930	217.457245
-246.560638	5296.310000	1057.102539	199.929047
-246.560638	5296.310000	1055.951172	126.771851
-246.560638	5296.310000	1054.800781	143.870926
-246.560638	5296.310000	1053.649414	102.128227
-246.560638	5296.310000	1052.498047	374.316956
-246.560638	5296.310000	1051.346680	52.289749
-246.560638	5296.310000	1050.194336	46.325138
-246.560638	5296.310000	1049.042969	50.948219
-246.560638	5296.310000	1047.890625	273.188690
-246.560638	5296.310000	1046.738281	186.981003
-246.560638	5296.310000	1045.584961	-77.167816
-246.560638	5296.310000	1044.431641	187.026337
-246.560638	5296.310000	1043.278320	-37.271442
-246.560638	5296.310000	1042.125000	136.610809
-246.560638	5296.310000	1040.971680	-46.876648
-246.560638	5296.310000	1039.817383	-3.661445
-246.560638	5296.310000	1038.663086	28.857996
-246.560638	5296.310000	1037.508789	31.386827
-246.560638	5296.310000	1036.353516	191.256165
-246.560638	5296.310000	1035.198242	243.274658
-246.560638	5296.310000	1034.042969	163.039078
-246.560638	5296.310000	1032.887695	109.659851
-246.560638	5296.310000	1031.732422	123.932953
-246.560638	5296.310000	1030.576172	69.108383
-246.560638	5296.310000	1029.419922	88.130608
-246.560638	5296.310000	1028.263672	151.118866
-246.560638	5296.310000	1027.106445	202.544769
-246.560638	5296.310000	1025.949219	85.028633
-246.560638	5296.310000	1024.792969	212.396896
-246.560638	5296.310000	1023.634766	155.932327
-246.560638	5296.310000	1022.477539	140.940231
-246.560638	5296.310000	1021.319336	285.841187
-246.560638	5296.310000	1020.161133	358.304413
-246.560638	5296.310000	1019.002930	10.415970
-246.560638	5296.310000	1017.843750	54.456909
-246.560638	5296.310000	1016.684570	93.706863
-246.560638	5296.310000	1015.525391	-13.054783
-246.560638	5296.310000	1014.366211	7.879100
-246.560638	5296.310000	1013.207031	-97.873230
-246.560638	5296.310000	1012.046875	-122.668465
-246.560638	5296.310000	1010.886719	72.334625
-246.560638	5296.310000	1009.726563	37.674217
-246.560638	5296.310000	1008.565430	-156.454651
-246.560638	5296.310000	1007.404297	-9.838652
-246.560638	5296.310000	1006.243164	214.977402
-246.560638	5296.310000	1005.082031	-35.834530
-246.560638	5296.310000	1003.920898	85.044998
-246.560638	5296.310000	1002.758789	25.886139
-246.560638	5296.310000	1001.596680	275.790985
-246.560638	5296.310000	1000.433594	-44.737930
-246.560638	5296.310000	999.271484	50.871738
-246.560638	5296.310000	998.108398	89.502914
-246.560638	5296.310000	996.945313	-14.523525
-246.560638	5296.310000	995.782227	78.302299
-246.560638	5296.310000	994.618164	190.797318
-246.560638	5296.310000	993.454102	212.962158
-246.560638	5296.310000	992.290039	-47.580029
-246.560638	5296.310000	991.125977	148.889603
-246.560638	5296.310000	989.960938	3.516059
-246.560638	5296.310000	988.796875	11.000831
-246.560638	5296.310000	987.630859	151.126373
-246.560638	5296.310000	986.465820	-19.428642
-246.560638	5296.310000	985.300781	130.999359
-246.560638	5296.310000	984.134766	256.524078
-246.560638	5296.310000	982.968750	-29.910416
-246.560638	5296.310000	981.801758	32.271500
-246.560638	5296.310000	980.635742	-45.798851
-246.560638	5296.310000	979.468750	-182.762390
-246.560638	5296.310000	978.301758	20.473476
-246.560638	5296.310000	977.133789	135.781158
-246.560638	5296.310000	975.966797	20.361414
-246.560638	5296.310000	974.798828	-118.975586
-246.560638	5296.310000	973.630859	-41.746597
-246.560638	5296.310000	972.461914	-11.521626
-246.560638	5296.310000	971.293945	160.212692
-246.560638	5296.310000	970.125000	97.383598
-246.560638	5296.310000	968.956055	44.065216
-246.560638	5296.310000	967.786133	178.718735
-246.560638	5296.310000	966.617188	-180.237106
-246.560638	5296.310000	965.447266	-1.302910
-246.560638	5296.310000	964.276367	-75.150467
-246.560638	5296.310000	963.106445	104.832375
-246.560638	5296.310000	961.935547	-153.093323
-246.560638	5296.310000	960.764648	61.215984
-246.560638	5296.310000	959.593750	-119.149773
-246.560638	5296.310000	958.422852	-76.414116
-246.560638	5296.310000	957.250977	-83.701904
-246.560638	5296.310000	956.079102	29.870676
-246.560638	5296.310000	954.907227	-28.470692
-246.560638	5296.310000	953.734375	-161.229797
-246.560638	5296.310000	952.562500	-20.561872
-246.560638	5296.310000	951.389648	-122.833000
-246.560638	5296.310000	950.215820	-153.839996
-246.560638	5296.310000	949.042969	28.178976
-246.560638	5296.310000	947.869141	72.364586
-246.560638	5296.310000	946.695313	179.996246
-246.560638	5296.310000	945.521484	-193.747253
-246.560638	5296.310000	944.346680	-142.309235
-246.560638	5296.310000	943.172852	85.525337
-246.560638	5296.310000	941.998047	-116.213287
-246.560638	5296.310000	940.822266	254.416351
-246.560638	5296.310000	939.647461	100.971138
-246.560638	5296.310000	938.471680	108.979309
-246.560638	5296.310000	937.295898	-11.243543
-246.560638	5296.310000	936.119141	341.905090
-246.560638	5296.310000	934.943359	17.220440
-246.560638	5296.310000	933.766602	-26.166798
-246.560638	5296.310000	932.589844	37.751396
-246.560638	5296.310000	931.413086	127.142090
-246.560638	5296.310000	930.235352	109.404617
-246.560638	5296.310000	929.057617	96.625137
-246.560638	5296.310000	927.879883	163.054703
-246.560638	5296.310000	926.702148	247.284225
-246.560638	5296.310000	925.523438	45.503017
-246.560638	5296.310000	924.344727	160.386154
-246.560638	5296.310000	923.166016	-8.142467
-246.560638	5296.310000	921.987305	188.361557
-246.560638	5296.310000	920.807617	262.299438
-246.560638	5296.310000	919.627930	264.364838
-246.560638	5296.310000	919.497070	81.295464
-246.560638	5296.310000	918.331055	25.089540
-246.560638	5296.310000	917.165039	81.106224
-246.560638	5296.310000	915.999023	-41.388798
-246.560638	5296.310000	914.833008	-112.860298
-246.560638	5296.310000	913.666016	-237.832916
-246.560638	5296.310000	912.499023	-74.821953
-246.560638	5296.310000	911.332031	-72.387886
-246.560638	5296.310000	910.165039	1.355080
-246.560638	5296.310000	908.997070	207.483841
-246.560638	5296.310000	907.830078	49.426807
-246.560638	5296.310000	906.661133	148.530716
-246.560638	5296.310000	905.493164	43.978249
-246.560638	5296.310000	904.325195	-22.371502
-246.560638	5296.310000	903.156250	175.875687
-246.560638	5296.310000	901.987305	15.398932
-246.560638	5296.310000	900.818359	-0.071260
-246.560638	5296.310000	899.648438	139.547791
-246.560638	5296.310000	898.478516	-33.558937
-246.560638	5296.310000	897.308594	113.616417
-246.560638	5296.310000	896.138672	87.941086
-246.560638	5296.310000	894.968750	39.403397
-246.560638	5296.310000	893.797852	420.117218
-246.560638	5296.310000	892.626953	31.242189
-246.560638	5296.310000	891.456055	114.740250
-246.560638	5296.310000	890.284180	162.660812
-246.560638	5296.310000	889.113281	-81.296005
-246.560638	5296.310000	887.941406	200.057419
-246.560638	5296.310000	886.768555	227.612717
-246.560638	5296.310000	885.596680	-31.450470
-246.560638	5296.310000	884.423828	115.302505
-246.560638	5296.310000	883.250977	51.564529
-246.560638	5296.310000	882.078125	96.835617
-246.560638	5296.310000	880.905273	281.458557
-246.560638	5296.310000	879.731445	93.552048
-246.560638	5296.310000	878.557617	27.304071
-246.560638	5296.310000	877.383789	59.847469
-246.560638	5296.310000	876.209961	16.405897
-246.560638	5296.310000	875.035156	-92.847336
-246.560638	5296.310000	873.860352	185.189880
-246.560638	5296.310000	872.685547	30.380833
-246.560638	5296.310000	871.510742	22.368116
-246.560638	5296.310000	870.334961	166.122864
-246.560638	5296.310000	869.159180	226.353638
-246.560638	5296.310000	867.983398	-143.290131
-246.560638	5296.310000	866.807617	-12.255698
-246.560638	5296.310000	865.630859	40.368458
-246.560638	5296.310000	864.454102	103.069244
-246.560638	5296.310000	863.277344	-102.062508
-246.560638	5296.310000	862.100586	97.023003
-246.560638	5296.310000	860.922852	3.077123
-246.560638	5296.310000	859.745117	-201.931778
-246.560638	5296.310000	858.567383	-121.616005
-246.560638	5296.310000	857.389648	-149.865219
-246.560638	5296.310000	856.210938	263.466431
-246.560638	5296.310000	855.032227	-44.894840
-246.560638	5296.310000	853.853516	-27.766443
-246.560638	5296.310000	852.674805	-131.697205
-246.560638	5296.310000	851.495117	26.614931
-246.560638	5296.310000	850.315430	116.794624
-246.560638	5296.310000	849.135742	-32.489182
-246.560638	5296.310000	847.956055	70.245911
-246.560638	5296.310000	846.775391	-139.443192
-246.560638	5296.310000	845.595703	129.484924
-246.560638	5296.310000	844.415039	121.302269
-246.560638	5296.310000	843.233398	55.210957
-246.560638	5296.310000	842.052734	21.857897
-246.560638	5296.310000	840.871094	174.737717
-246.560638	5296.310000	839.689453	158.970261
-246.560638	5296.310000	838.506836	148.232468
-246.560638	5296.310000	837.325195	119.884224
-246.560638	5296.310000	836.142578	43.763828
-246.560638	5296.310000	834.959961	138.617111
-246.560638	5296.310000	833.777344	-103.382118
-246.560638	5296.310000	832.593750	-21.119446
-246.560638	5296.310000	831.410156	106.324806
-246.560638	5296.310000	830.226563	27.729897
-246.560638	5296.310000	829.042969	62.170990
-246.560638	5296.310000	827.858398	16.241961
-246.560638	5296.310000	826.673828	-29.677526
-246.560638	5296.310000	825.489258	336.025787
-246.560638	5296.310000	824.304688	189.668213
-246.560638	5296.310000	823.120117	198.906998
-246.560638	5296.310000	821.934570	47.603523
-246.560638	5296.310000	820.749023	-38.445522
-246.560638	5296.310000	819.562500	148.823410
-246.560638	5296.310000	818.376953	-12.431766
-246.560638	5296.310000	817.190430	-161.097595
-246.560638	5296.310000	816.003906	31.063076
-246.560638	5296.310000	814.817383	275.742554
-246.560638	5296.310000	813.629883	31.903790
-246.560638	5296.310000	812.442383	206.348373
-246.560638	5296.310000	811.254883	50.231514
-246.560638	5296.310000	810.067383	-40.750534
-246.560638	5296.310000	808.878906	-39.107559
-246.560638	5296.310000	807.690430	272.782410
-246.560638	5296.310000	806.501953	126.747406
-246.560638	5296.310000	805.313477	-56.752632
-246.560638	5296.310000	804.124023	2.364254
-246.560638	5296.310000	802.934570	163.946625
-246.560638	5296.310000	801.745117	23.013937
-246.560638	5296.310000	800.555664	47.060280
-246.560638	5296.310000	799.365234	46.103138
-246.560638	5296.310000	798.175781	-84.758873
-246.560638	5296.310000	796.985352	31.669432
-246.560638	5296.310000	795.793945	-39.229229
-246.560638	5296.310000	794.603516	19.702408
-246.560638	5296.310000	793.412109	-161.004593
-246.560638	5296.310000	792.220703	-89.616844
-246.560638	5296.310000	791.028320	-48.206776
-246.560638	5296.310000	789.836914	75.486458
-246.560638	5296.310000	788.644531	-40.287388
-246.560638	5296.310000	787.452148	123.223648
-246.560638	5296.310000	786.258789	-154.563644
-246.560638	5296.310000	785.066406	93.617523
-246.560638	5296.310000	783.873047	239.522675
-246.560638	5296.310000	782.679688	183.567871
-246.560638	5296.310000	781.485352	-101.519577
-246.560638	5296.310000	780.291992	64.221519
-246.560638	5296.310000	779.097656	-36.511024
-246.560638	5296.310000	777.903320	12.134459
-246.560638	5296.310000	776.708008	-68.659691
-246.560638	5296.310000	775.512695	32.199402
-246.560638	5296.310000	774.318359	26.037086
-246.560638	5296.310000	773.122070	146.708099
-246.560638	5296.310000	771.926758	222.556763
-246.560638	5296.310000	770.730469	-24.823708
-246.560638	5296.310000	769.534180	8.751415
-246.560638	5296.310000	768.337891	29.873852
-246.560638	5296.310000	767.141602	202.529861
-246.560638	5296.310000	765.944336	243.450500
-246.560638	5296.310000	764.747070	306.692657
-246.560638	5296.310000	763.549805	64.492523
-246.560638	5296.310000	762.351563	239.428848
-246.560638	5296.310000	761.154297	399.387909
-246.560638	5296.310000	759.956055	236.685394
-246.560638	5296.310000	758.757813	297.316681
-246.560638	5296.310000	757.558594	10.658267
-246.560638	5296.310000	756.359375	76.244614
-246.560638	5296.310000	755.160156	89.724075
-246.560638	5296.310000	753.960938	-3.404386
-246.560638	5296.310000	752.761719	91.842552
-246.560638	5296.310000	751.561523	251.458542
-246.560638	5296.310000	750.361328	74.085510
-246.560638	5296.310000	749.160156	221.227829
-246.560638	5296.310000	747.959961	68.669502
-246.560638	5296.310000	746.758789	-26.897068
-246.560638	5296.310000	745.557617	-63.033035
-246.560638	5296.310000	744.356445	145.825012
-246.560638	5296.310000	743.154297	250.666733
-246.560638	5296.310000	741.952148	-32.912720
-246.560638	5296.310000	740.750000	39.743805
-246.560638	5296.310000	739.547852	107.408707
-246.560638	5296.310000	738.344727	29.178062
-246.560638	5296.310000	737.142578	101.730614
-246.560638	5296.310000	735.939453	320.032013
-246.560638	5296.310000	734.735352	123.174904
-246.560638	5296.310000	733.532227	141.277603
-246.560638	5296.310000	732.328125	208.749008
-246.560638	5296.310000	731.124023	51.496891
-246.560638	5296.310000	729.918945	121.396538
-246.560638	5296.310000	728.714844	20.961824
-246.560638	5296.310000	727.509766	83.405312
-246.560638	5296.310000	726.303711	19.994484
-246.560638	5296.310000	725.098633	92.247208
-246.560638	5296.310000	723.892578	33.761707
-246.560638	5296.310000	722.686523	-32.110817
-246.560638	5296.310000	721.480469	79.498734
-246.560638	5296.310000	720.274414	1.290505
-246.560638	5296.310000	719.067383	85.713928
-246.560638	5296.310000	717.860352	37.065556
-246.560638	5296.310000	716.653320	52.454735
-246.560638	5296.310000	715.445313	72.746864
-246.560638	5296.310000	714.238281	56.087975
-246.560638	5296.310000	713.030273	-36.879971
-246.560638	5296.310000	711.821289	175.308792
-246.560638	5296.310000	710.613281	-104.654732
-246.560638	5296.310000	709.404297	-27.857143
-246.560638	5296.310000	708.195313	-19.966606
-246.560638	5296.310000	706.986328	-105.525139
-246.560638	5296.310000	705.776367	135.872620
-246.560638	5296.310000	704.566406	15.877894
-246.560638	5296.310000	703.356445	-212.196838
-246.560638	5296.310000	702.146484	-7.827189
-246.560638	5296.310000	700.935547	103.108971
-246.560638	5296.310000	699.724609	-24.209736
-246.560638	5296.310000	698.513672	-291.431763
-246.560638	5296.310000	697.302734	175.355972
-246.560638	5296.310000	696.090820	-1.028154
-246.560638	5296.310000	694.878906	212.755661
-246.560638	5296.310000	693.666992	2.062878
-246.560638	5296.310000	692.455078	7.260708
-246.560638	5296.310000	691.242188	211.051254
-246.560638	5296.310000	690.029297	169.592758
-246.560638	5296.310000	688.816406	-16.470238
-246.560638	5296.310000	687.602539	-40.743271
-246.560638	5296.310000	686.389648	-104.221291
-246.560638	5296.310000	685.175781	79.701027
-246.560638	5296.310000	683.960938	45.577377
-246.560638	5296.310000	682.747070	104.491020
-246.560638	5296.310000	681.532227	60.553066
-246.560638	5296.310000	680.317383	158.563477
-246.560638	5296.310000	679.102539	107.258598
-246.560638	5296.310000	677.886719	170.936172
-246.560638	5296.310000	676.670898	-7.562803
-246.560638	5296.310000	675.455078	195.460953
-246.560638	5296.310000	674.239258	-80.792336
-246.560638	5296.310000	673.022461	168.569748
-246.560638	5296.310000	671.805664	166.105087
-246.560638	5296.310000	670.588867	219.819580
-246.560638	5296.310000	669.372070	2.354921
-246.560638	5296.310000	668.154297	139.082947
-246.560638	5296.310000	666.936523	104.820396
-246.560638	5296.310000	665.718750	-0.236373
-246.560638	5296.310000	664.500977	194.934204
-246.560638	5296.310000	663.282227	97.190277
-246.560638	5296.310000	662.063477	75.100601
-246.560638	5296.310000	660.844727	189.593964
-246.560638	5296.310000	659.625000	355.233582
-246.560638	5296.310000	658.405273	145.324554
-246.560638	5296.310000	657.185547	76.866989
-246.560638	5296.310000	655.965820	191.201828
-246.560638	5296.310000	654.745117	-30.768908
-246.560638	5296.310000	653.525391	161.462540
-246.560638	5296.310000	652.303711	217.208496
-246.560638	5296.310000	651.083008	22.113897
-246.560638	5296.310000	649.861328	219.035416
-246.560638	5296.310000	648.640625	-24.686106
-246.560638	5296.310000	647.417969	176.999847
-246.560638	5296.310000	646.196289	266.670959
-246.560638	5296.310000	644.973633	186.021744
-246.560638	5296.310000	643.750977	-21.066351
-246.560638	5296.310000	642.528320	-21.413494
-246.560638	5296.310000	641.305664	165.402344
-246.560638	5296.310000	640.082031	53.191319
-246.560638	5296.310000	638.858398	-10.389641
-246.560638	5296.310000	637.634766	113.101997
-246.560638	5296.310000	636.410156	64.081863
-246.560638	5296.310000	635.185547	85.489128
-246.560638	5296.310000	633.960938	-67.925056
-246.560638	5296.310000	632.736328	130.665649
-246.560638	5296.310000	631.510742	-112.508690
-246.560638	5296.310000	630.285156	-146.936584
-246.560638	5296.310000	629.059570	5.418293
-246.560638	5296.310000	627.833984	138.295380
-246.560638	5296.310000	626.607422	48.031166
-246.560638	5296.310000	625.380859	151.728012
-246.560638	5296.310000	624.154297	170.540421
-246.560638	5296.310000	622.927734	-31.172026
-246.560638	5296.310000	621.700195	-17.196896
-246.560638	5296.310000	620.472656	110.601440
-246.560638	5296.310000	619.245117	39.763233
-246.560638	5296.310000	618.016602	189.262619
-246.560638	5296.310000	616.788086	145.041931
-246.560638	5296.310000	615.559570	52.429482
-246.560638	5296.310000	614.331055	46.949936
-246.560638	5296.310000	613.101563	271.270782
-246.560638	5296.310000	611.872070	55.314831
-246.560638	5296.310000	610.642578	-104.943069
-246.560638	5296.310000	609.413086	-71.742897
-246.560638	5296.310000	608.182617	-67.569527
-246.560638	5296.310000	606.952148	-89.988388
-246.560638	5296.310000	605.721680	114.695114
-246.560638	5296.310000	604.491211	-72.018761
-246.560638	5296.310000	603.259766	202.590195
-246.560638	5296.310000	602.028320	-5.809052
-246.560638	5296.310000	600.796875	-119.983795
-246.560638	5296.310000	599.564453	-55.527313
-246.560638	5296.310000	598.332031	-61.078217
-246.560638	5296.310000	597.099609	-44.921387
-246.560638	5296.310000	595.867188	-36.013569
-246.560638	5296.310000	594.633789	35.579288
-246.560638	5296.310000	593.400391	-1.351696
-246.560638	5296.310000	592.166992	34.037510
-246.560638	5296.310000	590.933594	269.420044
-246.560638	5296.310000	589.699219	8.383310
-246.560638	5296.310000	588.464844	-55.025726
-246.560638	5296.310000	587.230469	124.821175
-246.560638	5296.310000	585.995117	162.529938
-246.560638	5296.310000	584.760742	113.559532
-246.560638	5296.310000	583.525391	-70.170479
-246.560638	5296.310000	582.289063	148.011108
-246.560638	5296.310000	581.053711	58.168747
-246.560638	5296.310000	579.817383	-34.042652
-246.560638	5296.310000	578.581055	111.844833
-246.560638	5296.310000	577.343750	-30.831398
-246.560638	5296.310000	576.107422	167.870041
-246.560638	5296.310000	574.870117	167.025970
-246.560638	5296.310000	573.631836	257.479462
-246.560638	5296.310000	572.394531	146.118240
-246.560638	5296.310000	571.156250	176.497604
-246.560638	5296.310000	569.917969	62.799355
-246.560638	5296.310000	568.679688	-96.460556
-246.560638	5296.310000	567.440430	349.161713
-246.560638	5296.310000	566.202148	177.913223
-246.560638	5296.310000	564.961914	167.472534
-246.560638	5296.310000	563.722656	149.843369
-246.560638	5296.310000	562.482422	201.765640
-246.560638	5296.310000	561.243164	49.881905
-246.560638	5296.310000	560.001953	27.501600
-246.560638	5296.310000	558.761719	-38.001461
-246.560638	5296.310000	557.520508	203.207382
-246.560638	5296.310000	556.279297	199.982773
-246.560638	5296.310000	555.038086	194.367966
-246.560638	5296.310000	553.795898	21.150610
-246.560638	5296.310000	552.554688	130.493683
-246.560638	5296.310000	551.311523	182.351242
-246.560638	5296.310000	550.069336	100.192711
-246.560638	5296.310000	548.826172	147.261002
-246.560638	5296.310000	547.583984	-64.003601
-246.560638	5296.310000	546.339844	100.267075
-246.560638	5296.310000	545.096680	149.715225
-246.560638	5296.310000	543.852539	113.096481
-246.560638	5296.310000	542.608398	114.738060
-246.560638	5296.310000	541.364258	56.653908
-246.560638	5296.310000	540.119141	-10.953274
-246.560638	5296.310000	538.875000	-23.592533
-246.560638	5296.310000	537.628906	126.148361
-246.560638	5296.310000	536.383789	44.270790
-246.560638	5296.310000	535.137695	-90.072060
-246.560638	5296.310000	533.892578	26.206390
-246.560638	5296.310000	532.645508	-10.242306
-246.560638	5296.310000	531.399414	70.210075
-246.560638	5296.310000	530.152344	-102.140663
-246.560638	5296.310000	528.905273	-90.824890
-246.560638	5296.310000	527.658203	-19.912689
-246.560638	5296.310000	526.410156	-37.197445
-246.560638	5296.310000	525.163086	62.286167
-246.560638	5296.310000	523.914063	-14.540633
-246.560638	5296.310000	522.666016	111.115181
-246.560638	5296.310000	521.416992	-110.914391
-246.560638	5296.310000	520.167969	-42.404945
-246.560638	5296.310000	518.918945	192.694458
-246.560638	5296.310000	517.669922	-41.073074
-246.560638	5296.310000	516.419922	-158.154221
-246.560638	5296.310000	515.169922	45.933151
-246.560638	5296.310000	513.919922	16.895212
-246.560638	5296.310000	512.668945	-69.178604
-246.560638	5296.310000	511.417969	37.336357
-246.560638	5296.310000	510.166992	-70.067642
-246.560638	5296.310000	508.916016	26.922934
-246.560638	5296.310000	507.664063	-154.048767
-246.560638	5296.310000	506.412109	213.690643
-246.560638	5296.310000	505.160156	-114.434029
-246.560638	5296.310000	503.907227	-98.181976
-246.560638	5296.310000	502.655273	-86.670502
-246.560638	5296.310000	501.402344	-53.795010
-246.560638	5296.310000	500.148438	-25.665865
-246.560638	5296.310000	498.895508	94.969650
-246.560638	5296.310000	497.641602	-59.518246
-246.560638	5296.310000	496.387695	-17.142904
-246.560638	5296.310000	495.132813	44.189930
-246.560638	5296.310000	493.878906	119.728897
-246.560638	5296.310000	492.624023	79.147957
-246.560638	5296.310000	491.368164	175.989929
-246.560638	5296.310000	490.113281	-91.923424
-246.560638	5296.310000	488.857422	-56.626148
-246.560638	5296.310000	487.601563	-42.638668
-246.560638	5296.310000	486.344727	122.829491
-246.560638	5296.310000	485.088867	-14.648127
-246.560638	5296.310000	483.832031	-144.960083
-246.560638	5296.310000	482.575195	29.917015
-246.560638	5296.310000	481.317383	-5.736185
-246.560638	5296.310000	480.059570	3.555791
-246.560638	5296.310000	478.801758	-10.783635
-246.560638	5296.310000	477.543945	-96.005875
-246.560638	5296.310000	476.285156	-37.055946
-246.560638	5296.310000	475.027344	305.344421
-246.560638	5296.310000	473.767578	9.939214
-246.560638	5296.310000	472.508789	38.155247
-246.560638	5296.310000	471.249023	-39.866856
-246.560638	5296.310000	469.989258	68.604919
-246.560638	5296.310000	468.729492	-68.371475
-246.560638	5296.310000	467.469727	-66.092613
-246.560638	5296.310000	466.208984	18.741381
-246.560638	5296.310000	464.948242	61.094799
-246.560638	5296.310000	463.686523	169.446182
-246.560638	5296.310000	462.425781	42.039188
-246.560638	5296.310000	461.164063	-85.312927
-246.560638	5296.310000	459.901367	-106.584694
-246.560638	5296.310000	458.639648	32.331703
-246.560638	5296.310000	457.376953	154.700562
-246.560638	5296.310000	456.114258	211.084518
-246.560638	5296.310000	454.851563	20.261801
-246.560638	5296.310000	453.587891	55.457699
-246.560638	5296.310000	452.324219	62.395851
-246.560638	5296.310000	451.060547	165.778198
-246.560638	5296.310000	449.796875	-8.435575
-246.560638	5296.310000	448.532227	174.849731
-246.560638	5296.310000	447.267578	151.153503
-246.560638	5296.310000	446.002930	42.835667
-246.560638	5296.310000	444.737305	-178.250946
-246.560638	5296.310000	443.471680	101.186363
-246.560638	5296.310000	442.206055	108.001518
-246.560638	5296.310000	440.940430	-82.477966
-246.560638	5296.310000	439.673828	88.693245
-246.560638	5296.310000	438.407227	-0.802684
-246.560638	5296.310000	437.140625	78.697540
-246.560638	5296.310000	435.873047	31.429060
-246.560638	5296.310000	434.605469	45.147156
-246.560638	5296.310000	433.337891	220.664352
-246.560638	5296.310000	432.070313	102.957184
-246.560638	5296.310000	430.801758	125.932327
-246.560638	5296.310000	429.533203	186.364426
-246.560638	5296.310000	428.264648	103.782570
-246.560638	5296.310000	426.996094	325.774353
-246.560638	5296.310000	425.726563	102.571259
-246.560638	5296.310000	424.457031	85.505402
-246.560638	5296.310000	423.186523	131.614700
-246.560638	5296.310000	421.916992	142.541458
-246.560638	5296.310000	420.646484	240.003403
-246.560638	5296.310000	419.375977	82.323723
-246.560638	5296.310000	418.104492	296.608215
-246.560638	5296.310000	416.833008	164.590179
-246.560638	5296.310000	415.561523	278.089905
-246.560638	5296.310000	414.290039	206.785095
-246.560638	5296.310000	413.017578	242.954880
-246.560638	5296.310000	411.746094	183.227982
-246.560638	5296.310000	410.472656	130.457321
-246.560638	5296.310000	409.200195	245.805878
-246.560638	5296.310000	407.926758	-129.390259
-246.560638	5296.310000	406.653320	37.157539
-246.560638	5296.310000	405.379883	184.868561
-246.560638	5296.310000	404.105469	334.752319
-246.560638	5296.310000	402.831055	71.485054
-246.560638	5296.310000	401.556641	216.461349
-246.560638	5296.310000	400.282227	-32.882313
-246.560638	5296.310000	399.006836	74.526329
-246.560638	5296.310000	397.731445	-2.394365
-246.560638	5296.310000	396.456055	181.640411
-246.560638	5296.310000	395.179688	81.181831
-246.560638	5296.310000	393.903320	45.870857
-246.560638	5296.310000	392.626953	5.782982
-246.560638	5296.310000	391.350586	98.310974
-246.560638	5296.310000	390.073242	97.524704
-246.560638	5296.310000	388.795898	73.314087
-246.560638	5296.310000	387.518555	-25.508522
-246.560638	5296.310000	386.240234	152.424866
-246.560638	5296.310000	384.961914	353.378174
-246.560638	5296.310000	383.683594	216.853821
-246.560638	5296.310000	382.405273	308.078705
-246.560638	5296.310000	381.125977	66.654213
-246.560638	5296.310000	379.846680	138.908676
-246.560638	5296.310000	378.567383	11.104756
-246.560638	5296.310000	377.287109	278.087128
-246.560638	5296.310000	376.006836	272.999603
-246.560638	5296.310000	374.726563	170.173752
-246.560638	5296.310000	373.446289	71.816048
-246.560638	5296.310000	372.165039	196.100021
-246.560638	5296.310000	370.883789	-9.430078
-246.560638	5296.310000	369.602539	-17.900238
-246.560638	5296.310000	368.320313	-73.009995
-246.560638	5296.310000	367.039063	-23.986162
-246.560638	5296.310000	365.755859	-65.679817
-246.560638	5296.310000	364.473633	17.556847
-246.560638	5296.310000	363.190430	-22.357330
-246.560638	5296.310000	361.907227	57.949284
-246.560638	5296.310000	360.624023	126.344711
-246.560638	5296.310000	359.340820	-18.669399
-246.560638	5296.310000	358.056641	90.775742
-246.560638	5296.310000	356.772461	202.168167
-246.560638	5296.310000	355.487305	30.802582
-246.560638	5296.310000	354.202148	81.322403
-246.560638	5296.310000	352.916992	75.949104
-246.560638	5296.310000	351.631836	-96.316704
-246.560638	5296.310000	350.346680	-51.493156
-246.560638	5296.310000	349.060547	-136.547562
-246.560638	5296.310000	347.774414	83.172661
-246.560638	5296.310000	346.487305	8.892574
-246.560638	5296.310000	345.200195	54.385044
-246.560638	5296.310000	343.913086	-43.780170
-246.560638	5296.310000	342.625977	-135.400681
-246.560638	5296.310000	341.338867	1.172956
-246.560638	5296.310000	340.050781	88.747185
-246.560638	5296.310000	338.762695	-230.386047
-246.560638	5296.310000	337.473633	-162.204636
-246.560638	5296.310000	336.184570	-209.889084
-246.560638	5296.310000	334.895508	-13.560523
-246.560638	5296.310000	333.606445	53.036610
-246.560638	5296.310000	332.317383	45.307091
-246.560638	5296.310000	331.027344	-68.995628
-246.560638	5296.310000	329.736328	35.114548
-246.560638	5296.310000	328.446289	0.392166
-246.560638	5296.310000	327.155273	163.194427
-246.560638	5296.310000	325.864258	72.009033
-246.560638	5296.310000	324.573242	-220.053619
-246.560638	5296.310000	323.281250	-43.022514
-246.560638	5296.310000	321.989258	101.077942
-246.560638	5296.310000	320.697266	9.770432
-246.560638	5296.310000	319.405273	32.862568
-246.560638	5296.310000	318.112305	190.946411
-246.560638	5296.310000	316.819336	127.519852
-246.560638	5296.310000	315.526367	-177.978470
-246.560638	5296.310000	314.232422	-192.187439
-246.560638	5296.310000	312.938477	54.832954
-246.560638	5296.310000	311.644531	-16.061531
-246.560638	5296.310000	310.349609	-25.706671
-246.560638	5296.310000	309.054688	-45.328682
-246.560638	5296.310000	307.759766	49.041569
-246.560638	5296.310000	306.464844	-8.958120
-246.560638	5296.310000	305.168945	65.299622
-246.560638	5296.310000	303.873047	88.179588
-246.560638	5296.310000	302.577148	174.391891
-246.560638	5296.310000	301.281250	245.899261
-246.560638	5296.310000	299.984375	332.473572
