#X		#Y		#Wave		#Intensity
30693.705638	-3116.687500	1999.980469	-123.460503
30693.705638	-3116.687500	1999.016602	-117.062027
30693.705638	-3116.687500	1998.052734	79.772316
30693.705638	-3116.687500	1997.087891	-368.876984
30693.705638	-3116.687500	1996.123047	43.775928
30693.705638	-3116.687500	1995.158203	83.631218
30693.705638	-3116.687500	1994.193359	194.268082
30693.705638	-3116.687500	1993.228516	-62.625553
30693.705638	-3116.687500	1992.262695	-100.018578
30693.705638	-3116.687500	1991.297852	-168.065277
30693.705638	-3116.687500	1990.332031	-24.131121
30693.705638	-3116.687500	1989.366211	-168.167419
30693.705638	-3116.687500	1988.399414	-8.682224
30693.705638	-3116.687500	1987.433594	-144.453796
30693.705638	-3116.687500	1986.466797	-191.923416
30693.705638	-3116.687500	1985.500977	34.294910
30693.705638	-3116.687500	1984.534180	10.011411
30693.705638	-3116.687500	1983.567383	355.770691
30693.705638	-3116.687500	1982.599609	92.795044
30693.705638	-3116.687500	1981.632813	224.556259
30693.705638	-3116.687500	1980.665039	56.721878
30693.705638	-3116.687500	1979.697266	145.192825
30693.705638	-3116.687500	1978.729492	124.373100
30693.705638	-3116.687500	1977.761719	-47.626755
30693.705638	-3116.687500	1976.792969	83.516129
30693.705638	-3116.687500	1975.825195	181.975250
30693.705638	-3116.687500	1974.856445	40.536785
30693.705638	-3116.687500	1973.887695	342.737091
30693.705638	-3116.687500	1972.918945	303.947906
30693.705638	-3116.687500	1971.949219	-23.821350
30693.705638	-3116.687500	1970.980469	190.548859
30693.705638	-3116.687500	1970.010742	101.196892
30693.705638	-3116.687500	1969.041016	511.835052
30693.705638	-3116.687500	1968.071289	123.481262
30693.705638	-3116.687500	1967.101563	392.768250
30693.705638	-3116.687500	1966.130859	284.702332
30693.705638	-3116.687500	1965.161133	230.524353
30693.705638	-3116.687500	1964.190430	193.291275
30693.705638	-3116.687500	1963.219727	89.293304
30693.705638	-3116.687500	1962.249023	292.748962
30693.705638	-3116.687500	1961.277344	33.162975
30693.705638	-3116.687500	1960.306641	307.382721
30693.705638	-3116.687500	1959.334961	44.928993
30693.705638	-3116.687500	1958.363281	79.974350
30693.705638	-3116.687500	1957.391602	117.251007
30693.705638	-3116.687500	1956.419922	117.426361
30693.705638	-3116.687500	1955.447266	530.427368
30693.705638	-3116.687500	1954.474609	326.146698
30693.705638	-3116.687500	1953.501953	97.199966
30693.705638	-3116.687500	1952.529297	325.194550
30693.705638	-3116.687500	1951.556641	162.358551
30693.705638	-3116.687500	1950.583984	100.154167
30693.705638	-3116.687500	1949.610352	435.669464
30693.705638	-3116.687500	1948.636719	149.778549
30693.705638	-3116.687500	1947.663086	11.175068
30693.705638	-3116.687500	1946.689453	-112.744545
30693.705638	-3116.687500	1945.715820	-212.162308
30693.705638	-3116.687500	1944.741211	-230.654251
30693.705638	-3116.687500	1943.767578	172.696930
30693.705638	-3116.687500	1942.792969	259.473511
30693.705638	-3116.687500	1941.818359	179.429031
30693.705638	-3116.687500	1940.842773	221.954834
30693.705638	-3116.687500	1939.868164	136.969482
30693.705638	-3116.687500	1938.892578	191.678772
30693.705638	-3116.687500	1937.916992	116.487679
30693.705638	-3116.687500	1936.941406	90.307358
30693.705638	-3116.687500	1935.965820	-190.595825
30693.705638	-3116.687500	1934.990234	-74.684303
30693.705638	-3116.687500	1934.013672	-198.748337
30693.705638	-3116.687500	1933.037109	73.809204
30693.705638	-3116.687500	1932.060547	99.089630
30693.705638	-3116.687500	1931.083984	195.344406
30693.705638	-3116.687500	1930.107422	259.789581
30693.705638	-3116.687500	1929.129883	-5.977482
30693.705638	-3116.687500	1928.153320	-5.037366
30693.705638	-3116.687500	1927.175781	108.426262
30693.705638	-3116.687500	1926.198242	-159.481430
30693.705638	-3116.687500	1925.219727	-97.261436
30693.705638	-3116.687500	1924.242188	214.256409
30693.705638	-3116.687500	1923.263672	230.073563
30693.705638	-3116.687500	1922.285156	397.405487
30693.705638	-3116.687500	1921.306641	364.460510
30693.705638	-3116.687500	1920.328125	104.489677
30693.705638	-3116.687500	1919.349609	-130.898666
30693.705638	-3116.687500	1918.370117	236.824799
30693.705638	-3116.687500	1917.391602	-83.771576
30693.705638	-3116.687500	1916.412109	37.502701
30693.705638	-3116.687500	1915.431641	153.937119
30693.705638	-3116.687500	1914.452148	111.854897
30693.705638	-3116.687500	1913.472656	-130.109879
30693.705638	-3116.687500	1912.492188	-323.125641
30693.705638	-3116.687500	1911.511719	-45.469898
30693.705638	-3116.687500	1910.531250	414.979797
30693.705638	-3116.687500	1909.550781	32.152344
30693.705638	-3116.687500	1908.569336	24.789192
30693.705638	-3116.687500	1907.588867	-291.864929
30693.705638	-3116.687500	1906.607422	-55.418156
30693.705638	-3116.687500	1905.625977	-86.834946
30693.705638	-3116.687500	1904.644531	-123.013252
30693.705638	-3116.687500	1903.662109	208.491272
30693.705638	-3116.687500	1902.680664	-0.338005
30693.705638	-3116.687500	1901.698242	-11.890212
30693.705638	-3116.687500	1900.715820	-30.640652
30693.705638	-3116.687500	1899.733398	-258.478149
30693.705638	-3116.687500	1898.750000	29.447760
30693.705638	-3116.687500	1897.767578	-134.906479
30693.705638	-3116.687500	1896.784180	-214.013626
30693.705638	-3116.687500	1895.800781	-86.392982
30693.705638	-3116.687500	1894.817383	-102.107750
30693.705638	-3116.687500	1893.833984	20.769007
30693.705638	-3116.687500	1892.850586	-38.503857
30693.705638	-3116.687500	1891.866211	101.504120
30693.705638	-3116.687500	1890.881836	52.139862
30693.705638	-3116.687500	1889.897461	-193.777496
30693.705638	-3116.687500	1888.913086	152.778137
30693.705638	-3116.687500	1887.927734	-401.114380
30693.705638	-3116.687500	1886.943359	-161.245743
30693.705638	-3116.687500	1885.958008	-229.488205
30693.705638	-3116.687500	1884.972656	-212.728241
30693.705638	-3116.687500	1883.987305	-132.840576
30693.705638	-3116.687500	1883.001953	-125.645325
30693.705638	-3116.687500	1882.015625	5.268457
30693.705638	-3116.687500	1881.029297	-14.068379
30693.705638	-3116.687500	1880.042969	49.068787
30693.705638	-3116.687500	1879.056641	-173.648224
30693.705638	-3116.687500	1878.070313	-23.158962
30693.705638	-3116.687500	1877.083984	-156.030014
30693.705638	-3116.687500	1876.096680	118.038261
30693.705638	-3116.687500	1875.109375	2.271244
30693.705638	-3116.687500	1874.122070	72.996727
30693.705638	-3116.687500	1873.134766	-57.119640
30693.705638	-3116.687500	1872.146484	137.116302
30693.705638	-3116.687500	1871.159180	-135.591293
30693.705638	-3116.687500	1870.170898	-159.000198
30693.705638	-3116.687500	1869.182617	-146.078979
30693.705638	-3116.687500	1868.194336	258.585815
30693.705638	-3116.687500	1867.205078	111.969612
30693.705638	-3116.687500	1866.216797	23.449734
30693.705638	-3116.687500	1865.227539	-69.825066
30693.705638	-3116.687500	1864.238281	124.486755
30693.705638	-3116.687500	1863.249023	-53.250324
30693.705638	-3116.687500	1862.259766	240.068375
30693.705638	-3116.687500	1861.269531	108.322578
30693.705638	-3116.687500	1860.279297	-148.894440
30693.705638	-3116.687500	1859.290039	-27.028597
30693.705638	-3116.687500	1858.298828	-30.671412
30693.705638	-3116.687500	1857.308594	47.735588
30693.705638	-3116.687500	1856.318359	340.835754
30693.705638	-3116.687500	1855.327148	-162.120102
30693.705638	-3116.687500	1854.335938	-83.693268
30693.705638	-3116.687500	1853.344727	199.650452
30693.705638	-3116.687500	1852.353516	367.179626
30693.705638	-3116.687500	1851.362305	245.420578
30693.705638	-3116.687500	1850.370117	376.733459
30693.705638	-3116.687500	1849.377930	298.381104
30693.705638	-3116.687500	1848.385742	97.196533
30693.705638	-3116.687500	1847.393555	-62.981464
30693.705638	-3116.687500	1846.401367	251.246506
30693.705638	-3116.687500	1845.408203	-31.710730
30693.705638	-3116.687500	1844.415039	198.112869
30693.705638	-3116.687500	1843.421875	93.311996
30693.705638	-3116.687500	1842.428711	36.643429
30693.705638	-3116.687500	1841.435547	275.862030
30693.705638	-3116.687500	1840.441406	149.372574
30693.705638	-3116.687500	1839.448242	176.790192
30693.705638	-3116.687500	1838.454102	156.077744
30693.705638	-3116.687500	1837.459961	94.465210
30693.705638	-3116.687500	1836.464844	90.519318
30693.705638	-3116.687500	1835.470703	249.918045
30693.705638	-3116.687500	1834.475586	140.133743
30693.705638	-3116.687500	1833.480469	92.787186
30693.705638	-3116.687500	1832.485352	338.396973
30693.705638	-3116.687500	1831.490234	-59.654999
30693.705638	-3116.687500	1830.495117	48.927250
30693.705638	-3116.687500	1829.499023	-25.010551
30693.705638	-3116.687500	1828.502930	136.189850
30693.705638	-3116.687500	1827.506836	292.457275
30693.705638	-3116.687500	1826.510742	254.283127
30693.705638	-3116.687500	1825.513672	335.971832
30693.705638	-3116.687500	1824.517578	441.523346
30693.705638	-3116.687500	1823.520508	216.100067
30693.705638	-3116.687500	1822.523438	-124.385262
30693.705638	-3116.687500	1821.526367	184.652603
30693.705638	-3116.687500	1820.529297	153.226608
30693.705638	-3116.687500	1819.531250	260.676025
30693.705638	-3116.687500	1818.533203	305.710876
30693.705638	-3116.687500	1817.535156	276.391113
30693.705638	-3116.687500	1816.537109	388.245392
30693.705638	-3116.687500	1815.539063	183.956818
30693.705638	-3116.687500	1814.540039	75.383759
30693.705638	-3116.687500	1813.541992	-85.912971
30693.705638	-3116.687500	1812.542969	-65.419189
30693.705638	-3116.687500	1811.543945	253.962753
30693.705638	-3116.687500	1810.543945	458.311615
30693.705638	-3116.687500	1809.544922	232.044754
30693.705638	-3116.687500	1808.544922	110.939156
30693.705638	-3116.687500	1807.544922	307.661438
30693.705638	-3116.687500	1806.544922	332.115631
30693.705638	-3116.687500	1805.544922	337.315155
30693.705638	-3116.687500	1804.544922	320.880920
30693.705638	-3116.687500	1803.543945	390.308960
30693.705638	-3116.687500	1802.542969	294.801880
30693.705638	-3116.687500	1801.541992	258.881042
30693.705638	-3116.687500	1800.541016	170.315903
30693.705638	-3116.687500	1799.539063	356.115845
30693.705638	-3116.687500	1798.538086	16.724825
30693.705638	-3116.687500	1797.536133	357.266998
30693.705638	-3116.687500	1796.534180	399.365875
30693.705638	-3116.687500	1795.532227	379.293091
30693.705638	-3116.687500	1794.529297	461.606232
30693.705638	-3116.687500	1793.527344	407.846680
30693.705638	-3116.687500	1792.524414	523.184143
30693.705638	-3116.687500	1791.521484	35.403233
30693.705638	-3116.687500	1790.518555	90.885117
30693.705638	-3116.687500	1789.514648	515.421265
30693.705638	-3116.687500	1788.511719	-13.052717
30693.705638	-3116.687500	1787.507813	406.252686
30693.705638	-3116.687500	1786.503906	251.458969
30693.705638	-3116.687500	1785.500000	258.418213
30693.705638	-3116.687500	1784.496094	155.732544
30693.705638	-3116.687500	1783.491211	248.030594
30693.705638	-3116.687500	1782.486328	233.065506
30693.705638	-3116.687500	1781.481445	-84.142494
30693.705638	-3116.687500	1780.476563	64.702240
30693.705638	-3116.687500	1779.471680	234.711823
30693.705638	-3116.687500	1778.465820	-13.905695
30693.705638	-3116.687500	1777.460938	307.812836
30693.705638	-3116.687500	1776.455078	184.860764
30693.705638	-3116.687500	1775.449219	427.654816
30693.705638	-3116.687500	1774.442383	159.465088
30693.705638	-3116.687500	1773.436523	197.560898
30693.705638	-3116.687500	1772.429688	33.625809
30693.705638	-3116.687500	1771.422852	106.971962
30693.705638	-3116.687500	1770.416016	-90.485428
30693.705638	-3116.687500	1769.409180	196.067337
30693.705638	-3116.687500	1768.402344	252.170563
30693.705638	-3116.687500	1767.394531	227.407806
30693.705638	-3116.687500	1766.386719	330.539581
30693.705638	-3116.687500	1765.378906	281.678558
30693.705638	-3116.687500	1764.371094	197.080063
30693.705638	-3116.687500	1763.362305	195.286087
30693.705638	-3116.687500	1762.354492	401.863403
30693.705638	-3116.687500	1761.345703	392.536987
30693.705638	-3116.687500	1760.336914	221.924164
30693.705638	-3116.687500	1759.328125	126.979652
30693.705638	-3116.687500	1758.318359	-65.223999
30693.705638	-3116.687500	1757.308594	353.327698
30693.705638	-3116.687500	1756.299805	125.261314
30693.705638	-3116.687500	1755.290039	15.424893
30693.705638	-3116.687500	1754.279297	-125.332649
30693.705638	-3116.687500	1753.269531	107.588493
30693.705638	-3116.687500	1752.258789	200.658356
30693.705638	-3116.687500	1751.249023	16.792034
30693.705638	-3116.687500	1750.238281	114.181564
30693.705638	-3116.687500	1749.226563	-17.987959
30693.705638	-3116.687500	1748.215820	232.615799
30693.705638	-3116.687500	1747.204102	166.252243
30693.705638	-3116.687500	1746.193359	149.342422
30693.705638	-3116.687500	1745.181641	30.656828
30693.705638	-3116.687500	1744.168945	228.306519
30693.705638	-3116.687500	1743.157227	135.235275
30693.705638	-3116.687500	1742.144531	504.749695
30693.705638	-3116.687500	1741.132813	50.112705
30693.705638	-3116.687500	1740.120117	324.710327
30693.705638	-3116.687500	1739.106445	138.874557
30693.705638	-3116.687500	1738.093750	16.621521
30693.705638	-3116.687500	1737.080078	210.283493
30693.705638	-3116.687500	1736.067383	-93.909676
30693.705638	-3116.687500	1735.053711	-2.073633
30693.705638	-3116.687500	1734.040039	-235.780472
30693.705638	-3116.687500	1733.025391	-278.685883
30693.705638	-3116.687500	1732.011719	-90.824081
30693.705638	-3116.687500	1730.997070	-16.321726
30693.705638	-3116.687500	1729.982422	13.208922
30693.705638	-3116.687500	1728.967773	66.089066
30693.705638	-3116.687500	1727.952148	-76.685341
30693.705638	-3116.687500	1726.937500	60.570263
30693.705638	-3116.687500	1725.921875	308.206116
30693.705638	-3116.687500	1724.906250	-162.203384
30693.705638	-3116.687500	1723.890625	-253.801743
30693.705638	-3116.687500	1722.875000	129.638748
30693.705638	-3116.687500	1721.858398	-312.800873
30693.705638	-3116.687500	1720.841797	-68.607903
30693.705638	-3116.687500	1719.825195	-170.296753
30693.705638	-3116.687500	1718.808594	-112.284134
30693.705638	-3116.687500	1717.791992	102.991753
30693.705638	-3116.687500	1716.774414	113.570305
30693.705638	-3116.687500	1715.756836	123.971092
30693.705638	-3116.687500	1714.739258	-185.247864
30693.705638	-3116.687500	1713.721680	-292.559784
30693.705638	-3116.687500	1712.704102	-268.519836
30693.705638	-3116.687500	1711.685547	-73.306122
30693.705638	-3116.687500	1710.667969	-312.521118
30693.705638	-3116.687500	1709.649414	-94.245155
30693.705638	-3116.687500	1708.630859	81.552460
30693.705638	-3116.687500	1707.611328	-141.658371
30693.705638	-3116.687500	1706.592773	108.800468
30693.705638	-3116.687500	1705.573242	-358.511810
30693.705638	-3116.687500	1704.553711	109.580772
30693.705638	-3116.687500	1703.534180	38.243954
30693.705638	-3116.687500	1702.513672	-2.771696
30693.705638	-3116.687500	1701.494141	17.004576
30693.705638	-3116.687500	1700.473633	-10.244324
30693.705638	-3116.687500	1699.453125	-0.161896
30693.705638	-3116.687500	1698.432617	-11.306847
30693.705638	-3116.687500	1697.412109	-55.372620
30693.705638	-3116.687500	1696.390625	-195.552673
30693.705638	-3116.687500	1695.369141	-260.935150
30693.705638	-3116.687500	1694.347656	-237.520096
30693.705638	-3116.687500	1693.326172	-127.700035
30693.705638	-3116.687500	1692.304688	-139.685883
30693.705638	-3116.687500	1691.282227	-212.618881
30693.705638	-3116.687500	1690.260742	69.736664
30693.705638	-3116.687500	1689.238281	153.141098
30693.705638	-3116.687500	1688.214844	112.498482
30693.705638	-3116.687500	1687.192383	-210.980087
30693.705638	-3116.687500	1686.168945	-251.792694
30693.705638	-3116.687500	1685.146484	155.768295
30693.705638	-3116.687500	1684.123047	189.382141
30693.705638	-3116.687500	1683.099609	-61.994598
30693.705638	-3116.687500	1682.075195	22.749920
30693.705638	-3116.687500	1681.051758	268.404388
30693.705638	-3116.687500	1680.027344	-22.878096
30693.705638	-3116.687500	1679.002930	-83.185410
30693.705638	-3116.687500	1677.978516	262.299194
30693.705638	-3116.687500	1676.953125	257.696899
30693.705638	-3116.687500	1675.928711	192.381516
30693.705638	-3116.687500	1674.903320	311.143860
30693.705638	-3116.687500	1673.877930	154.720917
30693.705638	-3116.687500	1672.852539	70.499786
30693.705638	-3116.687500	1671.826172	184.241959
30693.705638	-3116.687500	1670.800781	88.208885
30693.705638	-3116.687500	1669.774414	283.235535
30693.705638	-3116.687500	1668.748047	-76.108566
30693.705638	-3116.687500	1667.721680	249.071579
30693.705638	-3116.687500	1666.694336	613.595703
30693.705638	-3116.687500	1665.667969	179.667587
30693.705638	-3116.687500	1664.640625	381.025757
30693.705638	-3116.687500	1663.613281	414.732330
30693.705638	-3116.687500	1662.585938	504.170715
30693.705638	-3116.687500	1661.557617	235.365448
30693.705638	-3116.687500	1660.530273	394.409637
30693.705638	-3116.687500	1659.501953	332.476837
30693.705638	-3116.687500	1658.473633	330.928375
30693.705638	-3116.687500	1657.444336	324.651917
30693.705638	-3116.687500	1656.416016	427.526245
30693.705638	-3116.687500	1655.386719	133.093613
30693.705638	-3116.687500	1654.358398	221.918549
30693.705638	-3116.687500	1653.328125	66.824577
30693.705638	-3116.687500	1652.298828	480.503113
30693.705638	-3116.687500	1651.269531	671.160034
30693.705638	-3116.687500	1650.239258	437.030518
30693.705638	-3116.687500	1649.208984	588.075928
30693.705638	-3116.687500	1648.178711	555.775513
30693.705638	-3116.687500	1647.148438	651.002991
30693.705638	-3116.687500	1646.117188	514.270630
30693.705638	-3116.687500	1645.086914	741.542053
30693.705638	-3116.687500	1644.055664	1070.661621
30693.705638	-3116.687500	1643.024414	910.663330
30693.705638	-3116.687500	1641.992188	794.707764
30693.705638	-3116.687500	1640.960938	1035.526367
30693.705638	-3116.687500	1639.928711	979.766113
30693.705638	-3116.687500	1638.896484	1220.402344
30693.705638	-3116.687500	1637.864258	1046.525513
30693.705638	-3116.687500	1636.832031	879.648254
30693.705638	-3116.687500	1635.798828	1096.970093
30693.705638	-3116.687500	1634.766602	1006.486389
30693.705638	-3116.687500	1633.733398	1244.509888
30693.705638	-3116.687500	1632.699219	994.406494
30693.705638	-3116.687500	1631.666016	1156.028809
30693.705638	-3116.687500	1630.632813	1241.299194
30693.705638	-3116.687500	1629.598633	924.319946
30693.705638	-3116.687500	1628.564453	1273.064331
30693.705638	-3116.687500	1627.530273	1316.681641
30693.705638	-3116.687500	1626.495117	1297.904907
30693.705638	-3116.687500	1625.460938	1648.726929
30693.705638	-3116.687500	1624.425781	1546.796875
30693.705638	-3116.687500	1623.390625	1553.443604
30693.705638	-3116.687500	1622.355469	1818.654053
30693.705638	-3116.687500	1621.319336	1936.061768
30693.705638	-3116.687500	1620.284180	1857.337280
30693.705638	-3116.687500	1619.248047	1880.168823
30693.705638	-3116.687500	1618.211914	2313.598145
30693.705638	-3116.687500	1617.174805	1988.162964
30693.705638	-3116.687500	1616.138672	2267.002441
30693.705638	-3116.687500	1615.101563	2508.875244
30693.705638	-3116.687500	1614.065430	2437.267578
30693.705638	-3116.687500	1613.027344	2575.396729
30693.705638	-3116.687500	1611.990234	2494.669678
30693.705638	-3116.687500	1610.953125	2397.906006
30693.705638	-3116.687500	1609.915039	2225.219971
30693.705638	-3116.687500	1608.876953	2266.797607
30693.705638	-3116.687500	1607.838867	2255.471191
30693.705638	-3116.687500	1606.800781	2218.897461
30693.705638	-3116.687500	1605.761719	2412.505859
30693.705638	-3116.687500	1604.723633	2256.412109
30693.705638	-3116.687500	1603.684570	2240.753418
30693.705638	-3116.687500	1602.644531	2422.944824
30693.705638	-3116.687500	1601.605469	2598.261719
30693.705638	-3116.687500	1600.566406	2888.537598
30693.705638	-3116.687500	1599.526367	2898.346924
30693.705638	-3116.687500	1598.486328	2678.430664
30693.705638	-3116.687500	1597.446289	2821.709717
30693.705638	-3116.687500	1596.405273	2498.683838
30693.705638	-3116.687500	1595.365234	2979.740723
30693.705638	-3116.687500	1594.324219	2725.880615
30693.705638	-3116.687500	1593.283203	2573.234863
30693.705638	-3116.687500	1592.242188	2221.050049
30693.705638	-3116.687500	1591.200195	2286.764160
30693.705638	-3116.687500	1590.159180	2244.730713
30693.705638	-3116.687500	1589.117188	2429.915283
30693.705638	-3116.687500	1588.075195	2507.335938
30693.705638	-3116.687500	1587.032227	2263.784424
30693.705638	-3116.687500	1585.990234	2238.261719
30693.705638	-3116.687500	1584.947266	2299.952881
30693.705638	-3116.687500	1583.904297	2522.162842
30693.705638	-3116.687500	1582.861328	2233.437988
30693.705638	-3116.687500	1581.818359	2229.019287
30693.705638	-3116.687500	1580.775391	2046.072510
30693.705638	-3116.687500	1579.731445	1858.730591
30693.705638	-3116.687500	1578.687500	1694.484375
30693.705638	-3116.687500	1577.643555	1571.638794
30693.705638	-3116.687500	1576.598633	1517.619751
30693.705638	-3116.687500	1575.554688	1198.339478
30693.705638	-3116.687500	1574.509766	1812.710449
30693.705638	-3116.687500	1573.464844	1749.939575
30693.705638	-3116.687500	1572.419922	1524.968506
30693.705638	-3116.687500	1571.374023	1096.727539
30693.705638	-3116.687500	1570.329102	1322.596313
30693.705638	-3116.687500	1569.283203	1050.271606
30693.705638	-3116.687500	1568.237305	1520.846436
30693.705638	-3116.687500	1567.191406	1285.445801
30693.705638	-3116.687500	1566.144531	1351.787842
30693.705638	-3116.687500	1565.098633	1486.783813
30693.705638	-3116.687500	1564.051758	1039.639771
30693.705638	-3116.687500	1563.004883	964.930176
30693.705638	-3116.687500	1561.957031	1082.119873
30693.705638	-3116.687500	1560.910156	882.253662
30693.705638	-3116.687500	1559.862305	926.735901
30693.705638	-3116.687500	1558.814453	934.870911
30693.705638	-3116.687500	1557.766602	886.160461
30693.705638	-3116.687500	1556.718750	933.403137
30693.705638	-3116.687500	1555.669922	916.958984
30693.705638	-3116.687500	1554.621094	722.918823
30693.705638	-3116.687500	1553.573242	695.489807
30693.705638	-3116.687500	1552.523438	1135.289185
30693.705638	-3116.687500	1551.474609	1276.702881
30693.705638	-3116.687500	1550.424805	1024.235718
30693.705638	-3116.687500	1549.375000	1307.141724
30693.705638	-3116.687500	1548.325195	1353.363647
30693.705638	-3116.687500	1547.275391	1597.772217
30693.705638	-3116.687500	1546.225586	1341.632446
30693.705638	-3116.687500	1545.174805	1549.913330
30693.705638	-3116.687500	1544.124023	1526.280151
30693.705638	-3116.687500	1543.073242	1630.208496
30693.705638	-3116.687500	1542.022461	1395.487061
30693.705638	-3116.687500	1540.970703	1456.589478
30693.705638	-3116.687500	1539.919922	1154.197388
30693.705638	-3116.687500	1538.868164	1054.370483
30693.705638	-3116.687500	1537.815430	1072.920898
30693.705638	-3116.687500	1536.763672	721.402405
30693.705638	-3116.687500	1535.710938	415.641052
30693.705638	-3116.687500	1534.659180	623.390869
30693.705638	-3116.687500	1533.606445	640.556763
30693.705638	-3116.687500	1532.552734	435.472534
30693.705638	-3116.687500	1531.500000	385.002197
30693.705638	-3116.687500	1530.446289	39.794064
30693.705638	-3116.687500	1529.393555	332.381256
30693.705638	-3116.687500	1528.338867	-89.376259
30693.705638	-3116.687500	1527.285156	-215.963379
30693.705638	-3116.687500	1526.231445	-108.773827
30693.705638	-3116.687500	1525.176758	132.319031
30693.705638	-3116.687500	1524.122070	-70.649040
30693.705638	-3116.687500	1523.067383	-58.069702
30693.705638	-3116.687500	1522.012695	-242.362030
30693.705638	-3116.687500	1520.957031	-174.963150
30693.705638	-3116.687500	1519.901367	-53.025665
30693.705638	-3116.687500	1518.845703	-84.865227
30693.705638	-3116.687500	1517.790039	157.417374
30693.705638	-3116.687500	1516.734375	259.516205
30693.705638	-3116.687500	1515.677734	280.340790
30693.705638	-3116.687500	1514.621094	-71.883781
30693.705638	-3116.687500	1513.564453	270.616577
30693.705638	-3116.687500	1512.507813	280.795624
30693.705638	-3116.687500	1511.450195	716.235474
30693.705638	-3116.687500	1510.393555	333.465210
30693.705638	-3116.687500	1509.335938	529.625305
30693.705638	-3116.687500	1508.278320	671.704956
30693.705638	-3116.687500	1507.219727	1103.119141
30693.705638	-3116.687500	1506.162109	963.164673
30693.705638	-3116.687500	1505.103516	1331.583130
30693.705638	-3116.687500	1504.044922	1228.222168
30693.705638	-3116.687500	1502.986328	1050.646729
30693.705638	-3116.687500	1501.926758	1473.688721
30693.705638	-3116.687500	1500.868164	1283.060547
30693.705638	-3116.687500	1499.808594	1363.454956
30693.705638	-3116.687500	1498.749023	1254.589844
30693.705638	-3116.687500	1497.688477	1321.897095
30693.705638	-3116.687500	1496.628906	1044.458740
30693.705638	-3116.687500	1495.568359	920.650757
30693.705638	-3116.687500	1494.507813	891.781616
30693.705638	-3116.687500	1493.447266	978.074158
30693.705638	-3116.687500	1492.386719	1082.592773
30693.705638	-3116.687500	1491.325195	826.933167
30693.705638	-3116.687500	1490.263672	805.808899
30693.705638	-3116.687500	1489.202148	971.802124
30693.705638	-3116.687500	1488.140625	647.246704
30693.705638	-3116.687500	1487.079102	590.875122
30693.705638	-3116.687500	1486.016602	194.998749
30693.705638	-3116.687500	1484.954102	600.398315
30693.705638	-3116.687500	1483.891602	297.372528
30693.705638	-3116.687500	1482.829102	275.796356
30693.705638	-3116.687500	1481.765625	119.561890
30693.705638	-3116.687500	1480.702148	-126.287338
30693.705638	-3116.687500	1479.638672	23.744574
30693.705638	-3116.687500	1478.575195	140.192551
30693.705638	-3116.687500	1477.511719	-113.728828
30693.705638	-3116.687500	1476.447266	36.838425
30693.705638	-3116.687500	1475.382813	-119.987244
30693.705638	-3116.687500	1474.318359	118.620010
30693.705638	-3116.687500	1473.253906	119.433281
30693.705638	-3116.687500	1472.189453	28.510780
30693.705638	-3116.687500	1471.124023	-8.392079
30693.705638	-3116.687500	1470.058594	74.099754
30693.705638	-3116.687500	1468.993164	129.720215
30693.705638	-3116.687500	1467.927734	-11.685487
30693.705638	-3116.687500	1466.861328	-65.247879
30693.705638	-3116.687500	1465.794922	-7.073345
30693.705638	-3116.687500	1464.728516	183.960617
30693.705638	-3116.687500	1463.662109	-202.129013
30693.705638	-3116.687500	1462.594727	87.106148
30693.705638	-3116.687500	1461.528320	72.435753
30693.705638	-3116.687500	1460.460938	277.341248
30693.705638	-3116.687500	1459.393555	276.292938
30693.705638	-3116.687500	1458.326172	166.961990
30693.705638	-3116.687500	1457.257813	298.909058
30693.705638	-3116.687500	1456.189453	316.441589
30693.705638	-3116.687500	1455.121094	398.285431
30693.705638	-3116.687500	1454.052734	150.138992
30693.705638	-3116.687500	1452.984375	218.341309
30693.705638	-3116.687500	1451.915039	-28.702339
30693.705638	-3116.687500	1450.845703	-45.029350
30693.705638	-3116.687500	1449.776367	53.980484
30693.705638	-3116.687500	1448.707031	175.709076
30693.705638	-3116.687500	1447.636719	118.749954
30693.705638	-3116.687500	1446.567383	284.845154
30693.705638	-3116.687500	1445.497070	265.698364
30693.705638	-3116.687500	1444.425781	-37.315716
30693.705638	-3116.687500	1443.355469	83.361961
30693.705638	-3116.687500	1442.285156	256.368195
30693.705638	-3116.687500	1441.213867	255.225342
30693.705638	-3116.687500	1440.142578	452.233521
30693.705638	-3116.687500	1439.070313	835.558044
30693.705638	-3116.687500	1437.999023	622.125000
30693.705638	-3116.687500	1436.926758	474.041626
30693.705638	-3116.687500	1435.854492	591.859131
30693.705638	-3116.687500	1434.782227	388.007965
30693.705638	-3116.687500	1433.709961	175.844345
30693.705638	-3116.687500	1432.636719	485.038513
30693.705638	-3116.687500	1431.563477	327.383057
30693.705638	-3116.687500	1430.490234	118.810295
30693.705638	-3116.687500	1429.416992	232.000610
30693.705638	-3116.687500	1428.343750	334.515198
30693.705638	-3116.687500	1427.269531	-159.031525
30693.705638	-3116.687500	1426.195313	18.745745
30693.705638	-3116.687500	1425.121094	-181.031311
30693.705638	-3116.687500	1424.046875	63.305882
30693.705638	-3116.687500	1422.971680	124.190735
30693.705638	-3116.687500	1421.896484	-0.677814
30693.705638	-3116.687500	1420.821289	94.558189
30693.705638	-3116.687500	1419.746094	301.727386
30693.705638	-3116.687500	1418.669922	544.023621
30693.705638	-3116.687500	1417.594727	534.998413
30693.705638	-3116.687500	1416.518555	522.398376
30693.705638	-3116.687500	1415.442383	421.019043
30693.705638	-3116.687500	1414.365234	641.400452
30693.705638	-3116.687500	1413.289063	630.209839
30693.705638	-3116.687500	1412.211914	507.283203
30693.705638	-3116.687500	1411.134766	707.840881
30693.705638	-3116.687500	1410.057617	1034.791504
30693.705638	-3116.687500	1408.979492	1401.769653
30693.705638	-3116.687500	1407.902344	1470.087402
30693.705638	-3116.687500	1406.824219	1652.689575
30693.705638	-3116.687500	1405.746094	1812.125854
30693.705638	-3116.687500	1404.666992	1435.808716
30693.705638	-3116.687500	1403.588867	1570.986450
30693.705638	-3116.687500	1402.509766	1360.071777
30693.705638	-3116.687500	1401.430664	1076.977051
30693.705638	-3116.687500	1400.351563	895.464050
30693.705638	-3116.687500	1399.271484	1047.149414
30693.705638	-3116.687500	1398.192383	709.888855
30693.705638	-3116.687500	1397.112305	412.311676
30693.705638	-3116.687500	1396.031250	400.357910
30693.705638	-3116.687500	1394.951172	345.988098
30693.705638	-3116.687500	1393.871094	339.586426
30693.705638	-3116.687500	1392.790039	265.564972
30693.705638	-3116.687500	1391.708984	288.424377
30693.705638	-3116.687500	1390.626953	438.674652
30693.705638	-3116.687500	1389.545898	667.745483
30693.705638	-3116.687500	1388.463867	585.113953
30693.705638	-3116.687500	1387.381836	464.584747
30693.705638	-3116.687500	1386.299805	363.359100
30693.705638	-3116.687500	1385.217773	306.683228
30693.705638	-3116.687500	1384.134766	362.706543
30693.705638	-3116.687500	1383.051758	346.391327
30693.705638	-3116.687500	1381.968750	358.940796
30693.705638	-3116.687500	1380.885742	314.267090
30693.705638	-3116.687500	1379.802734	386.069489
30693.705638	-3116.687500	1378.718750	249.794846
30693.705638	-3116.687500	1377.634766	189.236832
30693.705638	-3116.687500	1376.550781	578.127869
30693.705638	-3116.687500	1375.465820	156.954269
30693.705638	-3116.687500	1374.381836	465.724091
30693.705638	-3116.687500	1373.296875	392.644257
30693.705638	-3116.687500	1372.211914	506.972748
30693.705638	-3116.687500	1371.126953	1063.350098
30693.705638	-3116.687500	1370.041016	874.386108
30693.705638	-3116.687500	1368.955078	1069.676270
30693.705638	-3116.687500	1367.869141	1054.081787
30693.705638	-3116.687500	1366.783203	997.757019
30693.705638	-3116.687500	1365.697266	1299.383545
30693.705638	-3116.687500	1364.610352	1167.430908
30693.705638	-3116.687500	1363.523438	1277.992065
30693.705638	-3116.687500	1362.436523	1370.717407
30693.705638	-3116.687500	1361.349609	1267.563965
30693.705638	-3116.687500	1360.261719	1387.667480
30693.705638	-3116.687500	1359.174805	1039.033447
30693.705638	-3116.687500	1358.086914	1207.422241
30693.705638	-3116.687500	1356.998047	982.482361
30693.705638	-3116.687500	1355.910156	1196.388550
30693.705638	-3116.687500	1354.821289	1123.708130
30693.705638	-3116.687500	1353.732422	913.293274
30693.705638	-3116.687500	1352.643555	1286.215942
30693.705638	-3116.687500	1351.554688	1196.718384
30693.705638	-3116.687500	1350.464844	746.796509
30693.705638	-3116.687500	1349.375000	1109.391846
30693.705638	-3116.687500	1348.285156	1068.752197
30693.705638	-3116.687500	1347.195313	999.445862
30693.705638	-3116.687500	1346.105469	1296.177856
30693.705638	-3116.687500	1345.014648	1223.055908
30693.705638	-3116.687500	1343.923828	1334.118652
30693.705638	-3116.687500	1342.833008	1452.877808
30693.705638	-3116.687500	1341.741211	1197.386353
30693.705638	-3116.687500	1340.650391	1050.928467
30693.705638	-3116.687500	1339.558594	980.167358
30693.705638	-3116.687500	1338.466797	912.428406
30693.705638	-3116.687500	1337.374023	743.882202
30693.705638	-3116.687500	1336.282227	610.792847
30693.705638	-3116.687500	1335.189453	673.964600
30693.705638	-3116.687500	1334.096680	551.785156
30693.705638	-3116.687500	1333.003906	607.455627
30693.705638	-3116.687500	1331.910156	382.781616
30693.705638	-3116.687500	1330.817383	341.966156
30693.705638	-3116.687500	1329.723633	168.128387
30693.705638	-3116.687500	1328.629883	390.237915
30693.705638	-3116.687500	1327.535156	414.668884
30693.705638	-3116.687500	1326.441406	704.678650
30693.705638	-3116.687500	1325.346680	268.306671
30693.705638	-3116.687500	1324.251953	524.332886
30693.705638	-3116.687500	1323.156250	513.418701
30693.705638	-3116.687500	1322.061523	680.086914
30693.705638	-3116.687500	1320.965820	683.045044
30693.705638	-3116.687500	1319.870117	678.219666
30693.705638	-3116.687500	1318.774414	627.358582
30693.705638	-3116.687500	1317.678711	995.823242
30693.705638	-3116.687500	1316.582031	815.825806
30693.705638	-3116.687500	1315.485352	643.888428
30693.705638	-3116.687500	1314.388672	970.796143
30693.705638	-3116.687500	1313.291016	936.478149
30693.705638	-3116.687500	1312.194336	768.283142
30693.705638	-3116.687500	1311.096680	833.645569
30693.705638	-3116.687500	1309.999023	781.448853
30693.705638	-3116.687500	1308.901367	865.060059
30693.705638	-3116.687500	1307.802734	805.324585
30693.705638	-3116.687500	1306.705078	895.010864
30693.705638	-3116.687500	1305.606445	644.938293
30693.705638	-3116.687500	1304.506836	681.425293
30693.705638	-3116.687500	1303.408203	692.884949
30693.705638	-3116.687500	1302.308594	780.708984
30693.705638	-3116.687500	1301.208984	818.833435
30693.705638	-3116.687500	1300.109375	568.822754
30693.705638	-3116.687500	1299.009766	568.003296
30693.705638	-3116.687500	1297.909180	665.036743
30693.705638	-3116.687500	1296.808594	741.802490
30693.705638	-3116.687500	1295.708008	769.466675
30693.705638	-3116.687500	1294.607422	629.933777
30693.705638	-3116.687500	1293.506836	722.194153
30693.705638	-3116.687500	1292.405273	463.639832
30693.705638	-3116.687500	1291.303711	561.949341
30693.705638	-3116.687500	1290.202148	373.370789
30693.705638	-3116.687500	1289.099609	257.376373
30693.705638	-3116.687500	1287.998047	455.916840
30693.705638	-3116.687500	1286.895508	483.975311
30693.705638	-3116.687500	1285.792969	452.744080
30693.705638	-3116.687500	1284.689453	354.593689
30693.705638	-3116.687500	1283.586914	164.223160
30693.705638	-3116.687500	1282.483398	191.830307
30693.705638	-3116.687500	1281.379883	271.289215
30693.705638	-3116.687500	1280.276367	422.770081
30693.705638	-3116.687500	1279.171875	223.475311
30693.705638	-3116.687500	1278.067383	220.003723
30693.705638	-3116.687500	1276.962891	246.535309
30693.705638	-3116.687500	1275.858398	-29.277277
30693.705638	-3116.687500	1274.753906	126.980347
30693.705638	-3116.687500	1273.648438	129.488922
30693.705638	-3116.687500	1272.542969	-104.996178
30693.705638	-3116.687500	1271.437500	-83.943329
30693.705638	-3116.687500	1270.331055	-165.160187
30693.705638	-3116.687500	1269.225586	-171.096802
30693.705638	-3116.687500	1268.119141	-160.532913
30693.705638	-3116.687500	1267.012695	4.515688
30693.705638	-3116.687500	1265.906250	-208.819717
30693.705638	-3116.687500	1264.798828	-107.821602
30693.705638	-3116.687500	1263.691406	-428.915710
30693.705638	-3116.687500	1262.583984	-244.025375
30693.705638	-3116.687500	1261.476563	-85.780998
30693.705638	-3116.687500	1260.368164	-261.824615
30693.705638	-3116.687500	1259.260742	-42.081635
30693.705638	-3116.687500	1258.152344	-107.627686
30693.705638	-3116.687500	1257.043945	-160.917343
30693.705638	-3116.687500	1255.934570	-72.438560
30693.705638	-3116.687500	1254.825195	-68.022705
30693.705638	-3116.687500	1253.716797	-205.823135
30693.705638	-3116.687500	1252.606445	-371.029785
30693.705638	-3116.687500	1251.497070	-217.812805
30693.705638	-3116.687500	1250.387695	-163.900467
30693.705638	-3116.687500	1249.277344	13.892805
30693.705638	-3116.687500	1248.166992	18.697065
30693.705638	-3116.687500	1247.055664	147.863754
30693.705638	-3116.687500	1245.945313	57.641220
30693.705638	-3116.687500	1244.833984	-87.319191
30693.705638	-3116.687500	1243.722656	82.224297
30693.705638	-3116.687500	1242.611328	100.749001
30693.705638	-3116.687500	1241.499023	114.803299
30693.705638	-3116.687500	1240.387695	158.818054
30693.705638	-3116.687500	1239.275391	385.191956
30693.705638	-3116.687500	1238.162109	-61.363533
30693.705638	-3116.687500	1237.049805	-58.116177
30693.705638	-3116.687500	1235.936523	-64.466606
30693.705638	-3116.687500	1234.823242	90.673454
30693.705638	-3116.687500	1233.709961	58.252163
30693.705638	-3116.687500	1232.596680	-17.831152
30693.705638	-3116.687500	1231.482422	46.527893
30693.705638	-3116.687500	1230.369141	-192.089661
30693.705638	-3116.687500	1229.253906	-120.064171
30693.705638	-3116.687500	1228.139648	292.062805
30693.705638	-3116.687500	1227.025391	83.112442
30693.705638	-3116.687500	1225.910156	270.155518
30693.705638	-3116.687500	1224.794922	273.527374
30693.705638	-3116.687500	1223.679688	32.184151
30693.705638	-3116.687500	1222.563477	371.694427
30693.705638	-3116.687500	1221.447266	305.122406
30693.705638	-3116.687500	1220.331055	175.307098
30693.705638	-3116.687500	1219.214844	183.064056
30693.705638	-3116.687500	1218.098633	11.648314
30693.705638	-3116.687500	1216.981445	-185.202011
30693.705638	-3116.687500	1215.864258	94.052467
30693.705638	-3116.687500	1214.747070	182.955917
30693.705638	-3116.687500	1213.629883	61.710720
30693.705638	-3116.687500	1212.511719	373.230408
30693.705638	-3116.687500	1211.393555	360.443542
30693.705638	-3116.687500	1210.275391	458.779144
30693.705638	-3116.687500	1209.157227	511.898621
30693.705638	-3116.687500	1208.038086	563.148743
30693.705638	-3116.687500	1206.918945	615.489868
30693.705638	-3116.687500	1205.799805	649.723999
30693.705638	-3116.687500	1204.680664	813.546021
30693.705638	-3116.687500	1203.560547	1034.556152
30693.705638	-3116.687500	1202.441406	800.905334
30693.705638	-3116.687500	1201.321289	799.783203
30693.705638	-3116.687500	1200.200195	867.630188
30693.705638	-3116.687500	1199.080078	883.818787
30693.705638	-3116.687500	1197.958984	811.987000
30693.705638	-3116.687500	1196.837891	945.256409
30693.705638	-3116.687500	1195.716797	992.538818
30693.705638	-3116.687500	1194.594727	873.113342
30693.705638	-3116.687500	1193.473633	706.617432
30693.705638	-3116.687500	1192.351563	576.668457
30693.705638	-3116.687500	1191.229492	696.830139
30693.705638	-3116.687500	1190.106445	495.369690
30693.705638	-3116.687500	1188.984375	420.280884
30693.705638	-3116.687500	1187.861328	614.065063
30693.705638	-3116.687500	1186.738281	260.050171
30693.705638	-3116.687500	1185.614258	244.961929
30693.705638	-3116.687500	1184.491211	226.527573
30693.705638	-3116.687500	1183.367188	232.983963
30693.705638	-3116.687500	1182.243164	336.702484
30693.705638	-3116.687500	1181.119141	431.682953
30693.705638	-3116.687500	1179.994141	272.636902
30693.705638	-3116.687500	1178.869141	263.555328
30693.705638	-3116.687500	1177.744141	412.469269
30693.705638	-3116.687500	1176.619141	495.593445
30693.705638	-3116.687500	1175.493164	394.945679
30693.705638	-3116.687500	1174.368164	601.597290
30693.705638	-3116.687500	1173.242188	745.349548
30693.705638	-3116.687500	1172.115234	687.526306
30693.705638	-3116.687500	1170.989258	489.289459
30693.705638	-3116.687500	1169.862305	604.230652
30693.705638	-3116.687500	1168.735352	787.853821
30693.705638	-3116.687500	1167.608398	817.268250
30693.705638	-3116.687500	1166.481445	856.811890
30693.705638	-3116.687500	1165.353516	578.337646
30693.705638	-3116.687500	1164.225586	579.635010
30693.705638	-3116.687500	1163.097656	506.055695
30693.705638	-3116.687500	1161.968750	572.991272
30693.705638	-3116.687500	1160.840820	872.982849
30693.705638	-3116.687500	1159.711914	610.676819
30693.705638	-3116.687500	1158.583008	714.843933
30693.705638	-3116.687500	1157.453125	613.076538
30693.705638	-3116.687500	1156.324219	710.674561
30693.705638	-3116.687500	1155.194336	574.660461
30693.705638	-3116.687500	1154.064453	589.114136
30693.705638	-3116.687500	1152.933594	697.477112
30693.705638	-3116.687500	1151.803711	558.290649
30693.705638	-3116.687500	1150.672852	523.873108
30693.705638	-3116.687500	1149.541992	328.521667
30693.705638	-3116.687500	1148.411133	304.974976
30693.705638	-3116.687500	1147.279297	130.758041
30693.705638	-3116.687500	1146.147461	94.412613
30693.705638	-3116.687500	1145.015625	276.032776
30693.705638	-3116.687500	1143.883789	149.112976
30693.705638	-3116.687500	1142.750977	310.074432
30693.705638	-3116.687500	1141.619141	482.921478
30693.705638	-3116.687500	1140.486328	218.406158
30693.705638	-3116.687500	1139.352539	486.112518
30693.705638	-3116.687500	1138.219727	279.057404
30693.705638	-3116.687500	1137.085938	241.703125
30693.705638	-3116.687500	1135.952148	410.805481
30693.705638	-3116.687500	1134.818359	599.099304
30693.705638	-3116.687500	1133.683594	489.256866
30693.705638	-3116.687500	1132.549805	701.182983
30693.705638	-3116.687500	1131.415039	903.639709
30693.705638	-3116.687500	1130.279297	1030.623291
30693.705638	-3116.687500	1129.144531	1053.064697
30693.705638	-3116.687500	1128.008789	1254.996704
30693.705638	-3116.687500	1126.873047	1062.617432
30693.705638	-3116.687500	1125.737305	973.818359
30693.705638	-3116.687500	1124.601563	858.215088
30693.705638	-3116.687500	1123.464844	804.115906
30693.705638	-3116.687500	1122.328125	717.115906
30693.705638	-3116.687500	1121.191406	817.110352
30693.705638	-3116.687500	1120.054688	891.215027
30693.705638	-3116.687500	1118.916992	702.003418
30693.705638	-3116.687500	1117.779297	822.657104
30693.705638	-3116.687500	1116.641602	756.170959
30693.705638	-3116.687500	1115.503906	529.153015
30693.705638	-3116.687500	1114.365234	634.619751
30693.705638	-3116.687500	1113.226563	470.993408
30693.705638	-3116.687500	1112.087891	496.147827
30693.705638	-3116.687500	1110.949219	454.872772
30693.705638	-3116.687500	1109.809570	385.615967
30693.705638	-3116.687500	1108.669922	393.597015
30693.705638	-3116.687500	1107.530273	419.250305
30693.705638	-3116.687500	1106.390625	425.777802
30693.705638	-3116.687500	1105.250000	516.995972
30693.705638	-3116.687500	1104.109375	664.267456
30693.705638	-3116.687500	1102.968750	613.911438
30693.705638	-3116.687500	1101.828125	682.163208
30693.705638	-3116.687500	1100.686523	684.215698
30693.705638	-3116.687500	1099.544922	750.891113
30693.705638	-3116.687500	1098.403320	937.129700
30693.705638	-3116.687500	1097.261719	950.488953
30693.705638	-3116.687500	1096.120117	796.161194
30693.705638	-3116.687500	1094.977539	956.727722
30693.705638	-3116.687500	1093.834961	567.628357
30693.705638	-3116.687500	1092.691406	722.514587
30693.705638	-3116.687500	1091.548828	599.664124
30693.705638	-3116.687500	1090.405273	814.861450
30693.705638	-3116.687500	1089.261719	687.072144
30693.705638	-3116.687500	1088.118164	670.377136
30693.705638	-3116.687500	1086.973633	652.775269
30693.705638	-3116.687500	1085.829102	632.636658
30693.705638	-3116.687500	1084.684570	621.839172
30693.705638	-3116.687500	1083.540039	854.190430
30693.705638	-3116.687500	1082.395508	386.056671
30693.705638	-3116.687500	1081.250000	569.475342
30693.705638	-3116.687500	1080.104492	376.815002
30693.705638	-3116.687500	1078.958984	496.746643
30693.705638	-3116.687500	1077.812500	496.772278
30693.705638	-3116.687500	1076.666016	512.997192
30693.705638	-3116.687500	1075.519531	478.207520
30693.705638	-3116.687500	1074.373047	485.767548
30693.705638	-3116.687500	1073.226563	528.422424
30693.705638	-3116.687500	1072.079102	456.859467
30693.705638	-3116.687500	1070.931641	573.465454
30693.705638	-3116.687500	1069.784180	596.765015
30693.705638	-3116.687500	1068.635742	636.999695
30693.705638	-3116.687500	1067.487305	676.218933
30693.705638	-3116.687500	1066.338867	785.466614
30693.705638	-3116.687500	1065.190430	763.704773
30693.705638	-3116.687500	1064.041992	851.084839
30693.705638	-3116.687500	1062.892578	806.031799
30693.705638	-3116.687500	1061.743164	962.999634
30693.705638	-3116.687500	1060.593750	893.516663
30693.705638	-3116.687500	1059.443359	798.257690
30693.705638	-3116.687500	1058.292969	856.120300
30693.705638	-3116.687500	1057.142578	627.519531
30693.705638	-3116.687500	1055.992188	501.685089
30693.705638	-3116.687500	1054.841797	586.865967
30693.705638	-3116.687500	1053.690430	614.326599
30693.705638	-3116.687500	1052.539063	519.179565
30693.705638	-3116.687500	1051.387695	371.996307
30693.705638	-3116.687500	1050.235352	274.431610
30693.705638	-3116.687500	1049.083984	357.282623
30693.705638	-3116.687500	1047.931641	120.150688
30693.705638	-3116.687500	1046.778320	297.159760
30693.705638	-3116.687500	1045.625977	161.343689
30693.705638	-3116.687500	1044.472656	312.037872
30693.705638	-3116.687500	1043.319336	-87.882805
30693.705638	-3116.687500	1042.166016	236.738998
30693.705638	-3116.687500	1041.012695	-89.347588
30693.705638	-3116.687500	1039.858398	151.117157
30693.705638	-3116.687500	1038.704102	391.674377
30693.705638	-3116.687500	1037.549805	105.918900
30693.705638	-3116.687500	1036.394531	119.614212
30693.705638	-3116.687500	1035.239258	58.678551
30693.705638	-3116.687500	1034.083984	202.103226
30693.705638	-3116.687500	1032.928711	169.445953
30693.705638	-3116.687500	1031.773438	284.785889
30693.705638	-3116.687500	1030.617188	81.191010
30693.705638	-3116.687500	1029.460938	340.097321
30693.705638	-3116.687500	1028.304688	170.066467
30693.705638	-3116.687500	1027.147461	315.189667
30693.705638	-3116.687500	1025.991211	211.164505
30693.705638	-3116.687500	1024.833984	67.639145
30693.705638	-3116.687500	1023.675781	369.137970
30693.705638	-3116.687500	1022.518555	142.606827
30693.705638	-3116.687500	1021.360352	322.517883
30693.705638	-3116.687500	1020.202148	154.182480
30693.705638	-3116.687500	1019.043945	196.371155
30693.705638	-3116.687500	1017.884766	34.317429
30693.705638	-3116.687500	1016.726563	-28.341112
30693.705638	-3116.687500	1015.567383	123.097778
30693.705638	-3116.687500	1014.407227	227.875229
30693.705638	-3116.687500	1013.248047	317.675934
30693.705638	-3116.687500	1012.087891	376.301514
30693.705638	-3116.687500	1010.927734	312.717834
30693.705638	-3116.687500	1009.767578	-24.335800
30693.705638	-3116.687500	1008.606445	-18.647703
30693.705638	-3116.687500	1007.446289	52.127224
30693.705638	-3116.687500	1006.285156	1.128184
30693.705638	-3116.687500	1005.123047	-23.602930
30693.705638	-3116.687500	1003.961914	108.687325
30693.705638	-3116.687500	1002.799805	290.960236
30693.705638	-3116.687500	1001.637695	72.060768
30693.705638	-3116.687500	1000.475586	70.655869
30693.705638	-3116.687500	999.312500	350.374969
30693.705638	-3116.687500	998.149414	174.494705
30693.705638	-3116.687500	996.986328	-44.483997
30693.705638	-3116.687500	995.823242	-26.759468
30693.705638	-3116.687500	994.659180	203.938232
30693.705638	-3116.687500	993.496094	303.952728
30693.705638	-3116.687500	992.332031	-112.210266
30693.705638	-3116.687500	991.166992	-17.432713
30693.705638	-3116.687500	990.002930	93.861488
30693.705638	-3116.687500	988.837891	-6.677510
30693.705638	-3116.687500	987.672852	-47.528805
30693.705638	-3116.687500	986.506836	168.825409
30693.705638	-3116.687500	985.341797	-48.618744
30693.705638	-3116.687500	984.175781	42.159836
30693.705638	-3116.687500	983.009766	16.240646
30693.705638	-3116.687500	981.843750	2.481901
30693.705638	-3116.687500	980.676758	64.836853
30693.705638	-3116.687500	979.509766	-124.732178
30693.705638	-3116.687500	978.342773	247.961121
30693.705638	-3116.687500	977.175781	114.595200
30693.705638	-3116.687500	976.007813	21.767796
30693.705638	-3116.687500	974.839844	-232.863480
30693.705638	-3116.687500	973.671875	-41.317429
30693.705638	-3116.687500	972.503906	14.879288
30693.705638	-3116.687500	971.334961	-43.021389
30693.705638	-3116.687500	970.166016	-43.383327
30693.705638	-3116.687500	968.997070	95.393745
30693.705638	-3116.687500	967.828125	-84.718819
30693.705638	-3116.687500	966.658203	-410.567780
30693.705638	-3116.687500	965.488281	-207.002365
30693.705638	-3116.687500	964.318359	-122.134293
30693.705638	-3116.687500	963.148438	127.379829
30693.705638	-3116.687500	961.977539	59.067211
30693.705638	-3116.687500	960.806641	-417.608948
30693.705638	-3116.687500	959.635742	-208.035736
30693.705638	-3116.687500	958.463867	92.570808
30693.705638	-3116.687500	957.292969	-110.690620
30693.705638	-3116.687500	956.121094	-246.268219
30693.705638	-3116.687500	954.948242	-216.559891
30693.705638	-3116.687500	953.776367	-145.747299
30693.705638	-3116.687500	952.603516	21.371723
30693.705638	-3116.687500	951.430664	-42.850044
30693.705638	-3116.687500	950.257813	89.714806
30693.705638	-3116.687500	949.084961	-116.773125
30693.705638	-3116.687500	947.911133	136.924179
30693.705638	-3116.687500	946.737305	155.614502
30693.705638	-3116.687500	945.563477	140.595108
30693.705638	-3116.687500	944.388672	1.129379
30693.705638	-3116.687500	943.213867	51.706684
30693.705638	-3116.687500	942.039063	108.120354
30693.705638	-3116.687500	940.864258	185.089493
30693.705638	-3116.687500	939.688477	489.281738
30693.705638	-3116.687500	938.513672	178.753464
30693.705638	-3116.687500	937.337891	258.058319
30693.705638	-3116.687500	936.161133	-31.244787
30693.705638	-3116.687500	934.985352	66.867226
30693.705638	-3116.687500	933.808594	257.424591
30693.705638	-3116.687500	932.631836	189.488739
30693.705638	-3116.687500	931.454102	395.727264
30693.705638	-3116.687500	930.277344	488.573303
30693.705638	-3116.687500	929.099609	396.779724
30693.705638	-3116.687500	927.921875	283.987976
30693.705638	-3116.687500	926.743164	287.264069
30693.705638	-3116.687500	925.565430	250.972626
30693.705638	-3116.687500	924.386719	188.309891
30693.705638	-3116.687500	923.208008	9.770742
30693.705638	-3116.687500	922.028320	-10.635480
30693.705638	-3116.687500	920.849609	-94.237625
30693.705638	-3116.687500	919.669922	-90.173416
30693.705638	-3116.687500	919.474609	207.322433
30693.705638	-3116.687500	918.309570	247.414917
30693.705638	-3116.687500	917.143555	50.613129
30693.705638	-3116.687500	915.977539	11.798519
30693.705638	-3116.687500	914.810547	-116.441483
30693.705638	-3116.687500	913.644531	52.626579
30693.705638	-3116.687500	912.477539	-122.888908
30693.705638	-3116.687500	911.310547	-303.578278
30693.705638	-3116.687500	910.143555	-168.715927
30693.705638	-3116.687500	908.975586	89.641953
30693.705638	-3116.687500	907.807617	-209.198532
30693.705638	-3116.687500	906.639648	-292.465942
30693.705638	-3116.687500	905.471680	115.515388
30693.705638	-3116.687500	904.303711	-233.012390
30693.705638	-3116.687500	903.134766	4.147443
30693.705638	-3116.687500	901.965820	-21.297749
30693.705638	-3116.687500	900.796875	13.646044
30693.705638	-3116.687500	899.626953	-106.230690
30693.705638	-3116.687500	898.457031	-302.133759
30693.705638	-3116.687500	897.287109	60.757969
30693.705638	-3116.687500	896.117188	-35.423859
30693.705638	-3116.687500	894.947266	41.491467
30693.705638	-3116.687500	893.776367	-88.703636
30693.705638	-3116.687500	892.605469	389.209717
30693.705638	-3116.687500	891.434570	46.768417
30693.705638	-3116.687500	890.262695	165.565643
30693.705638	-3116.687500	889.091797	187.404510
30693.705638	-3116.687500	887.919922	49.504841
30693.705638	-3116.687500	886.748047	191.817825
30693.705638	-3116.687500	885.575195	-87.362206
30693.705638	-3116.687500	884.403320	-54.984158
30693.705638	-3116.687500	883.230469	63.738148
30693.705638	-3116.687500	882.057617	-162.900391
30693.705638	-3116.687500	880.883789	70.896484
30693.705638	-3116.687500	879.710938	-113.799736
30693.705638	-3116.687500	878.537109	-81.408913
30693.705638	-3116.687500	877.362305	-341.784943
30693.705638	-3116.687500	876.188477	-40.171795
30693.705638	-3116.687500	875.013672	54.911026
30693.705638	-3116.687500	873.839844	212.650162
30693.705638	-3116.687500	872.664063	-136.351105
30693.705638	-3116.687500	871.489258	84.043327
30693.705638	-3116.687500	870.313477	11.954557
30693.705638	-3116.687500	869.138672	140.877762
30693.705638	-3116.687500	867.962891	269.753357
30693.705638	-3116.687500	866.786133	-39.749184
30693.705638	-3116.687500	865.610352	146.500992
30693.705638	-3116.687500	864.433594	-35.053745
30693.705638	-3116.687500	863.256836	41.609776
30693.705638	-3116.687500	862.079102	186.025940
30693.705638	-3116.687500	860.902344	-65.802345
30693.705638	-3116.687500	859.724609	-17.845844
30693.705638	-3116.687500	858.546875	-128.837280
30693.705638	-3116.687500	857.368164	208.249863
30693.705638	-3116.687500	856.190430	-116.302223
30693.705638	-3116.687500	855.011719	30.561018
30693.705638	-3116.687500	853.833008	-82.963463
30693.705638	-3116.687500	852.654297	196.563187
30693.705638	-3116.687500	851.474609	98.655716
30693.705638	-3116.687500	850.294922	68.427063
30693.705638	-3116.687500	849.115234	-169.887054
30693.705638	-3116.687500	847.935547	13.183425
30693.705638	-3116.687500	846.754883	-50.829216
30693.705638	-3116.687500	845.575195	-234.405487
30693.705638	-3116.687500	844.393555	-248.975693
30693.705638	-3116.687500	843.212891	-211.584457
30693.705638	-3116.687500	842.032227	-67.705421
30693.705638	-3116.687500	840.850586	-58.956787
30693.705638	-3116.687500	839.668945	-63.208038
30693.705638	-3116.687500	838.486328	150.622787
30693.705638	-3116.687500	837.304688	-196.336349
30693.705638	-3116.687500	836.122070	-76.022430
30693.705638	-3116.687500	834.939453	166.178467
30693.705638	-3116.687500	833.756836	91.774445
30693.705638	-3116.687500	832.573242	-83.762032
30693.705638	-3116.687500	831.389648	-28.457615
30693.705638	-3116.687500	830.206055	332.727020
30693.705638	-3116.687500	829.022461	457.872162
30693.705638	-3116.687500	827.838867	75.012314
30693.705638	-3116.687500	826.654297	472.172546
30693.705638	-3116.687500	825.469727	242.265701
30693.705638	-3116.687500	824.284180	178.187943
30693.705638	-3116.687500	823.099609	173.666214
30693.705638	-3116.687500	821.914063	182.071671
30693.705638	-3116.687500	820.728516	-213.324402
30693.705638	-3116.687500	819.542969	43.532921
30693.705638	-3116.687500	818.356445	-28.314798
30693.705638	-3116.687500	817.169922	155.923325
30693.705638	-3116.687500	815.983398	143.510193
30693.705638	-3116.687500	814.796875	-26.648699
30693.705638	-3116.687500	813.609375	-5.465975
30693.705638	-3116.687500	812.422852	-25.676277
30693.705638	-3116.687500	811.235352	-43.321926
30693.705638	-3116.687500	810.046875	44.935116
30693.705638	-3116.687500	808.859375	-220.743164
30693.705638	-3116.687500	807.670898	-37.000782
30693.705638	-3116.687500	806.482422	-28.935345
30693.705638	-3116.687500	805.293945	-235.158936
30693.705638	-3116.687500	804.104492	-20.656662
30693.705638	-3116.687500	802.915039	-7.539710
30693.705638	-3116.687500	801.725586	-177.627182
30693.705638	-3116.687500	800.536133	13.409251
30693.705638	-3116.687500	799.345703	16.087307
30693.705638	-3116.687500	798.155273	-43.149387
30693.705638	-3116.687500	796.964844	0.703312
30693.705638	-3116.687500	795.774414	-40.545773
30693.705638	-3116.687500	794.583008	31.551607
30693.705638	-3116.687500	793.392578	-2.040972
30693.705638	-3116.687500	792.200195	-15.053582
30693.705638	-3116.687500	791.008789	41.417198
30693.705638	-3116.687500	789.816406	195.650269
30693.705638	-3116.687500	788.625000	-46.604366
30693.705638	-3116.687500	787.432617	-26.320873
30693.705638	-3116.687500	786.239258	-21.525461
30693.705638	-3116.687500	785.046875	1.223528
30693.705638	-3116.687500	783.853516	95.926323
30693.705638	-3116.687500	782.660156	-82.006134
30693.705638	-3116.687500	781.465820	-115.954094
30693.705638	-3116.687500	780.272461	22.259806
30693.705638	-3116.687500	779.078125	90.988029
30693.705638	-3116.687500	777.883789	-7.352432
30693.705638	-3116.687500	776.688477	-103.134148
30693.705638	-3116.687500	775.494141	-98.778038
30693.705638	-3116.687500	774.298828	103.219429
30693.705638	-3116.687500	773.103516	7.314509
30693.705638	-3116.687500	771.907227	-127.098915
30693.705638	-3116.687500	770.711914	197.777390
30693.705638	-3116.687500	769.515625	309.540375
30693.705638	-3116.687500	768.318359	280.139496
30693.705638	-3116.687500	767.122070	296.847900
30693.705638	-3116.687500	765.924805	341.693939
30693.705638	-3116.687500	764.727539	196.785614
30693.705638	-3116.687500	763.530273	110.819633
30693.705638	-3116.687500	762.333008	45.327702
30693.705638	-3116.687500	761.134766	74.583244
30693.705638	-3116.687500	759.936523	55.106617
30693.705638	-3116.687500	758.738281	186.647308
30693.705638	-3116.687500	757.540039	64.630600
30693.705638	-3116.687500	756.340820	-167.452438
30693.705638	-3116.687500	755.141602	-225.495270
30693.705638	-3116.687500	753.942383	-101.929016
30693.705638	-3116.687500	752.742188	-160.086960
30693.705638	-3116.687500	751.541992	-0.911197
30693.705638	-3116.687500	750.341797	-77.092575
30693.705638	-3116.687500	749.141602	199.458344
30693.705638	-3116.687500	747.941406	115.468735
30693.705638	-3116.687500	746.740234	325.298492
30693.705638	-3116.687500	745.539063	368.918915
30693.705638	-3116.687500	744.337891	215.786682
30693.705638	-3116.687500	743.135742	152.027222
30693.705638	-3116.687500	741.933594	98.438225
30693.705638	-3116.687500	740.731445	-19.008930
30693.705638	-3116.687500	739.529297	118.725525
30693.705638	-3116.687500	738.326172	87.935783
30693.705638	-3116.687500	737.124023	39.233818
30693.705638	-3116.687500	735.919922	171.563156
30693.705638	-3116.687500	734.716797	158.423187
30693.705638	-3116.687500	733.513672	-63.826435
30693.705638	-3116.687500	732.309570	282.331940
30693.705638	-3116.687500	731.105469	268.968109
30693.705638	-3116.687500	729.900391	16.050797
30693.705638	-3116.687500	728.696289	160.534698
30693.705638	-3116.687500	727.491211	223.393524
30693.705638	-3116.687500	726.286133	258.147583
30693.705638	-3116.687500	725.080078	173.171707
30693.705638	-3116.687500	723.874023	136.516617
30693.705638	-3116.687500	722.668945	186.321213
30693.705638	-3116.687500	721.461914	337.793793
30693.705638	-3116.687500	720.255859	143.218246
30693.705638	-3116.687500	719.048828	93.599869
30693.705638	-3116.687500	717.841797	-182.344223
30693.705638	-3116.687500	716.634766	-99.837570
30693.705638	-3116.687500	715.427734	-73.345894
30693.705638	-3116.687500	714.219727	118.216248
30693.705638	-3116.687500	713.011719	187.693237
30693.705638	-3116.687500	711.803711	58.968063
30693.705638	-3116.687500	710.594727	-115.480392
30693.705638	-3116.687500	709.385742	136.574341
30693.705638	-3116.687500	708.176758	-45.573570
30693.705638	-3116.687500	706.967773	56.499947
30693.705638	-3116.687500	705.758789	-87.638428
30693.705638	-3116.687500	704.548828	-64.373260
30693.705638	-3116.687500	703.338867	-147.701324
30693.705638	-3116.687500	702.127930	88.408768
30693.705638	-3116.687500	700.917969	235.627625
30693.705638	-3116.687500	699.707031	136.874115
30693.705638	-3116.687500	698.496094	347.229919
30693.705638	-3116.687500	697.285156	35.554810
30693.705638	-3116.687500	696.073242	68.407372
30693.705638	-3116.687500	694.861328	45.468124
30693.705638	-3116.687500	693.649414	-78.798584
30693.705638	-3116.687500	692.436523	60.167686
30693.705638	-3116.687500	691.224609	234.441895
30693.705638	-3116.687500	690.011719	117.605362
30693.705638	-3116.687500	688.798828	119.645592
30693.705638	-3116.687500	687.584961	-166.700317
30693.705638	-3116.687500	686.372070	-109.099098
30693.705638	-3116.687500	685.158203	148.127899
30693.705638	-3116.687500	683.943359	122.101311
30693.705638	-3116.687500	682.729492	48.011215
30693.705638	-3116.687500	681.514648	-142.327255
30693.705638	-3116.687500	680.299805	-201.297134
30693.705638	-3116.687500	679.084961	-113.830315
30693.705638	-3116.687500	677.869141	-170.378357
30693.705638	-3116.687500	676.653320	101.203201
30693.705638	-3116.687500	675.437500	-311.337708
30693.705638	-3116.687500	674.221680	33.218468
30693.705638	-3116.687500	673.004883	211.071457
30693.705638	-3116.687500	671.789063	86.132072
30693.705638	-3116.687500	670.571289	-0.988760
30693.705638	-3116.687500	669.354492	-4.925518
30693.705638	-3116.687500	668.136719	94.429184
30693.705638	-3116.687500	666.919922	65.168221
30693.705638	-3116.687500	665.701172	103.893341
30693.705638	-3116.687500	664.483398	268.505768
30693.705638	-3116.687500	663.264648	148.407623
30693.705638	-3116.687500	662.045898	38.384739
30693.705638	-3116.687500	660.827148	-23.806904
30693.705638	-3116.687500	659.608398	9.623829
30693.705638	-3116.687500	658.388672	37.961391
30693.705638	-3116.687500	657.168945	181.971375
30693.705638	-3116.687500	655.949219	220.235977
30693.705638	-3116.687500	654.728516	-10.639080
30693.705638	-3116.687500	653.507813	284.019165
30693.705638	-3116.687500	652.287109	-77.563461
30693.705638	-3116.687500	651.066406	-57.027328
30693.705638	-3116.687500	649.844727	66.478340
30693.705638	-3116.687500	648.623047	127.094482
30693.705638	-3116.687500	647.401367	-81.087784
30693.705638	-3116.687500	646.179688	72.376205
30693.705638	-3116.687500	644.957031	2.305955
30693.705638	-3116.687500	643.734375	37.654083
30693.705638	-3116.687500	642.511719	-110.231384
30693.705638	-3116.687500	641.289063	30.444855
30693.705638	-3116.687500	640.065430	-27.129547
30693.705638	-3116.687500	638.841797	55.735477
30693.705638	-3116.687500	637.618164	-47.000664
30693.705638	-3116.687500	636.393555	286.466858
30693.705638	-3116.687500	635.168945	241.323334
30693.705638	-3116.687500	633.944336	10.757681
30693.705638	-3116.687500	632.719727	163.568237
30693.705638	-3116.687500	631.494141	-59.406986
30693.705638	-3116.687500	630.269531	-66.942207
30693.705638	-3116.687500	629.042969	163.349731
30693.705638	-3116.687500	627.817383	-142.123398
30693.705638	-3116.687500	626.590820	-52.078571
30693.705638	-3116.687500	625.365234	-87.177635
30693.705638	-3116.687500	624.137695	-107.265884
30693.705638	-3116.687500	622.911133	35.213966
30693.705638	-3116.687500	621.683594	87.610359
30693.705638	-3116.687500	620.456055	187.480850
30693.705638	-3116.687500	619.228516	-37.611523
30693.705638	-3116.687500	618.000977	37.253716
30693.705638	-3116.687500	616.772461	107.089455
30693.705638	-3116.687500	615.543945	176.897583
30693.705638	-3116.687500	614.314453	36.910732
30693.705638	-3116.687500	613.085938	181.618439
30693.705638	-3116.687500	611.856445	96.620171
30693.705638	-3116.687500	610.626953	-265.350739
30693.705638	-3116.687500	609.397461	-113.159988
30693.705638	-3116.687500	608.166992	-217.967468
30693.705638	-3116.687500	606.936523	-53.357269
30693.705638	-3116.687500	605.706055	-317.689240
30693.705638	-3116.687500	604.474609	-240.353714
30693.705638	-3116.687500	603.244141	-170.504944
30693.705638	-3116.687500	602.012695	-245.203461
30693.705638	-3116.687500	600.780273	-237.633286
30693.705638	-3116.687500	599.548828	-317.221252
30693.705638	-3116.687500	598.316406	-294.649872
30693.705638	-3116.687500	597.083984	4.310009
30693.705638	-3116.687500	595.851563	19.389305
30693.705638	-3116.687500	594.618164	41.956532
30693.705638	-3116.687500	593.384766	32.195816
30693.705638	-3116.687500	592.151367	-101.913940
30693.705638	-3116.687500	590.917969	27.707705
30693.705638	-3116.687500	589.683594	-205.745483
30693.705638	-3116.687500	588.449219	147.662354
30693.705638	-3116.687500	587.214844	61.005772
30693.705638	-3116.687500	585.979492	212.989273
30693.705638	-3116.687500	584.745117	-107.112732
30693.705638	-3116.687500	583.509766	-126.473526
30693.705638	-3116.687500	582.273438	-41.481491
30693.705638	-3116.687500	581.038086	-182.427933
30693.705638	-3116.687500	579.801758	-84.959641
30693.705638	-3116.687500	578.565430	-215.821899
30693.705638	-3116.687500	577.329102	119.915047
30693.705638	-3116.687500	576.091797	160.334671
30693.705638	-3116.687500	574.854492	37.085030
30693.705638	-3116.687500	573.617188	342.940491
30693.705638	-3116.687500	572.378906	61.131981
30693.705638	-3116.687500	571.141602	156.260818
30693.705638	-3116.687500	569.903320	-157.499146
30693.705638	-3116.687500	568.664063	-5.275971
30693.705638	-3116.687500	567.425781	20.605497
30693.705638	-3116.687500	566.186523	-92.161255
30693.705638	-3116.687500	564.947266	-6.739426
30693.705638	-3116.687500	563.708008	148.016068
30693.705638	-3116.687500	562.467773	188.910339
30693.705638	-3116.687500	561.227539	-126.480843
30693.705638	-3116.687500	559.987305	67.953239
30693.705638	-3116.687500	558.747070	74.383789
30693.705638	-3116.687500	557.505859	43.771149
30693.705638	-3116.687500	556.264648	233.271698
30693.705638	-3116.687500	555.023438	14.897275
30693.705638	-3116.687500	553.781250	-119.302986
30693.705638	-3116.687500	552.539063	270.416809
30693.705638	-3116.687500	551.296875	306.783081
30693.705638	-3116.687500	550.054688	165.373825
30693.705638	-3116.687500	548.811523	83.339592
30693.705638	-3116.687500	547.569336	-85.002464
30693.705638	-3116.687500	546.325195	247.813629
30693.705638	-3116.687500	545.082031	195.598282
30693.705638	-3116.687500	543.837891	168.131409
30693.705638	-3116.687500	542.593750	93.868767
30693.705638	-3116.687500	541.349609	-108.541985
30693.705638	-3116.687500	540.105469	167.495956
30693.705638	-3116.687500	538.860352	275.847656
30693.705638	-3116.687500	537.615234	270.843384
30693.705638	-3116.687500	536.369141	320.096130
30693.705638	-3116.687500	535.124023	551.669250
30693.705638	-3116.687500	533.877930	312.785828
30693.705638	-3116.687500	532.631836	266.111542
30693.705638	-3116.687500	531.384766	310.591064
30693.705638	-3116.687500	530.138672	155.732391
30693.705638	-3116.687500	528.891602	389.777954
30693.705638	-3116.687500	527.643555	591.780640
30693.705638	-3116.687500	526.396484	493.652100
30693.705638	-3116.687500	525.148438	678.406128
30693.705638	-3116.687500	523.900391	762.308777
30693.705638	-3116.687500	522.652344	652.017700
30693.705638	-3116.687500	521.403320	1055.435913
30693.705638	-3116.687500	520.154297	945.182556
30693.705638	-3116.687500	518.905273	682.696045
30693.705638	-3116.687500	517.656250	837.860107
30693.705638	-3116.687500	516.406250	776.893677
30693.705638	-3116.687500	515.156250	767.520569
30693.705638	-3116.687500	513.906250	898.061584
30693.705638	-3116.687500	512.655273	623.662964
30693.705638	-3116.687500	511.404297	729.655396
30693.705638	-3116.687500	510.153320	815.978333
30693.705638	-3116.687500	508.902344	740.406921
30693.705638	-3116.687500	507.650391	954.168762
30693.705638	-3116.687500	506.398438	775.623291
30693.705638	-3116.687500	505.146484	807.898682
30693.705638	-3116.687500	503.893555	720.075378
30693.705638	-3116.687500	502.641602	1305.921143
30693.705638	-3116.687500	501.388672	1345.322144
30693.705638	-3116.687500	500.134766	916.981873
30693.705638	-3116.687500	498.881836	1132.628540
30693.705638	-3116.687500	497.627930	1162.116455
30693.705638	-3116.687500	496.374023	1311.440186
30693.705638	-3116.687500	495.119141	1379.901245
30693.705638	-3116.687500	493.865234	1497.182739
30693.705638	-3116.687500	492.610352	1526.301514
30693.705638	-3116.687500	491.355469	1533.321899
30693.705638	-3116.687500	490.099609	1911.796387
30693.705638	-3116.687500	488.843750	1818.343872
30693.705638	-3116.687500	487.587891	1866.540649
30693.705638	-3116.687500	486.332031	1777.806763
30693.705638	-3116.687500	485.075195	1659.681885
30693.705638	-3116.687500	483.818359	1504.852417
30693.705638	-3116.687500	482.561523	1684.401611
30693.705638	-3116.687500	481.304688	1756.338501
30693.705638	-3116.687500	480.046875	1903.732300
30693.705638	-3116.687500	478.789063	2016.741699
30693.705638	-3116.687500	477.531250	2158.800537
30693.705638	-3116.687500	476.272461	2239.646729
30693.705638	-3116.687500	475.013672	2227.616211
30693.705638	-3116.687500	473.754883	2310.450928
30693.705638	-3116.687500	472.496094	2010.421265
30693.705638	-3116.687500	471.236328	2229.269531
30693.705638	-3116.687500	469.976563	2106.749023
30693.705638	-3116.687500	468.716797	2271.416748
30693.705638	-3116.687500	467.456055	2143.558350
30693.705638	-3116.687500	466.196289	2219.975342
30693.705638	-3116.687500	464.935547	2388.558350
30693.705638	-3116.687500	463.673828	2328.030518
30693.705638	-3116.687500	462.413086	2505.641113
30693.705638	-3116.687500	461.151367	2422.588867
30693.705638	-3116.687500	459.889648	2545.935059
30693.705638	-3116.687500	458.626953	2761.259766
30693.705638	-3116.687500	457.364258	2747.634277
30693.705638	-3116.687500	456.101563	2655.867676
30693.705638	-3116.687500	454.838867	2702.236572
30693.705638	-3116.687500	453.575195	2677.721191
30693.705638	-3116.687500	452.312500	2579.933838
30693.705638	-3116.687500	451.047852	2928.503906
30693.705638	-3116.687500	449.784180	2621.024170
30693.705638	-3116.687500	448.519531	2830.152100
30693.705638	-3116.687500	447.254883	2662.583496
30693.705638	-3116.687500	445.990234	2829.363037
30693.705638	-3116.687500	444.725586	2638.992920
30693.705638	-3116.687500	443.459961	3134.407959
30693.705638	-3116.687500	442.194336	3105.364502
30693.705638	-3116.687500	440.927734	3080.582764
30693.705638	-3116.687500	439.662109	3130.337646
30693.705638	-3116.687500	438.395508	2990.448975
30693.705638	-3116.687500	437.127930	3024.370117
30693.705638	-3116.687500	435.861328	2854.183838
30693.705638	-3116.687500	434.593750	2884.334961
30693.705638	-3116.687500	433.326172	2611.165527
30693.705638	-3116.687500	432.058594	2845.626465
30693.705638	-3116.687500	430.790039	2774.329102
30693.705638	-3116.687500	429.521484	2779.694336
30693.705638	-3116.687500	428.252930	2997.092773
30693.705638	-3116.687500	426.984375	2792.810059
30693.705638	-3116.687500	425.714844	3088.191406
30693.705638	-3116.687500	424.445313	2800.044434
30693.705638	-3116.687500	423.174805	3076.573730
30693.705638	-3116.687500	421.905273	3294.084961
30693.705638	-3116.687500	420.634766	3208.582764
30693.705638	-3116.687500	419.364258	2994.135254
30693.705638	-3116.687500	418.092773	3273.711670
30693.705638	-3116.687500	416.822266	2835.201416
30693.705638	-3116.687500	415.550781	3322.544922
30693.705638	-3116.687500	414.278320	3487.634277
30693.705638	-3116.687500	413.006836	3176.306641
30693.705638	-3116.687500	411.734375	2871.160889
30693.705638	-3116.687500	410.461914	3228.071777
30693.705638	-3116.687500	409.188477	3414.818848
30693.705638	-3116.687500	407.916016	3207.378662
30693.705638	-3116.687500	406.642578	3268.602539
30693.705638	-3116.687500	405.368164	2909.238281
30693.705638	-3116.687500	404.094727	3225.553467
30693.705638	-3116.687500	402.820313	3092.384033
30693.705638	-3116.687500	401.545898	3422.523438
30693.705638	-3116.687500	400.270508	3312.921631
30693.705638	-3116.687500	398.996094	3057.504883
30693.705638	-3116.687500	397.720703	2908.902344
30693.705638	-3116.687500	396.444336	3083.504150
30693.705638	-3116.687500	395.168945	2943.796143
30693.705638	-3116.687500	393.892578	3175.162109
30693.705638	-3116.687500	392.616211	2810.942627
30693.705638	-3116.687500	391.339844	2884.989258
30693.705638	-3116.687500	390.062500	3065.321045
30693.705638	-3116.687500	388.785156	2837.744629
30693.705638	-3116.687500	387.507813	2834.191895
30693.705638	-3116.687500	386.229492	2939.156250
30693.705638	-3116.687500	384.951172	2914.882080
30693.705638	-3116.687500	383.672852	2963.041260
30693.705638	-3116.687500	382.394531	2797.961426
30693.705638	-3116.687500	381.115234	2911.537109
30693.705638	-3116.687500	379.835938	2658.320801
30693.705638	-3116.687500	378.556641	2702.825439
30693.705638	-3116.687500	377.277344	2459.756592
30693.705638	-3116.687500	375.997070	2576.444824
30693.705638	-3116.687500	374.716797	2479.850342
30693.705638	-3116.687500	373.435547	2366.484131
30693.705638	-3116.687500	372.155273	2236.437744
30693.705638	-3116.687500	370.874023	2245.220215
30693.705638	-3116.687500	369.591797	2074.196777
30693.705638	-3116.687500	368.310547	2219.155762
30693.705638	-3116.687500	367.028320	2227.301025
30693.705638	-3116.687500	365.746094	2254.289795
30693.705638	-3116.687500	364.463867	2414.895996
30693.705638	-3116.687500	363.180664	2008.034912
30693.705638	-3116.687500	361.897461	1849.595581
30693.705638	-3116.687500	360.614258	1795.898682
30693.705638	-3116.687500	359.330078	1813.264404
30693.705638	-3116.687500	358.045898	1600.536865
30693.705638	-3116.687500	356.761719	1477.989502
30693.705638	-3116.687500	355.477539	1768.000488
30693.705638	-3116.687500	354.192383	1610.328369
30693.705638	-3116.687500	352.907227	1743.139526
30693.705638	-3116.687500	351.622070	1614.707886
30693.705638	-3116.687500	350.336914	1838.548950
30693.705638	-3116.687500	349.050781	1564.741699
30693.705638	-3116.687500	347.764648	1509.374878
30693.705638	-3116.687500	346.477539	1223.701904
30693.705638	-3116.687500	345.191406	1082.426514
30693.705638	-3116.687500	343.904297	1416.563721
30693.705638	-3116.687500	342.616211	1355.677490
30693.705638	-3116.687500	341.329102	1064.632446
30693.705638	-3116.687500	340.041016	1141.306396
30693.705638	-3116.687500	338.752930	847.046753
30693.705638	-3116.687500	337.463867	574.853577
30693.705638	-3116.687500	336.175781	951.127319
30693.705638	-3116.687500	334.886719	730.059387
30693.705638	-3116.687500	333.596680	471.266907
30693.705638	-3116.687500	332.307617	436.727142
30693.705638	-3116.687500	331.017578	157.259521
30693.705638	-3116.687500	329.727539	170.625275
30693.705638	-3116.687500	328.436523	172.015030
30693.705638	-3116.687500	327.146484	228.232040
30693.705638	-3116.687500	325.855469	162.949112
30693.705638	-3116.687500	324.563477	185.273300
30693.705638	-3116.687500	323.272461	72.057693
30693.705638	-3116.687500	321.980469	-13.129997
30693.705638	-3116.687500	320.688477	-262.595001
30693.705638	-3116.687500	319.395508	-111.406487
30693.705638	-3116.687500	318.103516	-55.682949
30693.705638	-3116.687500	316.810547	96.412872
30693.705638	-3116.687500	315.516602	-101.368103
30693.705638	-3116.687500	314.223633	-328.248199
30693.705638	-3116.687500	312.929688	-181.502060
30693.705638	-3116.687500	311.635742	134.802277
30693.705638	-3116.687500	310.340820	-456.056519
30693.705638	-3116.687500	309.045898	-73.819946
30693.705638	-3116.687500	307.750977	-91.264488
30693.705638	-3116.687500	306.456055	-231.034866
30693.705638	-3116.687500	305.160156	-173.617355
30693.705638	-3116.687500	303.865234	104.894470
30693.705638	-3116.687500	302.568359	163.170074
30693.705638	-3116.687500	301.272461	418.563141
30693.705638	-3116.687500	299.975586	380.475800
30693.705638	-3116.687500	298.678711	659.671265
