#X		#Y		#Wave		#Intensity
30693.464628	-3124.032500	1999.980469	3.444295
30693.464628	-3124.032500	1999.016602	-90.358009
30693.464628	-3124.032500	1998.052734	20.253826
30693.464628	-3124.032500	1997.087891	-270.651306
30693.464628	-3124.032500	1996.123047	-51.073910
30693.464628	-3124.032500	1995.158203	-133.825348
30693.464628	-3124.032500	1994.193359	-110.074394
30693.464628	-3124.032500	1993.228516	37.455536
30693.464628	-3124.032500	1992.262695	140.341217
30693.464628	-3124.032500	1991.297852	45.122311
30693.464628	-3124.032500	1990.332031	-17.912106
30693.464628	-3124.032500	1989.366211	-103.224861
30693.464628	-3124.032500	1988.399414	-124.207870
30693.464628	-3124.032500	1987.433594	99.659393
30693.464628	-3124.032500	1986.466797	-54.966873
30693.464628	-3124.032500	1985.500977	156.375488
30693.464628	-3124.032500	1984.534180	36.340622
30693.464628	-3124.032500	1983.567383	165.958344
30693.464628	-3124.032500	1982.599609	149.696121
30693.464628	-3124.032500	1981.632813	101.278244
30693.464628	-3124.032500	1980.665039	282.589203
30693.464628	-3124.032500	1979.697266	105.666901
30693.464628	-3124.032500	1978.729492	-283.594330
30693.464628	-3124.032500	1977.761719	-124.637962
30693.464628	-3124.032500	1976.792969	98.407707
30693.464628	-3124.032500	1975.825195	111.546921
30693.464628	-3124.032500	1974.856445	228.288910
30693.464628	-3124.032500	1973.887695	199.390686
30693.464628	-3124.032500	1972.918945	34.801468
30693.464628	-3124.032500	1971.949219	89.734741
30693.464628	-3124.032500	1970.980469	-37.859455
30693.464628	-3124.032500	1970.010742	233.939972
30693.464628	-3124.032500	1969.041016	128.484085
30693.464628	-3124.032500	1968.071289	25.493723
30693.464628	-3124.032500	1967.101563	134.404556
30693.464628	-3124.032500	1966.130859	218.607697
30693.464628	-3124.032500	1965.161133	-14.985291
30693.464628	-3124.032500	1964.190430	17.431122
30693.464628	-3124.032500	1963.219727	-43.758438
30693.464628	-3124.032500	1962.249023	350.438446
30693.464628	-3124.032500	1961.277344	451.580750
30693.464628	-3124.032500	1960.306641	11.291438
30693.464628	-3124.032500	1959.334961	240.323013
30693.464628	-3124.032500	1958.363281	245.396317
30693.464628	-3124.032500	1957.391602	112.708893
30693.464628	-3124.032500	1956.419922	-108.481133
30693.464628	-3124.032500	1955.447266	-137.860977
30693.464628	-3124.032500	1954.474609	-388.479156
30693.464628	-3124.032500	1953.501953	-91.014992
30693.464628	-3124.032500	1952.529297	262.820892
30693.464628	-3124.032500	1951.556641	85.868744
30693.464628	-3124.032500	1950.583984	130.001953
30693.464628	-3124.032500	1949.610352	230.574203
30693.464628	-3124.032500	1948.636719	-34.751827
30693.464628	-3124.032500	1947.663086	-64.350761
30693.464628	-3124.032500	1946.689453	92.559074
30693.464628	-3124.032500	1945.715820	-148.143021
30693.464628	-3124.032500	1944.741211	143.603561
30693.464628	-3124.032500	1943.767578	135.952301
30693.464628	-3124.032500	1942.792969	15.465337
30693.464628	-3124.032500	1941.818359	-112.360420
30693.464628	-3124.032500	1940.842773	78.539429
30693.464628	-3124.032500	1939.868164	26.677998
30693.464628	-3124.032500	1938.892578	-59.496067
30693.464628	-3124.032500	1937.916992	82.203720
30693.464628	-3124.032500	1936.941406	-94.640160
30693.464628	-3124.032500	1935.965820	-99.996010
30693.464628	-3124.032500	1934.990234	107.675682
30693.464628	-3124.032500	1934.013672	175.689148
30693.464628	-3124.032500	1933.037109	35.582569
30693.464628	-3124.032500	1932.060547	-18.836958
30693.464628	-3124.032500	1931.083984	-9.635393
30693.464628	-3124.032500	1930.107422	43.576389
30693.464628	-3124.032500	1929.129883	167.686707
30693.464628	-3124.032500	1928.153320	296.615570
30693.464628	-3124.032500	1927.175781	132.059036
30693.464628	-3124.032500	1926.198242	79.996887
30693.464628	-3124.032500	1925.219727	-138.272491
30693.464628	-3124.032500	1924.242188	-197.635590
30693.464628	-3124.032500	1923.263672	33.765614
30693.464628	-3124.032500	1922.285156	299.262512
30693.464628	-3124.032500	1921.306641	-304.869080
30693.464628	-3124.032500	1920.328125	-361.790833
30693.464628	-3124.032500	1919.349609	189.235947
30693.464628	-3124.032500	1918.370117	-128.984665
30693.464628	-3124.032500	1917.391602	189.897430
30693.464628	-3124.032500	1916.412109	-86.754181
30693.464628	-3124.032500	1915.431641	122.183907
30693.464628	-3124.032500	1914.452148	91.979805
30693.464628	-3124.032500	1913.472656	164.201233
30693.464628	-3124.032500	1912.492188	36.437302
30693.464628	-3124.032500	1911.511719	171.998062
30693.464628	-3124.032500	1910.531250	-80.057518
30693.464628	-3124.032500	1909.550781	-76.150948
30693.464628	-3124.032500	1908.569336	39.822422
30693.464628	-3124.032500	1907.588867	-80.562462
30693.464628	-3124.032500	1906.607422	183.913101
30693.464628	-3124.032500	1905.625977	-14.403683
30693.464628	-3124.032500	1904.644531	-37.358189
30693.464628	-3124.032500	1903.662109	385.152191
30693.464628	-3124.032500	1902.680664	16.507168
30693.464628	-3124.032500	1901.698242	168.724121
30693.464628	-3124.032500	1900.715820	41.091667
30693.464628	-3124.032500	1899.733398	71.604256
30693.464628	-3124.032500	1898.750000	-199.469589
30693.464628	-3124.032500	1897.767578	93.660072
30693.464628	-3124.032500	1896.784180	111.959679
30693.464628	-3124.032500	1895.800781	74.338974
30693.464628	-3124.032500	1894.817383	-109.088509
30693.464628	-3124.032500	1893.833984	28.265350
30693.464628	-3124.032500	1892.850586	-342.155853
30693.464628	-3124.032500	1891.866211	-27.525120
30693.464628	-3124.032500	1890.881836	-52.989346
30693.464628	-3124.032500	1889.897461	57.510269
30693.464628	-3124.032500	1888.913086	99.991493
30693.464628	-3124.032500	1887.927734	-100.248039
30693.464628	-3124.032500	1886.943359	-217.922195
30693.464628	-3124.032500	1885.958008	-185.140991
30693.464628	-3124.032500	1884.972656	201.759201
30693.464628	-3124.032500	1883.987305	183.505112
30693.464628	-3124.032500	1883.001953	-94.192184
30693.464628	-3124.032500	1882.015625	149.421860
30693.464628	-3124.032500	1881.029297	-38.498871
30693.464628	-3124.032500	1880.042969	25.670734
30693.464628	-3124.032500	1879.056641	-62.832893
30693.464628	-3124.032500	1878.070313	-42.300682
30693.464628	-3124.032500	1877.083984	-43.580204
30693.464628	-3124.032500	1876.096680	-32.758801
30693.464628	-3124.032500	1875.109375	271.002960
30693.464628	-3124.032500	1874.122070	-95.869133
30693.464628	-3124.032500	1873.134766	164.214844
30693.464628	-3124.032500	1872.146484	49.138191
30693.464628	-3124.032500	1871.159180	-189.285538
30693.464628	-3124.032500	1870.170898	-272.821045
30693.464628	-3124.032500	1869.182617	-114.496124
30693.464628	-3124.032500	1868.194336	-86.804932
30693.464628	-3124.032500	1867.205078	-141.321259
30693.464628	-3124.032500	1866.216797	-258.669037
30693.464628	-3124.032500	1865.227539	30.002148
30693.464628	-3124.032500	1864.238281	-58.353081
30693.464628	-3124.032500	1863.249023	189.091400
30693.464628	-3124.032500	1862.259766	13.778875
30693.464628	-3124.032500	1861.269531	331.131531
30693.464628	-3124.032500	1860.279297	76.176277
30693.464628	-3124.032500	1859.290039	-0.071746
30693.464628	-3124.032500	1858.298828	-155.935760
30693.464628	-3124.032500	1857.308594	-14.961868
30693.464628	-3124.032500	1856.318359	-180.431076
30693.464628	-3124.032500	1855.327148	28.016201
30693.464628	-3124.032500	1854.335938	328.018158
30693.464628	-3124.032500	1853.344727	-143.653854
30693.464628	-3124.032500	1852.353516	-84.816399
30693.464628	-3124.032500	1851.362305	46.297955
30693.464628	-3124.032500	1850.370117	8.673707
30693.464628	-3124.032500	1849.377930	-151.818527
30693.464628	-3124.032500	1848.385742	-66.557838
30693.464628	-3124.032500	1847.393555	201.699722
30693.464628	-3124.032500	1846.401367	94.207886
30693.464628	-3124.032500	1845.408203	92.677612
30693.464628	-3124.032500	1844.415039	-216.959930
30693.464628	-3124.032500	1843.421875	156.974731
30693.464628	-3124.032500	1842.428711	-142.954193
30693.464628	-3124.032500	1841.435547	-178.159027
30693.464628	-3124.032500	1840.441406	48.809399
30693.464628	-3124.032500	1839.448242	104.942619
30693.464628	-3124.032500	1838.454102	158.639191
30693.464628	-3124.032500	1837.459961	-153.081818
30693.464628	-3124.032500	1836.464844	95.299034
30693.464628	-3124.032500	1835.470703	45.603390
30693.464628	-3124.032500	1834.475586	447.589081
30693.464628	-3124.032500	1833.480469	44.722477
30693.464628	-3124.032500	1832.485352	43.061855
30693.464628	-3124.032500	1831.490234	-193.924332
30693.464628	-3124.032500	1830.495117	140.529251
30693.464628	-3124.032500	1829.499023	-12.401896
30693.464628	-3124.032500	1828.502930	7.492777
30693.464628	-3124.032500	1827.506836	3.373094
30693.464628	-3124.032500	1826.510742	-84.722214
30693.464628	-3124.032500	1825.513672	122.210426
30693.464628	-3124.032500	1824.517578	-107.385986
30693.464628	-3124.032500	1823.520508	-3.652440
30693.464628	-3124.032500	1822.523438	23.316967
30693.464628	-3124.032500	1821.526367	52.658592
30693.464628	-3124.032500	1820.529297	0.500981
30693.464628	-3124.032500	1819.531250	1.052660
30693.464628	-3124.032500	1818.533203	209.973465
30693.464628	-3124.032500	1817.535156	133.813828
30693.464628	-3124.032500	1816.537109	-88.389557
30693.464628	-3124.032500	1815.539063	146.706696
30693.464628	-3124.032500	1814.540039	-37.157753
30693.464628	-3124.032500	1813.541992	216.944794
30693.464628	-3124.032500	1812.542969	-129.597794
30693.464628	-3124.032500	1811.543945	165.052185
30693.464628	-3124.032500	1810.543945	50.599140
30693.464628	-3124.032500	1809.544922	129.853699
30693.464628	-3124.032500	1808.544922	122.990715
30693.464628	-3124.032500	1807.544922	-158.777084
30693.464628	-3124.032500	1806.544922	-17.457935
30693.464628	-3124.032500	1805.544922	150.066910
30693.464628	-3124.032500	1804.544922	-107.726433
30693.464628	-3124.032500	1803.543945	71.649506
30693.464628	-3124.032500	1802.542969	14.514980
30693.464628	-3124.032500	1801.541992	103.021904
30693.464628	-3124.032500	1800.541016	41.078049
30693.464628	-3124.032500	1799.539063	208.256699
30693.464628	-3124.032500	1798.538086	229.781082
30693.464628	-3124.032500	1797.536133	29.397762
30693.464628	-3124.032500	1796.534180	146.309937
30693.464628	-3124.032500	1795.532227	-46.885159
30693.464628	-3124.032500	1794.529297	108.092636
30693.464628	-3124.032500	1793.527344	-85.078117
30693.464628	-3124.032500	1792.524414	-175.711670
30693.464628	-3124.032500	1791.521484	-70.928902
30693.464628	-3124.032500	1790.518555	148.148651
30693.464628	-3124.032500	1789.514648	24.082260
30693.464628	-3124.032500	1788.511719	104.857414
30693.464628	-3124.032500	1787.507813	54.602932
30693.464628	-3124.032500	1786.503906	132.897278
30693.464628	-3124.032500	1785.500000	68.310349
30693.464628	-3124.032500	1784.496094	-72.443466
30693.464628	-3124.032500	1783.491211	146.122711
30693.464628	-3124.032500	1782.486328	-54.133217
30693.464628	-3124.032500	1781.481445	-213.912857
30693.464628	-3124.032500	1780.476563	6.830222
30693.464628	-3124.032500	1779.471680	-217.166122
30693.464628	-3124.032500	1778.465820	174.580933
30693.464628	-3124.032500	1777.460938	-51.809628
30693.464628	-3124.032500	1776.455078	73.540321
30693.464628	-3124.032500	1775.449219	-76.792336
30693.464628	-3124.032500	1774.442383	12.809845
30693.464628	-3124.032500	1773.436523	171.212250
30693.464628	-3124.032500	1772.429688	144.306381
30693.464628	-3124.032500	1771.422852	-136.649063
30693.464628	-3124.032500	1770.416016	-9.281457
30693.464628	-3124.032500	1769.409180	144.104095
30693.464628	-3124.032500	1768.402344	166.893906
30693.464628	-3124.032500	1767.394531	469.556763
30693.464628	-3124.032500	1766.386719	468.476501
30693.464628	-3124.032500	1765.378906	-28.255482
30693.464628	-3124.032500	1764.371094	-57.774315
30693.464628	-3124.032500	1763.362305	-92.066475
30693.464628	-3124.032500	1762.354492	-147.718842
30693.464628	-3124.032500	1761.345703	-151.262573
30693.464628	-3124.032500	1760.336914	60.739189
30693.464628	-3124.032500	1759.328125	-47.149467
30693.464628	-3124.032500	1758.318359	34.412926
30693.464628	-3124.032500	1757.308594	59.072353
30693.464628	-3124.032500	1756.299805	192.574585
30693.464628	-3124.032500	1755.290039	146.098907
30693.464628	-3124.032500	1754.279297	-16.357090
30693.464628	-3124.032500	1753.269531	93.286507
30693.464628	-3124.032500	1752.258789	-201.658432
30693.464628	-3124.032500	1751.249023	165.671417
30693.464628	-3124.032500	1750.238281	-126.902496
30693.464628	-3124.032500	1749.226563	287.459229
30693.464628	-3124.032500	1748.215820	-59.487221
30693.464628	-3124.032500	1747.204102	-141.670654
30693.464628	-3124.032500	1746.193359	-219.145218
30693.464628	-3124.032500	1745.181641	52.984318
30693.464628	-3124.032500	1744.168945	-145.051987
30693.464628	-3124.032500	1743.157227	169.365784
30693.464628	-3124.032500	1742.144531	-130.240372
30693.464628	-3124.032500	1741.132813	89.532852
30693.464628	-3124.032500	1740.120117	-210.044693
30693.464628	-3124.032500	1739.106445	-146.178497
30693.464628	-3124.032500	1738.093750	89.831963
30693.464628	-3124.032500	1737.080078	-54.054298
30693.464628	-3124.032500	1736.067383	7.232591
30693.464628	-3124.032500	1735.053711	-61.237206
30693.464628	-3124.032500	1734.040039	212.085815
30693.464628	-3124.032500	1733.025391	-334.957886
30693.464628	-3124.032500	1732.011719	-127.774582
30693.464628	-3124.032500	1730.997070	-234.075714
30693.464628	-3124.032500	1729.982422	-241.456100
30693.464628	-3124.032500	1728.967773	5.464923
30693.464628	-3124.032500	1727.952148	-188.085678
30693.464628	-3124.032500	1726.937500	-75.568306
30693.464628	-3124.032500	1725.921875	-7.870678
30693.464628	-3124.032500	1724.906250	-81.452545
30693.464628	-3124.032500	1723.890625	16.697659
30693.464628	-3124.032500	1722.875000	-40.504211
30693.464628	-3124.032500	1721.858398	78.656837
30693.464628	-3124.032500	1720.841797	21.352142
30693.464628	-3124.032500	1719.825195	168.556198
30693.464628	-3124.032500	1718.808594	332.102844
30693.464628	-3124.032500	1717.791992	-66.160355
30693.464628	-3124.032500	1716.774414	5.616127
30693.464628	-3124.032500	1715.756836	-181.112854
30693.464628	-3124.032500	1714.739258	-64.827873
30693.464628	-3124.032500	1713.721680	182.865540
30693.464628	-3124.032500	1712.704102	263.703644
30693.464628	-3124.032500	1711.685547	175.436127
30693.464628	-3124.032500	1710.667969	28.469612
30693.464628	-3124.032500	1709.649414	153.703918
30693.464628	-3124.032500	1708.630859	91.143173
30693.464628	-3124.032500	1707.611328	326.447021
30693.464628	-3124.032500	1706.592773	106.631958
30693.464628	-3124.032500	1705.573242	43.943081
30693.464628	-3124.032500	1704.553711	-56.289066
30693.464628	-3124.032500	1703.534180	101.285133
30693.464628	-3124.032500	1702.513672	174.375931
30693.464628	-3124.032500	1701.494141	81.033524
30693.464628	-3124.032500	1700.473633	-35.759109
30693.464628	-3124.032500	1699.453125	62.906963
30693.464628	-3124.032500	1698.432617	245.775955
30693.464628	-3124.032500	1697.412109	419.152588
30693.464628	-3124.032500	1696.390625	208.524246
30693.464628	-3124.032500	1695.369141	96.210251
30693.464628	-3124.032500	1694.347656	150.009537
30693.464628	-3124.032500	1693.326172	498.492523
30693.464628	-3124.032500	1692.304688	531.030396
30693.464628	-3124.032500	1691.282227	107.491142
30693.464628	-3124.032500	1690.260742	-177.993668
30693.464628	-3124.032500	1689.238281	307.969971
30693.464628	-3124.032500	1688.214844	165.001175
30693.464628	-3124.032500	1687.192383	412.257263
30693.464628	-3124.032500	1686.168945	388.356506
30693.464628	-3124.032500	1685.146484	523.245544
30693.464628	-3124.032500	1684.123047	380.118683
30693.464628	-3124.032500	1683.099609	386.422943
30693.464628	-3124.032500	1682.075195	502.383362
30693.464628	-3124.032500	1681.051758	219.136444
30693.464628	-3124.032500	1680.027344	544.991333
30693.464628	-3124.032500	1679.002930	642.022339
30693.464628	-3124.032500	1677.978516	578.010864
30693.464628	-3124.032500	1676.953125	667.886902
30693.464628	-3124.032500	1675.928711	557.150757
30693.464628	-3124.032500	1674.903320	479.034943
30693.464628	-3124.032500	1673.877930	550.069092
30693.464628	-3124.032500	1672.852539	429.931244
30693.464628	-3124.032500	1671.826172	752.469116
30693.464628	-3124.032500	1670.800781	546.038940
30693.464628	-3124.032500	1669.774414	470.058472
30693.464628	-3124.032500	1668.748047	692.114258
30693.464628	-3124.032500	1667.721680	1025.780762
30693.464628	-3124.032500	1666.694336	658.628296
30693.464628	-3124.032500	1665.667969	545.238220
30693.464628	-3124.032500	1664.640625	655.209412
30693.464628	-3124.032500	1663.613281	534.777100
30693.464628	-3124.032500	1662.585938	728.338318
30693.464628	-3124.032500	1661.557617	842.703186
30693.464628	-3124.032500	1660.530273	782.604004
30693.464628	-3124.032500	1659.501953	768.965454
30693.464628	-3124.032500	1658.473633	1036.495850
30693.464628	-3124.032500	1657.444336	867.026611
30693.464628	-3124.032500	1656.416016	1345.749512
30693.464628	-3124.032500	1655.386719	943.913086
30693.464628	-3124.032500	1654.358398	844.088135
30693.464628	-3124.032500	1653.328125	1143.602173
30693.464628	-3124.032500	1652.298828	1073.857178
30693.464628	-3124.032500	1651.269531	1129.422974
30693.464628	-3124.032500	1650.239258	1354.314453
30693.464628	-3124.032500	1649.208984	1228.744141
30693.464628	-3124.032500	1648.178711	1277.148193
30693.464628	-3124.032500	1647.148438	1613.066162
30693.464628	-3124.032500	1646.117188	1700.700439
30693.464628	-3124.032500	1645.086914	1572.667480
30693.464628	-3124.032500	1644.055664	1595.291260
30693.464628	-3124.032500	1643.024414	1330.513184
30693.464628	-3124.032500	1641.992188	1821.101807
30693.464628	-3124.032500	1640.960938	1825.008057
30693.464628	-3124.032500	1639.928711	1462.938477
30693.464628	-3124.032500	1638.896484	1665.965454
30693.464628	-3124.032500	1637.864258	1688.294678
30693.464628	-3124.032500	1636.832031	1546.235352
30693.464628	-3124.032500	1635.798828	1691.151611
30693.464628	-3124.032500	1634.766602	1694.838623
30693.464628	-3124.032500	1633.733398	1763.254395
30693.464628	-3124.032500	1632.699219	1785.344849
30693.464628	-3124.032500	1631.666016	1992.389771
30693.464628	-3124.032500	1630.632813	2074.473877
30693.464628	-3124.032500	1629.598633	2246.632813
30693.464628	-3124.032500	1628.564453	1725.371582
30693.464628	-3124.032500	1627.530273	1661.782349
30693.464628	-3124.032500	1626.495117	1683.656860
30693.464628	-3124.032500	1625.460938	1975.734253
30693.464628	-3124.032500	1624.425781	2096.774658
30693.464628	-3124.032500	1623.390625	1919.898438
30693.464628	-3124.032500	1622.355469	2223.205566
30693.464628	-3124.032500	1621.319336	2226.329590
30693.464628	-3124.032500	1620.284180	2086.365234
30693.464628	-3124.032500	1619.248047	2128.676514
30693.464628	-3124.032500	1618.211914	2348.554932
30693.464628	-3124.032500	1617.174805	2305.413330
30693.464628	-3124.032500	1616.138672	2004.034180
30693.464628	-3124.032500	1615.101563	2424.281250
30693.464628	-3124.032500	1614.065430	2519.370361
30693.464628	-3124.032500	1613.027344	2035.999146
30693.464628	-3124.032500	1611.990234	2209.411133
30693.464628	-3124.032500	1610.953125	2090.194824
30693.464628	-3124.032500	1609.915039	2304.934814
30693.464628	-3124.032500	1608.876953	2335.366699
30693.464628	-3124.032500	1607.838867	2018.151123
30693.464628	-3124.032500	1606.800781	2126.847656
30693.464628	-3124.032500	1605.761719	2279.199219
30693.464628	-3124.032500	1604.723633	2171.498291
30693.464628	-3124.032500	1603.684570	2544.580811
30693.464628	-3124.032500	1602.644531	2620.816650
30693.464628	-3124.032500	1601.605469	2494.666992
30693.464628	-3124.032500	1600.566406	2359.358398
30693.464628	-3124.032500	1599.526367	2405.666748
30693.464628	-3124.032500	1598.486328	2644.982422
30693.464628	-3124.032500	1597.446289	2682.007080
30693.464628	-3124.032500	1596.405273	2783.319580
30693.464628	-3124.032500	1595.365234	2721.527100
30693.464628	-3124.032500	1594.324219	2747.000732
30693.464628	-3124.032500	1593.283203	2751.796631
30693.464628	-3124.032500	1592.242188	2813.970215
30693.464628	-3124.032500	1591.200195	2899.055176
30693.464628	-3124.032500	1590.159180	2912.983398
30693.464628	-3124.032500	1589.117188	2839.723389
30693.464628	-3124.032500	1588.075195	2846.766846
30693.464628	-3124.032500	1587.032227	3108.336914
30693.464628	-3124.032500	1585.990234	2814.982422
30693.464628	-3124.032500	1584.947266	2817.435791
30693.464628	-3124.032500	1583.904297	2941.354736
30693.464628	-3124.032500	1582.861328	3019.402100
30693.464628	-3124.032500	1581.818359	2953.096680
30693.464628	-3124.032500	1580.775391	2657.779297
30693.464628	-3124.032500	1579.731445	2745.005371
30693.464628	-3124.032500	1578.687500	2825.336426
30693.464628	-3124.032500	1577.643555	2704.203613
30693.464628	-3124.032500	1576.598633	2734.171631
30693.464628	-3124.032500	1575.554688	2578.799072
30693.464628	-3124.032500	1574.509766	2482.974854
30693.464628	-3124.032500	1573.464844	2373.477539
30693.464628	-3124.032500	1572.419922	2483.572021
30693.464628	-3124.032500	1571.374023	2161.503174
30693.464628	-3124.032500	1570.329102	2207.620117
30693.464628	-3124.032500	1569.283203	2139.454590
30693.464628	-3124.032500	1568.237305	2462.076416
30693.464628	-3124.032500	1567.191406	1831.910278
30693.464628	-3124.032500	1566.144531	1841.568359
30693.464628	-3124.032500	1565.098633	2093.321533
30693.464628	-3124.032500	1564.051758	2235.397217
30693.464628	-3124.032500	1563.004883	1987.075928
30693.464628	-3124.032500	1561.957031	1866.684692
30693.464628	-3124.032500	1560.910156	1534.150513
30693.464628	-3124.032500	1559.862305	1626.122681
30693.464628	-3124.032500	1558.814453	1724.926636
30693.464628	-3124.032500	1557.766602	1547.770508
30693.464628	-3124.032500	1556.718750	1450.518311
30693.464628	-3124.032500	1555.669922	1193.751587
30693.464628	-3124.032500	1554.621094	1160.479004
30693.464628	-3124.032500	1553.573242	1307.283569
30693.464628	-3124.032500	1552.523438	1422.154907
30693.464628	-3124.032500	1551.474609	1008.550781
30693.464628	-3124.032500	1550.424805	1007.355408
30693.464628	-3124.032500	1549.375000	1122.323608
30693.464628	-3124.032500	1548.325195	1180.372314
30693.464628	-3124.032500	1547.275391	1145.113892
30693.464628	-3124.032500	1546.225586	909.654968
30693.464628	-3124.032500	1545.174805	658.397400
30693.464628	-3124.032500	1544.124023	814.459045
30693.464628	-3124.032500	1543.073242	986.422913
30693.464628	-3124.032500	1542.022461	842.297913
30693.464628	-3124.032500	1540.970703	700.542725
30693.464628	-3124.032500	1539.919922	806.647400
30693.464628	-3124.032500	1538.868164	653.684631
30693.464628	-3124.032500	1537.815430	875.716125
30693.464628	-3124.032500	1536.763672	754.702332
30693.464628	-3124.032500	1535.710938	858.626343
30693.464628	-3124.032500	1534.659180	642.395752
30693.464628	-3124.032500	1533.606445	637.431274
30693.464628	-3124.032500	1532.552734	898.085754
30693.464628	-3124.032500	1531.500000	1038.422607
30693.464628	-3124.032500	1530.446289	1226.400024
30693.464628	-3124.032500	1529.393555	894.885986
30693.464628	-3124.032500	1528.338867	894.683960
30693.464628	-3124.032500	1527.285156	844.656494
30693.464628	-3124.032500	1526.231445	1073.567627
30693.464628	-3124.032500	1525.176758	944.308411
30693.464628	-3124.032500	1524.122070	572.675476
30693.464628	-3124.032500	1523.067383	681.599426
30693.464628	-3124.032500	1522.012695	530.030518
30693.464628	-3124.032500	1520.957031	740.965576
30693.464628	-3124.032500	1519.901367	714.116943
30693.464628	-3124.032500	1518.845703	578.673157
30693.464628	-3124.032500	1517.790039	330.176086
30693.464628	-3124.032500	1516.734375	267.419769
30693.464628	-3124.032500	1515.677734	643.709961
30693.464628	-3124.032500	1514.621094	556.170715
30693.464628	-3124.032500	1513.564453	584.088135
30693.464628	-3124.032500	1512.507813	422.119476
30693.464628	-3124.032500	1511.450195	658.195740
30693.464628	-3124.032500	1510.393555	715.686401
30693.464628	-3124.032500	1509.335938	402.593140
30693.464628	-3124.032500	1508.278320	369.881439
30693.464628	-3124.032500	1507.219727	346.293121
30693.464628	-3124.032500	1506.162109	191.798569
30693.464628	-3124.032500	1505.103516	98.413795
30693.464628	-3124.032500	1504.044922	303.166412
30693.464628	-3124.032500	1502.986328	70.008522
30693.464628	-3124.032500	1501.926758	198.117859
30693.464628	-3124.032500	1500.868164	80.317535
30693.464628	-3124.032500	1499.808594	127.329391
30693.464628	-3124.032500	1498.749023	-254.131897
30693.464628	-3124.032500	1497.688477	-17.476135
30693.464628	-3124.032500	1496.628906	-134.794998
30693.464628	-3124.032500	1495.568359	115.444572
30693.464628	-3124.032500	1494.507813	-220.283340
30693.464628	-3124.032500	1493.447266	-454.391937
30693.464628	-3124.032500	1492.386719	-80.060028
30693.464628	-3124.032500	1491.325195	86.998329
30693.464628	-3124.032500	1490.263672	-27.401323
30693.464628	-3124.032500	1489.202148	-152.920273
30693.464628	-3124.032500	1488.140625	-201.758835
30693.464628	-3124.032500	1487.079102	87.105270
30693.464628	-3124.032500	1486.016602	-38.072811
30693.464628	-3124.032500	1484.954102	-496.052246
30693.464628	-3124.032500	1483.891602	-449.924072
30693.464628	-3124.032500	1482.829102	-223.812439
30693.464628	-3124.032500	1481.765625	-132.590805
30693.464628	-3124.032500	1480.702148	-272.827362
30693.464628	-3124.032500	1479.638672	-66.827927
30693.464628	-3124.032500	1478.575195	-280.941376
30693.464628	-3124.032500	1477.511719	-276.979462
30693.464628	-3124.032500	1476.447266	-232.504623
30693.464628	-3124.032500	1475.382813	-160.886322
30693.464628	-3124.032500	1474.318359	-320.526184
30693.464628	-3124.032500	1473.253906	-22.153940
30693.464628	-3124.032500	1472.189453	69.877594
30693.464628	-3124.032500	1471.124023	-203.757217
30693.464628	-3124.032500	1470.058594	-241.715530
30693.464628	-3124.032500	1468.993164	2.983845
30693.464628	-3124.032500	1467.927734	-52.554920
30693.464628	-3124.032500	1466.861328	106.932755
30693.464628	-3124.032500	1465.794922	29.326406
30693.464628	-3124.032500	1464.728516	150.946991
30693.464628	-3124.032500	1463.662109	-168.120865
30693.464628	-3124.032500	1462.594727	99.118279
30693.464628	-3124.032500	1461.528320	170.116928
30693.464628	-3124.032500	1460.460938	230.849808
30693.464628	-3124.032500	1459.393555	125.332451
30693.464628	-3124.032500	1458.326172	211.668976
30693.464628	-3124.032500	1457.257813	436.716644
30693.464628	-3124.032500	1456.189453	487.490662
30693.464628	-3124.032500	1455.121094	414.587280
30693.464628	-3124.032500	1454.052734	566.501221
30693.464628	-3124.032500	1452.984375	641.988831
30693.464628	-3124.032500	1451.915039	471.083679
30693.464628	-3124.032500	1450.845703	430.944885
30693.464628	-3124.032500	1449.776367	501.588593
30693.464628	-3124.032500	1448.707031	734.579773
30693.464628	-3124.032500	1447.636719	724.712097
30693.464628	-3124.032500	1446.567383	816.069641
30693.464628	-3124.032500	1445.497070	865.385986
30693.464628	-3124.032500	1444.425781	735.691101
30693.464628	-3124.032500	1443.355469	571.201172
30693.464628	-3124.032500	1442.285156	681.274597
30693.464628	-3124.032500	1441.213867	968.293579
30693.464628	-3124.032500	1440.142578	914.650330
30693.464628	-3124.032500	1439.070313	1184.065308
30693.464628	-3124.032500	1437.999023	992.829468
30693.464628	-3124.032500	1436.926758	793.361755
30693.464628	-3124.032500	1435.854492	664.169128
30693.464628	-3124.032500	1434.782227	679.048889
30693.464628	-3124.032500	1433.709961	810.227844
30693.464628	-3124.032500	1432.636719	849.688782
30693.464628	-3124.032500	1431.563477	671.135315
30693.464628	-3124.032500	1430.490234	484.022919
30693.464628	-3124.032500	1429.416992	126.217102
30693.464628	-3124.032500	1428.343750	261.339203
30693.464628	-3124.032500	1427.269531	273.542419
30693.464628	-3124.032500	1426.195313	149.035660
30693.464628	-3124.032500	1425.121094	-69.764816
30693.464628	-3124.032500	1424.046875	293.445892
30693.464628	-3124.032500	1422.971680	365.596832
30693.464628	-3124.032500	1421.896484	88.370972
30693.464628	-3124.032500	1420.821289	633.237244
30693.464628	-3124.032500	1419.746094	136.863785
30693.464628	-3124.032500	1418.669922	203.066803
30693.464628	-3124.032500	1417.594727	203.534851
30693.464628	-3124.032500	1416.518555	393.423676
30693.464628	-3124.032500	1415.442383	407.442749
30693.464628	-3124.032500	1414.365234	272.037598
30693.464628	-3124.032500	1413.289063	402.218079
30693.464628	-3124.032500	1412.211914	143.726730
30693.464628	-3124.032500	1411.134766	179.204193
30693.464628	-3124.032500	1410.057617	341.488434
30693.464628	-3124.032500	1408.979492	225.168060
30693.464628	-3124.032500	1407.902344	342.515289
30693.464628	-3124.032500	1406.824219	670.947754
30693.464628	-3124.032500	1405.746094	425.222473
30693.464628	-3124.032500	1404.666992	273.661011
30693.464628	-3124.032500	1403.588867	189.124390
30693.464628	-3124.032500	1402.509766	496.417816
30693.464628	-3124.032500	1401.430664	172.411163
30693.464628	-3124.032500	1400.351563	300.358276
30693.464628	-3124.032500	1399.271484	200.341003
30693.464628	-3124.032500	1398.192383	516.929932
30693.464628	-3124.032500	1397.112305	375.915924
30693.464628	-3124.032500	1396.031250	42.422245
30693.464628	-3124.032500	1394.951172	65.559753
30693.464628	-3124.032500	1393.871094	258.892914
30693.464628	-3124.032500	1392.790039	119.494438
30693.464628	-3124.032500	1391.708984	368.940002
30693.464628	-3124.032500	1390.626953	173.163910
30693.464628	-3124.032500	1389.545898	174.293259
30693.464628	-3124.032500	1388.463867	270.734009
30693.464628	-3124.032500	1387.381836	315.112030
30693.464628	-3124.032500	1386.299805	98.952538
30693.464628	-3124.032500	1385.217773	83.817764
30693.464628	-3124.032500	1384.134766	230.976669
30693.464628	-3124.032500	1383.051758	165.310440
30693.464628	-3124.032500	1381.968750	171.541443
30693.464628	-3124.032500	1380.885742	403.556152
30693.464628	-3124.032500	1379.802734	316.336670
30693.464628	-3124.032500	1378.718750	123.527489
30693.464628	-3124.032500	1377.634766	448.382172
30693.464628	-3124.032500	1376.550781	286.746063
30693.464628	-3124.032500	1375.465820	48.228874
30693.464628	-3124.032500	1374.381836	179.069290
30693.464628	-3124.032500	1373.296875	102.819130
30693.464628	-3124.032500	1372.211914	82.444145
30693.464628	-3124.032500	1371.126953	106.693962
30693.464628	-3124.032500	1370.041016	65.805710
30693.464628	-3124.032500	1368.955078	110.317047
30693.464628	-3124.032500	1367.869141	73.352524
30693.464628	-3124.032500	1366.783203	105.483963
30693.464628	-3124.032500	1365.697266	158.964813
30693.464628	-3124.032500	1364.610352	374.454590
30693.464628	-3124.032500	1363.523438	230.296982
30693.464628	-3124.032500	1362.436523	125.352760
30693.464628	-3124.032500	1361.349609	282.832367
30693.464628	-3124.032500	1360.261719	105.934845
30693.464628	-3124.032500	1359.174805	165.688385
30693.464628	-3124.032500	1358.086914	273.899872
30693.464628	-3124.032500	1356.998047	-13.171192
30693.464628	-3124.032500	1355.910156	84.324997
30693.464628	-3124.032500	1354.821289	191.539673
30693.464628	-3124.032500	1353.732422	12.520410
30693.464628	-3124.032500	1352.643555	121.311501
30693.464628	-3124.032500	1351.554688	-32.148216
30693.464628	-3124.032500	1350.464844	-86.977180
30693.464628	-3124.032500	1349.375000	-247.202545
30693.464628	-3124.032500	1348.285156	133.188690
30693.464628	-3124.032500	1347.195313	41.352108
30693.464628	-3124.032500	1346.105469	-3.976643
30693.464628	-3124.032500	1345.014648	-159.497543
30693.464628	-3124.032500	1343.923828	-199.128998
30693.464628	-3124.032500	1342.833008	46.421246
30693.464628	-3124.032500	1341.741211	70.369514
30693.464628	-3124.032500	1340.650391	206.335754
30693.464628	-3124.032500	1339.558594	354.122559
30693.464628	-3124.032500	1338.466797	167.853897
30693.464628	-3124.032500	1337.374023	556.039429
30693.464628	-3124.032500	1336.282227	199.452576
30693.464628	-3124.032500	1335.189453	375.050934
30693.464628	-3124.032500	1334.096680	236.766647
30693.464628	-3124.032500	1333.003906	476.563751
30693.464628	-3124.032500	1331.910156	188.671066
30693.464628	-3124.032500	1330.817383	152.062103
30693.464628	-3124.032500	1329.723633	152.148590
30693.464628	-3124.032500	1328.629883	290.530060
30693.464628	-3124.032500	1327.535156	82.726715
30693.464628	-3124.032500	1326.441406	223.754196
30693.464628	-3124.032500	1325.346680	-34.301208
30693.464628	-3124.032500	1324.251953	288.839294
30693.464628	-3124.032500	1323.156250	185.077118
30693.464628	-3124.032500	1322.061523	304.141907
30693.464628	-3124.032500	1320.965820	319.021088
30693.464628	-3124.032500	1319.870117	165.909027
30693.464628	-3124.032500	1318.774414	181.505951
30693.464628	-3124.032500	1317.678711	229.609711
30693.464628	-3124.032500	1316.582031	176.860504
30693.464628	-3124.032500	1315.485352	484.073364
30693.464628	-3124.032500	1314.388672	398.038330
30693.464628	-3124.032500	1313.291016	283.792297
30693.464628	-3124.032500	1312.194336	277.885498
30693.464628	-3124.032500	1311.096680	322.175964
30693.464628	-3124.032500	1309.999023	271.185333
30693.464628	-3124.032500	1308.901367	265.980927
30693.464628	-3124.032500	1307.802734	400.853882
30693.464628	-3124.032500	1306.705078	381.914154
30693.464628	-3124.032500	1305.606445	366.811523
30693.464628	-3124.032500	1304.506836	211.949524
30693.464628	-3124.032500	1303.408203	13.929675
30693.464628	-3124.032500	1302.308594	143.693314
30693.464628	-3124.032500	1301.208984	163.237915
30693.464628	-3124.032500	1300.109375	176.109207
30693.464628	-3124.032500	1299.009766	251.665466
30693.464628	-3124.032500	1297.909180	244.305908
30693.464628	-3124.032500	1296.808594	258.039337
30693.464628	-3124.032500	1295.708008	201.872467
30693.464628	-3124.032500	1294.607422	77.542389
30693.464628	-3124.032500	1293.506836	-171.897339
30693.464628	-3124.032500	1292.405273	-103.764023
30693.464628	-3124.032500	1291.303711	-7.791383
30693.464628	-3124.032500	1290.202148	-83.566551
30693.464628	-3124.032500	1289.099609	-93.068733
30693.464628	-3124.032500	1287.998047	-170.764877
30693.464628	-3124.032500	1286.895508	-137.536011
30693.464628	-3124.032500	1285.792969	-293.313507
30693.464628	-3124.032500	1284.689453	-346.834167
30693.464628	-3124.032500	1283.586914	-214.377975
30693.464628	-3124.032500	1282.483398	-156.727814
30693.464628	-3124.032500	1281.379883	-214.473557
30693.464628	-3124.032500	1280.276367	-382.446503
30693.464628	-3124.032500	1279.171875	-230.307037
30693.464628	-3124.032500	1278.067383	-257.346375
30693.464628	-3124.032500	1276.962891	-167.311874
30693.464628	-3124.032500	1275.858398	-269.177429
30693.464628	-3124.032500	1274.753906	-244.055664
30693.464628	-3124.032500	1273.648438	-261.698486
30693.464628	-3124.032500	1272.542969	-318.065399
30693.464628	-3124.032500	1271.437500	-462.196747
30693.464628	-3124.032500	1270.331055	-244.354095
30693.464628	-3124.032500	1269.225586	-194.584503
30693.464628	-3124.032500	1268.119141	-359.314117
30693.464628	-3124.032500	1267.012695	-95.602272
30693.464628	-3124.032500	1265.906250	-208.893646
30693.464628	-3124.032500	1264.798828	-224.000427
30693.464628	-3124.032500	1263.691406	-82.509422
30693.464628	-3124.032500	1262.583984	-103.150482
30693.464628	-3124.032500	1261.476563	128.793839
30693.464628	-3124.032500	1260.368164	-25.568586
30693.464628	-3124.032500	1259.260742	-304.459381
30693.464628	-3124.032500	1258.152344	-9.222000
30693.464628	-3124.032500	1257.043945	322.406097
30693.464628	-3124.032500	1255.934570	4.263358
30693.464628	-3124.032500	1254.825195	-52.598694
30693.464628	-3124.032500	1253.716797	-205.573990
30693.464628	-3124.032500	1252.606445	20.494373
30693.464628	-3124.032500	1251.497070	249.272980
30693.464628	-3124.032500	1250.387695	-31.870337
30693.464628	-3124.032500	1249.277344	51.850288
30693.464628	-3124.032500	1248.166992	117.132668
30693.464628	-3124.032500	1247.055664	151.430695
30693.464628	-3124.032500	1245.945313	128.309128
30693.464628	-3124.032500	1244.833984	19.749392
30693.464628	-3124.032500	1243.722656	207.269485
30693.464628	-3124.032500	1242.611328	88.125885
30693.464628	-3124.032500	1241.499023	195.530380
30693.464628	-3124.032500	1240.387695	87.902992
30693.464628	-3124.032500	1239.275391	120.707748
30693.464628	-3124.032500	1238.162109	39.296852
30693.464628	-3124.032500	1237.049805	220.471100
30693.464628	-3124.032500	1235.936523	299.075439
30693.464628	-3124.032500	1234.823242	135.528152
30693.464628	-3124.032500	1233.709961	254.665771
30693.464628	-3124.032500	1232.596680	332.094360
30693.464628	-3124.032500	1231.482422	40.185982
30693.464628	-3124.032500	1230.369141	35.116322
30693.464628	-3124.032500	1229.253906	86.332329
30693.464628	-3124.032500	1228.139648	198.962494
30693.464628	-3124.032500	1227.025391	172.728455
30693.464628	-3124.032500	1225.910156	249.926117
30693.464628	-3124.032500	1224.794922	120.571342
30693.464628	-3124.032500	1223.679688	-3.579393
30693.464628	-3124.032500	1222.563477	-0.929430
30693.464628	-3124.032500	1221.447266	79.111343
30693.464628	-3124.032500	1220.331055	-35.005291
30693.464628	-3124.032500	1219.214844	85.024025
30693.464628	-3124.032500	1218.098633	28.082727
30693.464628	-3124.032500	1216.981445	17.046741
30693.464628	-3124.032500	1215.864258	1.432001
30693.464628	-3124.032500	1214.747070	11.459839
30693.464628	-3124.032500	1213.629883	98.941437
30693.464628	-3124.032500	1212.511719	107.701904
30693.464628	-3124.032500	1211.393555	157.134171
30693.464628	-3124.032500	1210.275391	32.225227
30693.464628	-3124.032500	1209.157227	71.764771
30693.464628	-3124.032500	1208.038086	159.366928
30693.464628	-3124.032500	1206.918945	184.483292
30693.464628	-3124.032500	1205.799805	105.003204
30693.464628	-3124.032500	1204.680664	258.677338
30693.464628	-3124.032500	1203.560547	224.561127
30693.464628	-3124.032500	1202.441406	-117.538307
30693.464628	-3124.032500	1201.321289	121.268547
30693.464628	-3124.032500	1200.200195	25.060408
30693.464628	-3124.032500	1199.080078	-64.238243
30693.464628	-3124.032500	1197.958984	-20.048595
30693.464628	-3124.032500	1196.837891	-96.145355
30693.464628	-3124.032500	1195.716797	-63.000462
30693.464628	-3124.032500	1194.594727	-174.820389
30693.464628	-3124.032500	1193.473633	2.768898
30693.464628	-3124.032500	1192.351563	99.779510
30693.464628	-3124.032500	1191.229492	-99.322830
30693.464628	-3124.032500	1190.106445	-38.676338
30693.464628	-3124.032500	1188.984375	-132.439896
30693.464628	-3124.032500	1187.861328	-157.320389
30693.464628	-3124.032500	1186.738281	0.675403
30693.464628	-3124.032500	1185.614258	12.418909
30693.464628	-3124.032500	1184.491211	86.944946
30693.464628	-3124.032500	1183.367188	-57.936089
30693.464628	-3124.032500	1182.243164	123.208672
30693.464628	-3124.032500	1181.119141	80.165192
30693.464628	-3124.032500	1179.994141	62.853516
30693.464628	-3124.032500	1178.869141	99.013313
30693.464628	-3124.032500	1177.744141	34.678612
30693.464628	-3124.032500	1176.619141	0.580700
30693.464628	-3124.032500	1175.493164	138.879715
30693.464628	-3124.032500	1174.368164	160.742233
30693.464628	-3124.032500	1173.242188	-8.592439
30693.464628	-3124.032500	1172.115234	-22.863817
30693.464628	-3124.032500	1170.989258	-16.119841
30693.464628	-3124.032500	1169.862305	41.319923
30693.464628	-3124.032500	1168.735352	-2.952773
30693.464628	-3124.032500	1167.608398	-75.562035
30693.464628	-3124.032500	1166.481445	-96.782349
30693.464628	-3124.032500	1165.353516	-99.703987
30693.464628	-3124.032500	1164.225586	140.450592
30693.464628	-3124.032500	1163.097656	-23.454372
30693.464628	-3124.032500	1161.968750	20.205511
30693.464628	-3124.032500	1160.840820	43.582653
30693.464628	-3124.032500	1159.711914	-36.825111
30693.464628	-3124.032500	1158.583008	-193.806290
30693.464628	-3124.032500	1157.453125	-67.660507
30693.464628	-3124.032500	1156.324219	-56.605907
30693.464628	-3124.032500	1155.194336	-63.608021
30693.464628	-3124.032500	1154.064453	-116.691376
30693.464628	-3124.032500	1152.933594	-238.432205
30693.464628	-3124.032500	1151.803711	-300.764862
30693.464628	-3124.032500	1150.672852	-169.499115
30693.464628	-3124.032500	1149.541992	-269.570343
30693.464628	-3124.032500	1148.411133	-65.264549
30693.464628	-3124.032500	1147.279297	-83.812561
30693.464628	-3124.032500	1146.147461	-200.116287
30693.464628	-3124.032500	1145.015625	-104.487122
30693.464628	-3124.032500	1143.883789	-84.479591
30693.464628	-3124.032500	1142.750977	-179.663635
30693.464628	-3124.032500	1141.619141	-290.873596
30693.464628	-3124.032500	1140.486328	-75.723175
30693.464628	-3124.032500	1139.352539	-4.742666
30693.464628	-3124.032500	1138.219727	181.486023
30693.464628	-3124.032500	1137.085938	-131.462738
30693.464628	-3124.032500	1135.952148	-44.186382
30693.464628	-3124.032500	1134.818359	-10.393648
30693.464628	-3124.032500	1133.683594	444.806915
30693.464628	-3124.032500	1132.549805	280.470032
30693.464628	-3124.032500	1131.415039	528.814819
30693.464628	-3124.032500	1130.279297	606.742737
30693.464628	-3124.032500	1129.144531	781.385071
30693.464628	-3124.032500	1128.008789	806.103210
30693.464628	-3124.032500	1126.873047	761.329651
30693.464628	-3124.032500	1125.737305	867.102966
30693.464628	-3124.032500	1124.601563	909.924377
30693.464628	-3124.032500	1123.464844	606.054932
30693.464628	-3124.032500	1122.328125	691.962708
30693.464628	-3124.032500	1121.191406	651.086609
30693.464628	-3124.032500	1120.054688	677.324524
30693.464628	-3124.032500	1118.916992	604.317993
30693.464628	-3124.032500	1117.779297	665.564880
30693.464628	-3124.032500	1116.641602	614.845886
30693.464628	-3124.032500	1115.503906	517.031555
30693.464628	-3124.032500	1114.365234	502.534698
30693.464628	-3124.032500	1113.226563	431.929688
30693.464628	-3124.032500	1112.087891	415.133057
30693.464628	-3124.032500	1110.949219	456.381683
30693.464628	-3124.032500	1109.809570	564.786194
30693.464628	-3124.032500	1108.669922	380.886353
30693.464628	-3124.032500	1107.530273	306.244141
30693.464628	-3124.032500	1106.390625	421.927612
30693.464628	-3124.032500	1105.250000	604.381042
30693.464628	-3124.032500	1104.109375	501.137756
30693.464628	-3124.032500	1102.968750	577.553833
30693.464628	-3124.032500	1101.828125	569.916077
30693.464628	-3124.032500	1100.686523	683.658630
30693.464628	-3124.032500	1099.544922	470.727478
30693.464628	-3124.032500	1098.403320	569.106567
30693.464628	-3124.032500	1097.261719	529.742004
30693.464628	-3124.032500	1096.120117	712.778992
30693.464628	-3124.032500	1094.977539	644.791016
30693.464628	-3124.032500	1093.834961	560.044800
30693.464628	-3124.032500	1092.691406	434.993530
30693.464628	-3124.032500	1091.548828	529.374634
30693.464628	-3124.032500	1090.405273	413.241119
30693.464628	-3124.032500	1089.261719	253.249786
30693.464628	-3124.032500	1088.118164	298.918030
30693.464628	-3124.032500	1086.973633	412.010223
30693.464628	-3124.032500	1085.829102	341.255707
30693.464628	-3124.032500	1084.684570	511.950287
30693.464628	-3124.032500	1083.540039	386.636841
30693.464628	-3124.032500	1082.395508	461.754730
30693.464628	-3124.032500	1081.250000	314.947815
30693.464628	-3124.032500	1080.104492	252.202789
30693.464628	-3124.032500	1078.958984	600.421997
30693.464628	-3124.032500	1077.812500	477.166016
30693.464628	-3124.032500	1076.666016	134.277390
30693.464628	-3124.032500	1075.519531	363.736603
30693.464628	-3124.032500	1074.373047	477.222382
30693.464628	-3124.032500	1073.226563	508.316864
30693.464628	-3124.032500	1072.079102	518.265686
30693.464628	-3124.032500	1070.931641	418.301636
30693.464628	-3124.032500	1069.784180	289.736328
30693.464628	-3124.032500	1068.635742	334.947083
30693.464628	-3124.032500	1067.487305	727.571228
30693.464628	-3124.032500	1066.338867	644.159790
30693.464628	-3124.032500	1065.190430	680.779236
30693.464628	-3124.032500	1064.041992	686.468872
30693.464628	-3124.032500	1062.892578	773.250000
30693.464628	-3124.032500	1061.743164	646.832947
30693.464628	-3124.032500	1060.593750	760.163269
30693.464628	-3124.032500	1059.443359	697.512024
30693.464628	-3124.032500	1058.292969	648.121094
30693.464628	-3124.032500	1057.142578	402.524872
30693.464628	-3124.032500	1055.992188	783.560547
30693.464628	-3124.032500	1054.841797	516.016541
30693.464628	-3124.032500	1053.690430	522.520081
30693.464628	-3124.032500	1052.539063	669.112244
30693.464628	-3124.032500	1051.387695	539.150879
30693.464628	-3124.032500	1050.235352	402.393799
30693.464628	-3124.032500	1049.083984	296.502075
30693.464628	-3124.032500	1047.931641	387.878632
30693.464628	-3124.032500	1046.778320	331.282440
30693.464628	-3124.032500	1045.625977	307.780365
30693.464628	-3124.032500	1044.472656	479.606903
30693.464628	-3124.032500	1043.319336	396.776794
30693.464628	-3124.032500	1042.166016	448.545319
30693.464628	-3124.032500	1041.012695	65.966667
30693.464628	-3124.032500	1039.858398	237.857559
30693.464628	-3124.032500	1038.704102	381.827820
30693.464628	-3124.032500	1037.549805	442.403381
30693.464628	-3124.032500	1036.394531	340.412415
30693.464628	-3124.032500	1035.239258	481.266846
30693.464628	-3124.032500	1034.083984	459.722076
30693.464628	-3124.032500	1032.928711	357.527710
30693.464628	-3124.032500	1031.773438	489.626678
30693.464628	-3124.032500	1030.617188	673.916199
30693.464628	-3124.032500	1029.460938	795.403320
30693.464628	-3124.032500	1028.304688	579.950073
30693.464628	-3124.032500	1027.147461	596.726807
30693.464628	-3124.032500	1025.991211	441.123047
30693.464628	-3124.032500	1024.833984	332.221100
30693.464628	-3124.032500	1023.675781	282.397308
30693.464628	-3124.032500	1022.518555	253.086685
30693.464628	-3124.032500	1021.360352	350.899353
30693.464628	-3124.032500	1020.202148	450.305176
30693.464628	-3124.032500	1019.043945	165.047043
30693.464628	-3124.032500	1017.884766	-15.728650
30693.464628	-3124.032500	1016.726563	227.197128
30693.464628	-3124.032500	1015.567383	307.703339
30693.464628	-3124.032500	1014.407227	91.604942
30693.464628	-3124.032500	1013.248047	100.250397
30693.464628	-3124.032500	1012.087891	184.134415
30693.464628	-3124.032500	1010.927734	-76.370079
30693.464628	-3124.032500	1009.767578	144.985748
30693.464628	-3124.032500	1008.606445	127.848755
30693.464628	-3124.032500	1007.446289	279.747894
30693.464628	-3124.032500	1006.285156	108.060982
30693.464628	-3124.032500	1005.123047	210.701706
30693.464628	-3124.032500	1003.961914	102.329391
30693.464628	-3124.032500	1002.799805	405.303864
30693.464628	-3124.032500	1001.637695	231.426437
30693.464628	-3124.032500	1000.475586	108.777107
30693.464628	-3124.032500	999.312500	251.092056
30693.464628	-3124.032500	998.149414	11.173861
30693.464628	-3124.032500	996.986328	312.330048
30693.464628	-3124.032500	995.823242	298.621094
30693.464628	-3124.032500	994.659180	362.113068
30693.464628	-3124.032500	993.496094	205.372864
30693.464628	-3124.032500	992.332031	260.580414
30693.464628	-3124.032500	991.166992	282.939606
30693.464628	-3124.032500	990.002930	62.353725
30693.464628	-3124.032500	988.837891	230.118530
30693.464628	-3124.032500	987.672852	-11.665840
30693.464628	-3124.032500	986.506836	16.058430
30693.464628	-3124.032500	985.341797	221.909027
30693.464628	-3124.032500	984.175781	73.719345
30693.464628	-3124.032500	983.009766	134.562439
30693.464628	-3124.032500	981.843750	88.071152
30693.464628	-3124.032500	980.676758	-9.890299
30693.464628	-3124.032500	979.509766	-130.298477
30693.464628	-3124.032500	978.342773	109.061523
30693.464628	-3124.032500	977.175781	73.543266
30693.464628	-3124.032500	976.007813	-190.068329
30693.464628	-3124.032500	974.839844	135.410599
30693.464628	-3124.032500	973.671875	-30.079462
30693.464628	-3124.032500	972.503906	-30.355808
30693.464628	-3124.032500	971.334961	-51.477459
30693.464628	-3124.032500	970.166016	330.011139
30693.464628	-3124.032500	968.997070	64.315201
30693.464628	-3124.032500	967.828125	181.706268
30693.464628	-3124.032500	966.658203	189.076340
30693.464628	-3124.032500	965.488281	278.460297
30693.464628	-3124.032500	964.318359	114.104324
30693.464628	-3124.032500	963.148438	330.339600
30693.464628	-3124.032500	961.977539	428.182983
30693.464628	-3124.032500	960.806641	161.512253
30693.464628	-3124.032500	959.635742	284.191864
30693.464628	-3124.032500	958.463867	307.303894
30693.464628	-3124.032500	957.292969	445.900238
30693.464628	-3124.032500	956.121094	547.402832
30693.464628	-3124.032500	954.948242	341.982605
30693.464628	-3124.032500	953.776367	239.547134
30693.464628	-3124.032500	952.603516	262.987823
30693.464628	-3124.032500	951.430664	316.030548
30693.464628	-3124.032500	950.257813	175.976212
30693.464628	-3124.032500	949.084961	200.323013
30693.464628	-3124.032500	947.911133	222.572678
30693.464628	-3124.032500	946.737305	338.829163
30693.464628	-3124.032500	945.563477	186.296677
30693.464628	-3124.032500	944.388672	416.913422
30693.464628	-3124.032500	943.213867	447.527527
30693.464628	-3124.032500	942.039063	105.354980
30693.464628	-3124.032500	940.864258	165.789474
30693.464628	-3124.032500	939.688477	128.374512
30693.464628	-3124.032500	938.513672	56.560535
30693.464628	-3124.032500	937.337891	153.077988
30693.464628	-3124.032500	936.161133	119.799973
30693.464628	-3124.032500	934.985352	225.133087
30693.464628	-3124.032500	933.808594	353.273499
30693.464628	-3124.032500	932.631836	186.186752
30693.464628	-3124.032500	931.454102	271.246307
30693.464628	-3124.032500	930.277344	310.584473
30693.464628	-3124.032500	929.099609	61.757637
30693.464628	-3124.032500	927.921875	357.620056
30693.464628	-3124.032500	926.743164	474.076385
30693.464628	-3124.032500	925.565430	413.567627
30693.464628	-3124.032500	924.386719	187.491806
30693.464628	-3124.032500	923.208008	247.216934
30693.464628	-3124.032500	922.028320	-58.128807
30693.464628	-3124.032500	920.849609	334.858612
30693.464628	-3124.032500	919.669922	338.563385
30693.464628	-3124.032500	919.474609	100.466728
30693.464628	-3124.032500	918.309570	128.363510
30693.464628	-3124.032500	917.143555	79.210556
30693.464628	-3124.032500	915.977539	-151.144577
30693.464628	-3124.032500	914.810547	14.910519
30693.464628	-3124.032500	913.644531	119.753578
30693.464628	-3124.032500	912.477539	-94.641586
30693.464628	-3124.032500	911.310547	82.597969
30693.464628	-3124.032500	910.143555	-88.719185
30693.464628	-3124.032500	908.975586	-29.202360
30693.464628	-3124.032500	907.807617	-3.642694
30693.464628	-3124.032500	906.639648	98.796692
30693.464628	-3124.032500	905.471680	56.486832
30693.464628	-3124.032500	904.303711	-270.633850
30693.464628	-3124.032500	903.134766	195.673935
30693.464628	-3124.032500	901.965820	-18.354647
30693.464628	-3124.032500	900.796875	18.473705
30693.464628	-3124.032500	899.626953	-116.367393
30693.464628	-3124.032500	898.457031	62.747849
30693.464628	-3124.032500	897.287109	-212.020508
30693.464628	-3124.032500	896.117188	-93.895256
30693.464628	-3124.032500	894.947266	-52.544487
30693.464628	-3124.032500	893.776367	149.005386
30693.464628	-3124.032500	892.605469	208.356674
30693.464628	-3124.032500	891.434570	222.583405
30693.464628	-3124.032500	890.262695	257.114258
30693.464628	-3124.032500	889.091797	-19.492611
30693.464628	-3124.032500	887.919922	-39.002758
30693.464628	-3124.032500	886.748047	-60.745628
30693.464628	-3124.032500	885.575195	-12.613852
30693.464628	-3124.032500	884.403320	3.971111
30693.464628	-3124.032500	883.230469	13.810146
30693.464628	-3124.032500	882.057617	79.956535
30693.464628	-3124.032500	880.883789	83.057678
30693.464628	-3124.032500	879.710938	-219.949631
30693.464628	-3124.032500	878.537109	-32.218555
30693.464628	-3124.032500	877.362305	78.959618
30693.464628	-3124.032500	876.188477	-61.837837
30693.464628	-3124.032500	875.013672	-78.855820
30693.464628	-3124.032500	873.839844	45.810001
30693.464628	-3124.032500	872.664063	-85.832954
30693.464628	-3124.032500	871.489258	-69.057518
30693.464628	-3124.032500	870.313477	105.040909
30693.464628	-3124.032500	869.138672	20.711182
30693.464628	-3124.032500	867.962891	163.318863
30693.464628	-3124.032500	866.786133	117.245407
30693.464628	-3124.032500	865.610352	196.952393
30693.464628	-3124.032500	864.433594	-17.426947
30693.464628	-3124.032500	863.256836	53.350594
30693.464628	-3124.032500	862.079102	-23.972794
30693.464628	-3124.032500	860.902344	-161.817581
30693.464628	-3124.032500	859.724609	-209.852203
30693.464628	-3124.032500	858.546875	-165.893173
30693.464628	-3124.032500	857.368164	-0.845736
30693.464628	-3124.032500	856.190430	-60.008533
30693.464628	-3124.032500	855.011719	131.902252
30693.464628	-3124.032500	853.833008	-84.056023
30693.464628	-3124.032500	852.654297	-102.750206
30693.464628	-3124.032500	851.474609	-204.276917
30693.464628	-3124.032500	850.294922	-97.468575
30693.464628	-3124.032500	849.115234	-102.620796
30693.464628	-3124.032500	847.935547	33.283279
30693.464628	-3124.032500	846.754883	-83.727943
30693.464628	-3124.032500	845.575195	-39.561131
30693.464628	-3124.032500	844.393555	-109.464523
30693.464628	-3124.032500	843.212891	165.128860
30693.464628	-3124.032500	842.032227	-105.983070
30693.464628	-3124.032500	840.850586	-184.677185
30693.464628	-3124.032500	839.668945	286.563354
30693.464628	-3124.032500	838.486328	196.715195
30693.464628	-3124.032500	837.304688	13.090961
30693.464628	-3124.032500	836.122070	-43.091465
30693.464628	-3124.032500	834.939453	-134.952179
30693.464628	-3124.032500	833.756836	-255.771408
30693.464628	-3124.032500	832.573242	-135.395676
30693.464628	-3124.032500	831.389648	-88.693268
30693.464628	-3124.032500	830.206055	4.885594
30693.464628	-3124.032500	829.022461	-86.723595
30693.464628	-3124.032500	827.838867	-216.183029
30693.464628	-3124.032500	826.654297	-276.417297
30693.464628	-3124.032500	825.469727	-245.174820
30693.464628	-3124.032500	824.284180	-113.592102
30693.464628	-3124.032500	823.099609	-160.340836
30693.464628	-3124.032500	821.914063	-133.497665
30693.464628	-3124.032500	820.728516	6.988635
30693.464628	-3124.032500	819.542969	-233.442688
30693.464628	-3124.032500	818.356445	-371.297302
30693.464628	-3124.032500	817.169922	-197.353165
30693.464628	-3124.032500	815.983398	-154.786407
30693.464628	-3124.032500	814.796875	-16.506468
30693.464628	-3124.032500	813.609375	95.050346
30693.464628	-3124.032500	812.422852	46.409939
30693.464628	-3124.032500	811.235352	75.670738
30693.464628	-3124.032500	810.046875	142.758209
30693.464628	-3124.032500	808.859375	-41.390808
30693.464628	-3124.032500	807.670898	-20.929779
30693.464628	-3124.032500	806.482422	81.778893
30693.464628	-3124.032500	805.293945	-91.044563
30693.464628	-3124.032500	804.104492	-228.221207
30693.464628	-3124.032500	802.915039	-23.281530
30693.464628	-3124.032500	801.725586	-33.792496
30693.464628	-3124.032500	800.536133	-221.879654
30693.464628	-3124.032500	799.345703	-132.406067
30693.464628	-3124.032500	798.155273	-156.123123
30693.464628	-3124.032500	796.964844	-168.712082
30693.464628	-3124.032500	795.774414	-121.380653
30693.464628	-3124.032500	794.583008	-54.081726
30693.464628	-3124.032500	793.392578	-93.224014
30693.464628	-3124.032500	792.200195	38.378090
30693.464628	-3124.032500	791.008789	138.912537
30693.464628	-3124.032500	789.816406	-243.645935
30693.464628	-3124.032500	788.625000	36.398239
30693.464628	-3124.032500	787.432617	-120.011429
30693.464628	-3124.032500	786.239258	-125.742897
30693.464628	-3124.032500	785.046875	-107.104660
30693.464628	-3124.032500	783.853516	-159.289902
30693.464628	-3124.032500	782.660156	-226.932343
30693.464628	-3124.032500	781.465820	-245.846298
30693.464628	-3124.032500	780.272461	-23.607027
30693.464628	-3124.032500	779.078125	110.084465
30693.464628	-3124.032500	777.883789	-132.198624
30693.464628	-3124.032500	776.688477	-195.283371
30693.464628	-3124.032500	775.494141	-37.294006
30693.464628	-3124.032500	774.298828	-148.974518
30693.464628	-3124.032500	773.103516	143.740356
30693.464628	-3124.032500	771.907227	-104.873978
30693.464628	-3124.032500	770.711914	-11.052218
30693.464628	-3124.032500	769.515625	239.516281
30693.464628	-3124.032500	768.318359	-4.530936
30693.464628	-3124.032500	767.122070	-82.938400
30693.464628	-3124.032500	765.924805	189.567352
30693.464628	-3124.032500	764.727539	-255.090149
30693.464628	-3124.032500	763.530273	83.510727
30693.464628	-3124.032500	762.333008	36.025021
30693.464628	-3124.032500	761.134766	151.724045
30693.464628	-3124.032500	759.936523	-116.207024
30693.464628	-3124.032500	758.738281	56.767628
30693.464628	-3124.032500	757.540039	130.502182
30693.464628	-3124.032500	756.340820	14.735639
30693.464628	-3124.032500	755.141602	106.053490
30693.464628	-3124.032500	753.942383	135.661438
30693.464628	-3124.032500	752.742188	224.693863
30693.464628	-3124.032500	751.541992	234.428665
30693.464628	-3124.032500	750.341797	50.473801
30693.464628	-3124.032500	749.141602	44.804424
30693.464628	-3124.032500	747.941406	107.314621
30693.464628	-3124.032500	746.740234	-28.164095
30693.464628	-3124.032500	745.539063	34.297497
30693.464628	-3124.032500	744.337891	-30.804029
30693.464628	-3124.032500	743.135742	46.974064
30693.464628	-3124.032500	741.933594	-0.568878
30693.464628	-3124.032500	740.731445	147.424026
30693.464628	-3124.032500	739.529297	-100.075119
30693.464628	-3124.032500	738.326172	67.586220
30693.464628	-3124.032500	737.124023	160.484039
30693.464628	-3124.032500	735.919922	53.546711
30693.464628	-3124.032500	734.716797	30.016535
30693.464628	-3124.032500	733.513672	243.451248
30693.464628	-3124.032500	732.309570	169.358643
30693.464628	-3124.032500	731.105469	332.149506
30693.464628	-3124.032500	729.900391	330.358887
30693.464628	-3124.032500	728.696289	142.154938
30693.464628	-3124.032500	727.491211	263.070251
30693.464628	-3124.032500	726.286133	158.151413
30693.464628	-3124.032500	725.080078	191.274124
30693.464628	-3124.032500	723.874023	18.404985
30693.464628	-3124.032500	722.668945	235.415054
30693.464628	-3124.032500	721.461914	161.046677
30693.464628	-3124.032500	720.255859	3.453512
30693.464628	-3124.032500	719.048828	143.559097
30693.464628	-3124.032500	717.841797	-73.164886
30693.464628	-3124.032500	716.634766	-20.741671
30693.464628	-3124.032500	715.427734	57.845570
30693.464628	-3124.032500	714.219727	291.618469
30693.464628	-3124.032500	713.011719	243.158264
30693.464628	-3124.032500	711.803711	196.834259
30693.464628	-3124.032500	710.594727	246.632782
30693.464628	-3124.032500	709.385742	73.445717
30693.464628	-3124.032500	708.176758	245.448074
30693.464628	-3124.032500	706.967773	323.377350
30693.464628	-3124.032500	705.758789	219.937790
30693.464628	-3124.032500	704.548828	365.369293
30693.464628	-3124.032500	703.338867	290.184204
30693.464628	-3124.032500	702.127930	278.241333
30693.464628	-3124.032500	700.917969	333.856628
30693.464628	-3124.032500	699.707031	238.838409
30693.464628	-3124.032500	698.496094	209.203171
30693.464628	-3124.032500	697.285156	135.876846
30693.464628	-3124.032500	696.073242	293.589050
30693.464628	-3124.032500	694.861328	183.036163
30693.464628	-3124.032500	693.649414	148.706650
30693.464628	-3124.032500	692.436523	364.858215
30693.464628	-3124.032500	691.224609	123.364601
30693.464628	-3124.032500	690.011719	147.573959
30693.464628	-3124.032500	688.798828	439.492645
30693.464628	-3124.032500	687.584961	313.208130
30693.464628	-3124.032500	686.372070	419.752045
30693.464628	-3124.032500	685.158203	395.582275
30693.464628	-3124.032500	683.943359	286.465332
30693.464628	-3124.032500	682.729492	355.639526
30693.464628	-3124.032500	681.514648	363.780884
30693.464628	-3124.032500	680.299805	360.930634
30693.464628	-3124.032500	679.084961	192.757950
30693.464628	-3124.032500	677.869141	409.211914
30693.464628	-3124.032500	676.653320	514.636780
30693.464628	-3124.032500	675.437500	300.553314
30693.464628	-3124.032500	674.221680	529.507690
30693.464628	-3124.032500	673.004883	551.949646
30693.464628	-3124.032500	671.789063	361.492340
30693.464628	-3124.032500	670.571289	388.042511
30693.464628	-3124.032500	669.354492	345.004639
30693.464628	-3124.032500	668.136719	531.833984
30693.464628	-3124.032500	666.919922	497.190460
30693.464628	-3124.032500	665.701172	395.194489
30693.464628	-3124.032500	664.483398	395.011627
30693.464628	-3124.032500	663.264648	368.673492
30693.464628	-3124.032500	662.045898	517.759094
30693.464628	-3124.032500	660.827148	495.454437
30693.464628	-3124.032500	659.608398	414.518799
30693.464628	-3124.032500	658.388672	638.872375
30693.464628	-3124.032500	657.168945	626.941528
30693.464628	-3124.032500	655.949219	391.862427
30693.464628	-3124.032500	654.728516	379.685883
30693.464628	-3124.032500	653.507813	553.477295
30693.464628	-3124.032500	652.287109	296.465698
30693.464628	-3124.032500	651.066406	383.360779
30693.464628	-3124.032500	649.844727	355.432617
30693.464628	-3124.032500	648.623047	409.526428
30693.464628	-3124.032500	647.401367	541.263062
30693.464628	-3124.032500	646.179688	422.058228
30693.464628	-3124.032500	644.957031	536.122070
30693.464628	-3124.032500	643.734375	323.738953
30693.464628	-3124.032500	642.511719	575.687927
30693.464628	-3124.032500	641.289063	553.095825
30693.464628	-3124.032500	640.065430	601.594299
30693.464628	-3124.032500	638.841797	464.256287
30693.464628	-3124.032500	637.618164	441.192108
30693.464628	-3124.032500	636.393555	236.711761
30693.464628	-3124.032500	635.168945	467.918060
30693.464628	-3124.032500	633.944336	405.522949
30693.464628	-3124.032500	632.719727	358.073364
30693.464628	-3124.032500	631.494141	424.728516
30693.464628	-3124.032500	630.269531	335.988556
30693.464628	-3124.032500	629.042969	335.456482
30693.464628	-3124.032500	627.817383	227.020920
30693.464628	-3124.032500	626.590820	280.005402
30693.464628	-3124.032500	625.365234	362.941681
30693.464628	-3124.032500	624.137695	320.768066
30693.464628	-3124.032500	622.911133	401.139709
30693.464628	-3124.032500	621.683594	40.075394
30693.464628	-3124.032500	620.456055	324.523804
30693.464628	-3124.032500	619.228516	251.542038
30693.464628	-3124.032500	618.000977	436.513397
30693.464628	-3124.032500	616.772461	262.092865
30693.464628	-3124.032500	615.543945	360.607727
30693.464628	-3124.032500	614.314453	383.656158
30693.464628	-3124.032500	613.085938	406.511353
30693.464628	-3124.032500	611.856445	212.154114
30693.464628	-3124.032500	610.626953	86.432945
30693.464628	-3124.032500	609.397461	166.756851
30693.464628	-3124.032500	608.166992	66.482224
30693.464628	-3124.032500	606.936523	221.530441
30693.464628	-3124.032500	605.706055	-87.286057
30693.464628	-3124.032500	604.474609	157.470840
30693.464628	-3124.032500	603.244141	28.636679
30693.464628	-3124.032500	602.012695	103.433334
30693.464628	-3124.032500	600.780273	102.943489
30693.464628	-3124.032500	599.548828	190.177521
30693.464628	-3124.032500	598.316406	165.711075
30693.464628	-3124.032500	597.083984	138.922134
30693.464628	-3124.032500	595.851563	-38.033714
30693.464628	-3124.032500	594.618164	106.225151
30693.464628	-3124.032500	593.384766	96.025551
30693.464628	-3124.032500	592.151367	100.630615
30693.464628	-3124.032500	590.917969	36.537918
30693.464628	-3124.032500	589.683594	143.509552
30693.464628	-3124.032500	588.449219	224.568420
30693.464628	-3124.032500	587.214844	50.805969
30693.464628	-3124.032500	585.979492	167.831680
30693.464628	-3124.032500	584.745117	203.364090
30693.464628	-3124.032500	583.509766	78.327461
30693.464628	-3124.032500	582.273438	85.687050
30693.464628	-3124.032500	581.038086	124.926056
30693.464628	-3124.032500	579.801758	33.613567
30693.464628	-3124.032500	578.565430	-168.930099
30693.464628	-3124.032500	577.329102	72.688675
30693.464628	-3124.032500	576.091797	70.578606
30693.464628	-3124.032500	574.854492	-25.647413
30693.464628	-3124.032500	573.617188	-102.800720
30693.464628	-3124.032500	572.378906	114.387314
30693.464628	-3124.032500	571.141602	-10.055509
30693.464628	-3124.032500	569.903320	31.752525
30693.464628	-3124.032500	568.664063	62.695183
30693.464628	-3124.032500	567.425781	84.934021
30693.464628	-3124.032500	566.186523	153.878418
30693.464628	-3124.032500	564.947266	239.674957
30693.464628	-3124.032500	563.708008	82.348610
30693.464628	-3124.032500	562.467773	56.996456
30693.464628	-3124.032500	561.227539	120.945274
30693.464628	-3124.032500	559.987305	148.502411
30693.464628	-3124.032500	558.747070	201.432266
30693.464628	-3124.032500	557.505859	-11.902764
30693.464628	-3124.032500	556.264648	298.208588
30693.464628	-3124.032500	555.023438	482.497620
30693.464628	-3124.032500	553.781250	304.916382
30693.464628	-3124.032500	552.539063	242.100449
30693.464628	-3124.032500	551.296875	317.368164
30693.464628	-3124.032500	550.054688	160.738190
30693.464628	-3124.032500	548.811523	46.520611
30693.464628	-3124.032500	547.569336	-1.908471
30693.464628	-3124.032500	546.325195	-82.353531
30693.464628	-3124.032500	545.082031	-67.313408
30693.464628	-3124.032500	543.837891	47.374607
30693.464628	-3124.032500	542.593750	-126.867546
30693.464628	-3124.032500	541.349609	78.783699
30693.464628	-3124.032500	540.105469	-19.261160
30693.464628	-3124.032500	538.860352	-231.983551
30693.464628	-3124.032500	537.615234	62.245049
30693.464628	-3124.032500	536.369141	-99.772743
30693.464628	-3124.032500	535.124023	81.668671
30693.464628	-3124.032500	533.877930	-222.566177
30693.464628	-3124.032500	532.631836	-136.808243
30693.464628	-3124.032500	531.384766	-241.929947
30693.464628	-3124.032500	530.138672	-92.881157
30693.464628	-3124.032500	528.891602	-37.218826
30693.464628	-3124.032500	527.643555	-68.527557
30693.464628	-3124.032500	526.396484	-195.192200
30693.464628	-3124.032500	525.148438	-122.946907
30693.464628	-3124.032500	523.900391	-300.558411
30693.464628	-3124.032500	522.652344	-209.482147
30693.464628	-3124.032500	521.403320	-391.441559
30693.464628	-3124.032500	520.154297	-163.122131
30693.464628	-3124.032500	518.905273	-171.814148
30693.464628	-3124.032500	517.656250	-362.398773
30693.464628	-3124.032500	516.406250	-257.103668
30693.464628	-3124.032500	515.156250	-251.254578
30693.464628	-3124.032500	513.906250	-80.703369
30693.464628	-3124.032500	512.655273	-66.623184
30693.464628	-3124.032500	511.404297	-348.271271
30693.464628	-3124.032500	510.153320	-131.605957
30693.464628	-3124.032500	508.902344	-250.731079
30693.464628	-3124.032500	507.650391	-393.103241
30693.464628	-3124.032500	506.398438	-166.242203
30693.464628	-3124.032500	505.146484	-184.244095
30693.464628	-3124.032500	503.893555	-75.772705
30693.464628	-3124.032500	502.641602	-148.730255
30693.464628	-3124.032500	501.388672	-126.863945
30693.464628	-3124.032500	500.134766	-303.196869
30693.464628	-3124.032500	498.881836	-70.691650
30693.464628	-3124.032500	497.627930	-341.868317
30693.464628	-3124.032500	496.374023	-75.867668
30693.464628	-3124.032500	495.119141	-92.227089
30693.464628	-3124.032500	493.865234	-28.602510
30693.464628	-3124.032500	492.610352	-2.950893
30693.464628	-3124.032500	491.355469	62.635651
30693.464628	-3124.032500	490.099609	-54.909859
30693.464628	-3124.032500	488.843750	-197.684494
30693.464628	-3124.032500	487.587891	-31.269373
30693.464628	-3124.032500	486.332031	-26.864866
30693.464628	-3124.032500	485.075195	-28.814680
30693.464628	-3124.032500	483.818359	25.955750
30693.464628	-3124.032500	482.561523	-18.086218
30693.464628	-3124.032500	481.304688	-154.573898
30693.464628	-3124.032500	480.046875	40.823357
30693.464628	-3124.032500	478.789063	135.315536
30693.464628	-3124.032500	477.531250	202.451614
30693.464628	-3124.032500	476.272461	133.082413
30693.464628	-3124.032500	475.013672	349.134399
30693.464628	-3124.032500	473.754883	139.148331
30693.464628	-3124.032500	472.496094	382.336792
30693.464628	-3124.032500	471.236328	140.923111
30693.464628	-3124.032500	469.976563	-39.597462
30693.464628	-3124.032500	468.716797	-129.916122
30693.464628	-3124.032500	467.456055	96.251511
30693.464628	-3124.032500	466.196289	-2.473906
30693.464628	-3124.032500	464.935547	53.838306
30693.464628	-3124.032500	463.673828	151.982590
30693.464628	-3124.032500	462.413086	164.223648
30693.464628	-3124.032500	461.151367	176.424179
30693.464628	-3124.032500	459.889648	-6.067357
30693.464628	-3124.032500	458.626953	227.933456
30693.464628	-3124.032500	457.364258	93.569572
30693.464628	-3124.032500	456.101563	105.666496
30693.464628	-3124.032500	454.838867	-9.844069
30693.464628	-3124.032500	453.575195	108.833656
30693.464628	-3124.032500	452.312500	148.005814
30693.464628	-3124.032500	451.047852	105.584900
30693.464628	-3124.032500	449.784180	-70.571655
30693.464628	-3124.032500	448.519531	-113.005096
30693.464628	-3124.032500	447.254883	40.869072
30693.464628	-3124.032500	445.990234	-24.632526
30693.464628	-3124.032500	444.725586	-73.455269
30693.464628	-3124.032500	443.459961	155.282135
30693.464628	-3124.032500	442.194336	100.047874
30693.464628	-3124.032500	440.927734	113.607277
30693.464628	-3124.032500	439.662109	-75.230919
30693.464628	-3124.032500	438.395508	190.558380
30693.464628	-3124.032500	437.127930	72.485703
30693.464628	-3124.032500	435.861328	83.635391
30693.464628	-3124.032500	434.593750	-111.661224
30693.464628	-3124.032500	433.326172	18.080441
30693.464628	-3124.032500	432.058594	53.908646
30693.464628	-3124.032500	430.790039	289.535492
30693.464628	-3124.032500	429.521484	98.053940
30693.464628	-3124.032500	428.252930	56.416298
30693.464628	-3124.032500	426.984375	-143.536926
30693.464628	-3124.032500	425.714844	93.432571
30693.464628	-3124.032500	424.445313	-137.985016
30693.464628	-3124.032500	423.174805	119.324379
30693.464628	-3124.032500	421.905273	106.002007
30693.464628	-3124.032500	420.634766	165.242340
30693.464628	-3124.032500	419.364258	309.475311
30693.464628	-3124.032500	418.092773	137.506729
30693.464628	-3124.032500	416.822266	129.543320
30693.464628	-3124.032500	415.550781	185.715698
30693.464628	-3124.032500	414.278320	35.965191
30693.464628	-3124.032500	413.006836	97.820282
30693.464628	-3124.032500	411.734375	-33.733959
30693.464628	-3124.032500	410.461914	-49.309425
30693.464628	-3124.032500	409.188477	-168.979889
30693.464628	-3124.032500	407.916016	61.695522
30693.464628	-3124.032500	406.642578	217.217041
30693.464628	-3124.032500	405.368164	121.343674
30693.464628	-3124.032500	404.094727	14.763964
30693.464628	-3124.032500	402.820313	264.324005
30693.464628	-3124.032500	401.545898	94.704826
30693.464628	-3124.032500	400.270508	328.709564
30693.464628	-3124.032500	398.996094	160.270538
30693.464628	-3124.032500	397.720703	192.269211
30693.464628	-3124.032500	396.444336	132.590973
30693.464628	-3124.032500	395.168945	302.191528
30693.464628	-3124.032500	393.892578	175.140900
30693.464628	-3124.032500	392.616211	76.505806
30693.464628	-3124.032500	391.339844	117.954659
30693.464628	-3124.032500	390.062500	382.081360
30693.464628	-3124.032500	388.785156	374.498230
30693.464628	-3124.032500	387.507813	159.445206
30693.464628	-3124.032500	386.229492	321.968781
30693.464628	-3124.032500	384.951172	307.972992
30693.464628	-3124.032500	383.672852	247.706589
30693.464628	-3124.032500	382.394531	234.120499
30693.464628	-3124.032500	381.115234	366.252808
30693.464628	-3124.032500	379.835938	264.078094
30693.464628	-3124.032500	378.556641	528.434814
30693.464628	-3124.032500	377.277344	341.746277
30693.464628	-3124.032500	375.997070	428.502228
30693.464628	-3124.032500	374.716797	425.427673
30693.464628	-3124.032500	373.435547	334.566925
30693.464628	-3124.032500	372.155273	57.024544
30693.464628	-3124.032500	370.874023	213.360565
30693.464628	-3124.032500	369.591797	123.051018
30693.464628	-3124.032500	368.310547	-11.766572
30693.464628	-3124.032500	367.028320	99.319771
30693.464628	-3124.032500	365.746094	31.805904
30693.464628	-3124.032500	364.463867	59.659637
30693.464628	-3124.032500	363.180664	-91.118271
30693.464628	-3124.032500	361.897461	100.377235
30693.464628	-3124.032500	360.614258	-154.366760
30693.464628	-3124.032500	359.330078	332.078125
30693.464628	-3124.032500	358.045898	-2.171064
30693.464628	-3124.032500	356.761719	62.993385
30693.464628	-3124.032500	355.477539	-30.000065
30693.464628	-3124.032500	354.192383	-40.629112
30693.464628	-3124.032500	352.907227	125.579796
30693.464628	-3124.032500	351.622070	30.751554
30693.464628	-3124.032500	350.336914	299.546570
30693.464628	-3124.032500	349.050781	161.341522
30693.464628	-3124.032500	347.764648	148.261658
30693.464628	-3124.032500	346.477539	-29.397514
30693.464628	-3124.032500	345.191406	28.788036
30693.464628	-3124.032500	343.904297	90.561111
30693.464628	-3124.032500	342.616211	34.780781
30693.464628	-3124.032500	341.329102	-259.451416
30693.464628	-3124.032500	340.041016	-103.103180
30693.464628	-3124.032500	338.752930	97.528473
30693.464628	-3124.032500	337.463867	-176.393555
30693.464628	-3124.032500	336.175781	-20.653490
30693.464628	-3124.032500	334.886719	-23.863115
30693.464628	-3124.032500	333.596680	-91.780060
30693.464628	-3124.032500	332.307617	-363.573639
30693.464628	-3124.032500	331.017578	-311.051941
30693.464628	-3124.032500	329.727539	-339.811981
30693.464628	-3124.032500	328.436523	-263.732788
30693.464628	-3124.032500	327.146484	-346.786530
30693.464628	-3124.032500	325.855469	-398.893250
30693.464628	-3124.032500	324.563477	-240.181366
30693.464628	-3124.032500	323.272461	-7.720650
30693.464628	-3124.032500	321.980469	-202.813202
30693.464628	-3124.032500	320.688477	-142.438385
30693.464628	-3124.032500	319.395508	91.256470
30693.464628	-3124.032500	318.103516	-6.432003
30693.464628	-3124.032500	316.810547	52.595936
30693.464628	-3124.032500	315.516602	-42.338783
30693.464628	-3124.032500	314.223633	43.854271
30693.464628	-3124.032500	312.929688	384.167480
30693.464628	-3124.032500	311.635742	-31.897467
30693.464628	-3124.032500	310.340820	-65.466064
30693.464628	-3124.032500	309.045898	54.707096
30693.464628	-3124.032500	307.750977	342.653198
30693.464628	-3124.032500	306.456055	253.629013
30693.464628	-3124.032500	305.160156	156.603439
30693.464628	-3124.032500	303.865234	502.218964
30693.464628	-3124.032500	302.568359	782.096863
30693.464628	-3124.032500	301.272461	953.820618
30693.464628	-3124.032500	299.975586	1067.884155
30693.464628	-3124.032500	298.678711	1014.348450
