#X		#Y		#Wave		#Intensity
12307.219149	192.475000	1999.980469	-12.107440
12307.219149	192.475000	1999.016602	13.187359
12307.219149	192.475000	1998.052734	-42.596943
12307.219149	192.475000	1997.087891	-24.133865
12307.219149	192.475000	1996.123047	-87.556763
12307.219149	192.475000	1995.158203	37.197277
12307.219149	192.475000	1994.193359	72.632484
12307.219149	192.475000	1993.228516	65.849731
12307.219149	192.475000	1992.262695	160.477341
12307.219149	192.475000	1991.297852	29.707355
12307.219149	192.475000	1990.332031	111.732536
12307.219149	192.475000	1989.366211	161.463852
12307.219149	192.475000	1988.399414	-145.169220
12307.219149	192.475000	1987.433594	28.086422
12307.219149	192.475000	1986.466797	-13.965117
12307.219149	192.475000	1985.500977	-70.923027
12307.219149	192.475000	1984.534180	-6.803995
12307.219149	192.475000	1983.567383	34.966248
12307.219149	192.475000	1982.599609	229.863220
12307.219149	192.475000	1981.632813	16.933662
12307.219149	192.475000	1980.665039	73.277245
12307.219149	192.475000	1979.697266	-53.239674
12307.219149	192.475000	1978.729492	249.900879
12307.219149	192.475000	1977.761719	83.762726
12307.219149	192.475000	1976.792969	-28.068014
12307.219149	192.475000	1975.825195	18.035028
12307.219149	192.475000	1974.856445	91.206543
12307.219149	192.475000	1973.887695	36.005371
12307.219149	192.475000	1972.918945	15.302703
12307.219149	192.475000	1971.949219	137.595276
12307.219149	192.475000	1970.980469	-58.289051
12307.219149	192.475000	1970.010742	-17.481018
12307.219149	192.475000	1969.041016	94.744278
12307.219149	192.475000	1968.071289	83.665024
12307.219149	192.475000	1967.101563	109.504662
12307.219149	192.475000	1966.130859	196.880493
12307.219149	192.475000	1965.161133	-100.044395
12307.219149	192.475000	1964.190430	-71.841965
12307.219149	192.475000	1963.219727	136.045715
12307.219149	192.475000	1962.249023	-30.345640
12307.219149	192.475000	1961.277344	-83.495804
12307.219149	192.475000	1960.306641	-57.916309
12307.219149	192.475000	1959.334961	4.527339
12307.219149	192.475000	1958.363281	81.677223
12307.219149	192.475000	1957.391602	124.339386
12307.219149	192.475000	1956.419922	132.533707
12307.219149	192.475000	1955.447266	226.744827
12307.219149	192.475000	1954.474609	143.923203
12307.219149	192.475000	1953.501953	58.652069
12307.219149	192.475000	1952.529297	-63.465836
12307.219149	192.475000	1951.556641	-57.816090
12307.219149	192.475000	1950.583984	-3.065568
12307.219149	192.475000	1949.610352	36.911652
12307.219149	192.475000	1948.636719	-45.905743
12307.219149	192.475000	1947.663086	-99.251122
12307.219149	192.475000	1946.689453	11.846198
12307.219149	192.475000	1945.715820	59.087357
12307.219149	192.475000	1944.741211	52.321663
12307.219149	192.475000	1943.767578	-123.706413
12307.219149	192.475000	1942.792969	109.882416
12307.219149	192.475000	1941.818359	66.293289
12307.219149	192.475000	1940.842773	101.160507
12307.219149	192.475000	1939.868164	33.057610
12307.219149	192.475000	1938.892578	-93.844322
12307.219149	192.475000	1937.916992	134.570908
12307.219149	192.475000	1936.941406	130.167252
12307.219149	192.475000	1935.965820	-18.749981
12307.219149	192.475000	1934.990234	8.697766
12307.219149	192.475000	1934.013672	85.096695
12307.219149	192.475000	1933.037109	-17.236904
12307.219149	192.475000	1932.060547	232.896729
12307.219149	192.475000	1931.083984	157.481491
12307.219149	192.475000	1930.107422	23.373331
12307.219149	192.475000	1929.129883	-47.090706
12307.219149	192.475000	1928.153320	48.772125
12307.219149	192.475000	1927.175781	78.575813
12307.219149	192.475000	1926.198242	-4.091032
12307.219149	192.475000	1925.219727	-52.509632
12307.219149	192.475000	1924.242188	-20.265871
12307.219149	192.475000	1923.263672	-24.685316
12307.219149	192.475000	1922.285156	44.181896
12307.219149	192.475000	1921.306641	27.537214
12307.219149	192.475000	1920.328125	169.627975
12307.219149	192.475000	1919.349609	50.421192
12307.219149	192.475000	1918.370117	50.871834
12307.219149	192.475000	1917.391602	166.031570
12307.219149	192.475000	1916.412109	185.981903
12307.219149	192.475000	1915.431641	169.328491
12307.219149	192.475000	1914.452148	120.972534
12307.219149	192.475000	1913.472656	38.491940
12307.219149	192.475000	1912.492188	-2.505120
12307.219149	192.475000	1911.511719	51.592133
12307.219149	192.475000	1910.531250	56.920486
12307.219149	192.475000	1909.550781	220.652847
12307.219149	192.475000	1908.569336	-25.011841
12307.219149	192.475000	1907.588867	-44.028969
12307.219149	192.475000	1906.607422	221.928955
12307.219149	192.475000	1905.625977	-30.901434
12307.219149	192.475000	1904.644531	-91.293579
12307.219149	192.475000	1903.662109	181.830276
12307.219149	192.475000	1902.680664	123.856476
12307.219149	192.475000	1901.698242	92.672005
12307.219149	192.475000	1900.715820	146.651138
12307.219149	192.475000	1899.733398	35.204903
12307.219149	192.475000	1898.750000	-68.902458
12307.219149	192.475000	1897.767578	36.141102
12307.219149	192.475000	1896.784180	-36.323391
12307.219149	192.475000	1895.800781	-52.855328
12307.219149	192.475000	1894.817383	47.265846
12307.219149	192.475000	1893.833984	62.310478
12307.219149	192.475000	1892.850586	227.962967
12307.219149	192.475000	1891.866211	14.660305
12307.219149	192.475000	1890.881836	-18.865931
12307.219149	192.475000	1889.897461	146.706314
12307.219149	192.475000	1888.913086	108.311409
12307.219149	192.475000	1887.927734	-70.835373
12307.219149	192.475000	1886.943359	-60.647705
12307.219149	192.475000	1885.958008	230.959488
12307.219149	192.475000	1884.972656	119.802681
12307.219149	192.475000	1883.987305	59.613056
12307.219149	192.475000	1883.001953	-99.969032
12307.219149	192.475000	1882.015625	130.810715
12307.219149	192.475000	1881.029297	104.578300
12307.219149	192.475000	1880.042969	-23.428276
12307.219149	192.475000	1879.056641	47.286777
12307.219149	192.475000	1878.070313	-15.263167
12307.219149	192.475000	1877.083984	188.624710
12307.219149	192.475000	1876.096680	60.682171
12307.219149	192.475000	1875.109375	90.152390
12307.219149	192.475000	1874.122070	-52.257919
12307.219149	192.475000	1873.134766	-114.755150
12307.219149	192.475000	1872.146484	-36.890785
12307.219149	192.475000	1871.159180	40.937119
12307.219149	192.475000	1870.170898	-65.098686
12307.219149	192.475000	1869.182617	-45.348778
12307.219149	192.475000	1868.194336	-37.702190
12307.219149	192.475000	1867.205078	-56.658688
12307.219149	192.475000	1866.216797	-58.696384
12307.219149	192.475000	1865.227539	-46.243191
12307.219149	192.475000	1864.238281	31.430405
12307.219149	192.475000	1863.249023	-2.052929
12307.219149	192.475000	1862.259766	94.886513
12307.219149	192.475000	1861.269531	10.674659
12307.219149	192.475000	1860.279297	52.026398
12307.219149	192.475000	1859.290039	230.940826
12307.219149	192.475000	1858.298828	55.009926
12307.219149	192.475000	1857.308594	-75.020195
12307.219149	192.475000	1856.318359	-156.763672
12307.219149	192.475000	1855.327148	55.774689
12307.219149	192.475000	1854.335938	27.065681
12307.219149	192.475000	1853.344727	-4.057108
12307.219149	192.475000	1852.353516	49.192055
12307.219149	192.475000	1851.362305	133.738556
12307.219149	192.475000	1850.370117	160.404663
12307.219149	192.475000	1849.377930	76.219810
12307.219149	192.475000	1848.385742	13.729509
12307.219149	192.475000	1847.393555	52.400150
12307.219149	192.475000	1846.401367	59.737190
12307.219149	192.475000	1845.408203	30.941734
12307.219149	192.475000	1844.415039	-38.778973
12307.219149	192.475000	1843.421875	293.406708
12307.219149	192.475000	1842.428711	81.667290
12307.219149	192.475000	1841.435547	-89.114777
12307.219149	192.475000	1840.441406	124.983192
12307.219149	192.475000	1839.448242	9.529623
12307.219149	192.475000	1838.454102	209.063660
12307.219149	192.475000	1837.459961	122.445023
12307.219149	192.475000	1836.464844	-60.299179
12307.219149	192.475000	1835.470703	100.628159
12307.219149	192.475000	1834.475586	71.676178
12307.219149	192.475000	1833.480469	117.176361
12307.219149	192.475000	1832.485352	-94.332626
12307.219149	192.475000	1831.490234	203.258224
12307.219149	192.475000	1830.495117	311.059845
12307.219149	192.475000	1829.499023	123.567963
12307.219149	192.475000	1828.502930	296.091736
12307.219149	192.475000	1827.506836	218.995010
12307.219149	192.475000	1826.510742	177.886810
12307.219149	192.475000	1825.513672	129.573334
12307.219149	192.475000	1824.517578	217.939102
12307.219149	192.475000	1823.520508	114.443542
12307.219149	192.475000	1822.523438	-118.481018
12307.219149	192.475000	1821.526367	53.684593
12307.219149	192.475000	1820.529297	232.947845
12307.219149	192.475000	1819.531250	112.650932
12307.219149	192.475000	1818.533203	-122.599876
12307.219149	192.475000	1817.535156	207.385513
12307.219149	192.475000	1816.537109	108.628235
12307.219149	192.475000	1815.539063	110.424835
12307.219149	192.475000	1814.540039	52.353733
12307.219149	192.475000	1813.541992	109.141830
12307.219149	192.475000	1812.542969	70.174812
12307.219149	192.475000	1811.543945	148.406799
12307.219149	192.475000	1810.543945	44.811626
12307.219149	192.475000	1809.544922	32.092995
12307.219149	192.475000	1808.544922	-171.912445
12307.219149	192.475000	1807.544922	30.478075
12307.219149	192.475000	1806.544922	170.624603
12307.219149	192.475000	1805.544922	-164.802246
12307.219149	192.475000	1804.544922	66.044899
12307.219149	192.475000	1803.543945	-37.617138
12307.219149	192.475000	1802.542969	-138.884705
12307.219149	192.475000	1801.541992	196.780975
12307.219149	192.475000	1800.541016	147.958740
12307.219149	192.475000	1799.539063	137.306732
12307.219149	192.475000	1798.538086	55.039108
12307.219149	192.475000	1797.536133	8.554423
12307.219149	192.475000	1796.534180	-78.497383
12307.219149	192.475000	1795.532227	25.238926
12307.219149	192.475000	1794.529297	83.596146
12307.219149	192.475000	1793.527344	-113.187759
12307.219149	192.475000	1792.524414	173.921188
12307.219149	192.475000	1791.521484	-53.857529
12307.219149	192.475000	1790.518555	130.606720
12307.219149	192.475000	1789.514648	-25.685404
12307.219149	192.475000	1788.511719	18.110840
12307.219149	192.475000	1787.507813	61.851398
12307.219149	192.475000	1786.503906	-30.166903
12307.219149	192.475000	1785.500000	49.199303
12307.219149	192.475000	1784.496094	49.960579
12307.219149	192.475000	1783.491211	41.165245
12307.219149	192.475000	1782.486328	84.672775
12307.219149	192.475000	1781.481445	285.111908
12307.219149	192.475000	1780.476563	21.706144
12307.219149	192.475000	1779.471680	200.605713
12307.219149	192.475000	1778.465820	258.160522
12307.219149	192.475000	1777.460938	213.456421
12307.219149	192.475000	1776.455078	118.826195
12307.219149	192.475000	1775.449219	128.731155
12307.219149	192.475000	1774.442383	88.706673
12307.219149	192.475000	1773.436523	84.286140
12307.219149	192.475000	1772.429688	122.565758
12307.219149	192.475000	1771.422852	110.937675
12307.219149	192.475000	1770.416016	203.712357
12307.219149	192.475000	1769.409180	11.634833
12307.219149	192.475000	1768.402344	52.115181
12307.219149	192.475000	1767.394531	137.609436
12307.219149	192.475000	1766.386719	85.468964
12307.219149	192.475000	1765.378906	147.131210
12307.219149	192.475000	1764.371094	260.891022
12307.219149	192.475000	1763.362305	-33.151127
12307.219149	192.475000	1762.354492	130.289032
12307.219149	192.475000	1761.345703	220.168274
12307.219149	192.475000	1760.336914	113.338234
12307.219149	192.475000	1759.328125	4.140674
12307.219149	192.475000	1758.318359	134.128036
12307.219149	192.475000	1757.308594	204.831787
12307.219149	192.475000	1756.299805	147.638962
12307.219149	192.475000	1755.290039	-32.651283
12307.219149	192.475000	1754.279297	324.251007
12307.219149	192.475000	1753.269531	49.278255
12307.219149	192.475000	1752.258789	13.279252
12307.219149	192.475000	1751.249023	-41.662998
12307.219149	192.475000	1750.238281	-82.441093
12307.219149	192.475000	1749.226563	23.328676
12307.219149	192.475000	1748.215820	-97.892487
12307.219149	192.475000	1747.204102	125.920586
12307.219149	192.475000	1746.193359	84.980209
12307.219149	192.475000	1745.181641	162.127838
12307.219149	192.475000	1744.168945	-58.393421
12307.219149	192.475000	1743.157227	-75.785049
12307.219149	192.475000	1742.144531	13.029544
12307.219149	192.475000	1741.132813	203.276749
12307.219149	192.475000	1740.120117	1.635566
12307.219149	192.475000	1739.106445	28.910671
12307.219149	192.475000	1738.093750	126.914642
12307.219149	192.475000	1737.080078	-119.536026
12307.219149	192.475000	1736.067383	58.561821
12307.219149	192.475000	1735.053711	88.004036
12307.219149	192.475000	1734.040039	51.389454
12307.219149	192.475000	1733.025391	-13.537852
12307.219149	192.475000	1732.011719	-139.743164
12307.219149	192.475000	1730.997070	-143.430878
12307.219149	192.475000	1729.982422	86.045845
12307.219149	192.475000	1728.967773	-42.583321
12307.219149	192.475000	1727.952148	78.389404
12307.219149	192.475000	1726.937500	55.674923
12307.219149	192.475000	1725.921875	-47.103390
12307.219149	192.475000	1724.906250	-86.339478
12307.219149	192.475000	1723.890625	62.629948
12307.219149	192.475000	1722.875000	180.924225
12307.219149	192.475000	1721.858398	129.788086
12307.219149	192.475000	1720.841797	5.737890
12307.219149	192.475000	1719.825195	203.793396
12307.219149	192.475000	1718.808594	56.195076
12307.219149	192.475000	1717.791992	66.077911
12307.219149	192.475000	1716.774414	-107.362328
12307.219149	192.475000	1715.756836	-36.448921
12307.219149	192.475000	1714.739258	-52.504864
12307.219149	192.475000	1713.721680	65.266006
12307.219149	192.475000	1712.704102	-49.487625
12307.219149	192.475000	1711.685547	35.297066
12307.219149	192.475000	1710.667969	96.547951
12307.219149	192.475000	1709.649414	82.646225
12307.219149	192.475000	1708.630859	19.445654
12307.219149	192.475000	1707.611328	-48.461765
12307.219149	192.475000	1706.592773	-78.848083
12307.219149	192.475000	1705.573242	-22.506142
12307.219149	192.475000	1704.553711	-106.877953
12307.219149	192.475000	1703.534180	-104.527664
12307.219149	192.475000	1702.513672	82.912987
12307.219149	192.475000	1701.494141	-24.959564
12307.219149	192.475000	1700.473633	56.915073
12307.219149	192.475000	1699.453125	122.332382
12307.219149	192.475000	1698.432617	-105.011032
12307.219149	192.475000	1697.412109	171.054138
12307.219149	192.475000	1696.390625	135.659653
12307.219149	192.475000	1695.369141	81.525940
12307.219149	192.475000	1694.347656	174.791046
12307.219149	192.475000	1693.326172	87.858650
12307.219149	192.475000	1692.304688	-22.460348
12307.219149	192.475000	1691.282227	94.060463
12307.219149	192.475000	1690.260742	147.386353
12307.219149	192.475000	1689.238281	69.751945
12307.219149	192.475000	1688.214844	3.800161
12307.219149	192.475000	1687.192383	71.040344
12307.219149	192.475000	1686.168945	189.619141
12307.219149	192.475000	1685.146484	146.962006
12307.219149	192.475000	1684.123047	129.976273
12307.219149	192.475000	1683.099609	178.347519
12307.219149	192.475000	1682.075195	119.284431
12307.219149	192.475000	1681.051758	216.600357
12307.219149	192.475000	1680.027344	225.173157
12307.219149	192.475000	1679.002930	506.687561
12307.219149	192.475000	1677.978516	321.543396
12307.219149	192.475000	1676.953125	110.785172
12307.219149	192.475000	1675.928711	303.481384
12307.219149	192.475000	1674.903320	269.938416
12307.219149	192.475000	1673.877930	338.941681
12307.219149	192.475000	1672.852539	184.179123
12307.219149	192.475000	1671.826172	162.254761
12307.219149	192.475000	1670.800781	322.022461
12307.219149	192.475000	1669.774414	220.848923
12307.219149	192.475000	1668.748047	229.136917
12307.219149	192.475000	1667.721680	60.463074
12307.219149	192.475000	1666.694336	280.552429
12307.219149	192.475000	1665.667969	291.092010
12307.219149	192.475000	1664.640625	136.399597
12307.219149	192.475000	1663.613281	437.711029
12307.219149	192.475000	1662.585938	166.718216
12307.219149	192.475000	1661.557617	205.090439
12307.219149	192.475000	1660.530273	220.186798
12307.219149	192.475000	1659.501953	363.104218
12307.219149	192.475000	1658.473633	471.088409
12307.219149	192.475000	1657.444336	302.495148
12307.219149	192.475000	1656.416016	431.326233
12307.219149	192.475000	1655.386719	430.013458
12307.219149	192.475000	1654.358398	282.386780
12307.219149	192.475000	1653.328125	148.723450
12307.219149	192.475000	1652.298828	289.028473
12307.219149	192.475000	1651.269531	336.429077
12307.219149	192.475000	1650.239258	147.101349
12307.219149	192.475000	1649.208984	370.803802
12307.219149	192.475000	1648.178711	464.510590
12307.219149	192.475000	1647.148438	472.361877
12307.219149	192.475000	1646.117188	361.937988
12307.219149	192.475000	1645.086914	460.197937
12307.219149	192.475000	1644.055664	618.666138
12307.219149	192.475000	1643.024414	552.279907
12307.219149	192.475000	1641.992188	516.024841
12307.219149	192.475000	1640.960938	368.591492
12307.219149	192.475000	1639.928711	526.916260
12307.219149	192.475000	1638.896484	550.869141
12307.219149	192.475000	1637.864258	556.285706
12307.219149	192.475000	1636.832031	651.966125
12307.219149	192.475000	1635.798828	738.341431
12307.219149	192.475000	1634.766602	528.522034
12307.219149	192.475000	1633.733398	587.118286
12307.219149	192.475000	1632.699219	664.185303
12307.219149	192.475000	1631.666016	653.352295
12307.219149	192.475000	1630.632813	496.867493
12307.219149	192.475000	1629.598633	414.403931
12307.219149	192.475000	1628.564453	551.522095
12307.219149	192.475000	1627.530273	695.518311
12307.219149	192.475000	1626.495117	686.979858
12307.219149	192.475000	1625.460938	720.026001
12307.219149	192.475000	1624.425781	575.239685
12307.219149	192.475000	1623.390625	689.099304
12307.219149	192.475000	1622.355469	491.284088
12307.219149	192.475000	1621.319336	766.668335
12307.219149	192.475000	1620.284180	587.381104
12307.219149	192.475000	1619.248047	717.302246
12307.219149	192.475000	1618.211914	764.139587
12307.219149	192.475000	1617.174805	748.691345
12307.219149	192.475000	1616.138672	751.706604
12307.219149	192.475000	1615.101563	650.983215
12307.219149	192.475000	1614.065430	773.875732
12307.219149	192.475000	1613.027344	657.063782
12307.219149	192.475000	1611.990234	828.296570
12307.219149	192.475000	1610.953125	543.388855
12307.219149	192.475000	1609.915039	756.040222
12307.219149	192.475000	1608.876953	637.052307
12307.219149	192.475000	1607.838867	824.297607
12307.219149	192.475000	1606.800781	877.985657
12307.219149	192.475000	1605.761719	940.861084
12307.219149	192.475000	1604.723633	937.006653
12307.219149	192.475000	1603.684570	769.838745
12307.219149	192.475000	1602.644531	749.932129
12307.219149	192.475000	1601.605469	1038.172363
12307.219149	192.475000	1600.566406	859.625244
12307.219149	192.475000	1599.526367	968.468994
12307.219149	192.475000	1598.486328	927.910339
12307.219149	192.475000	1597.446289	963.203674
12307.219149	192.475000	1596.405273	1065.110352
12307.219149	192.475000	1595.365234	992.449280
12307.219149	192.475000	1594.324219	1020.862488
12307.219149	192.475000	1593.283203	819.699341
12307.219149	192.475000	1592.242188	1029.504150
12307.219149	192.475000	1591.200195	936.309875
12307.219149	192.475000	1590.159180	583.900024
12307.219149	192.475000	1589.117188	830.382751
12307.219149	192.475000	1588.075195	810.733215
12307.219149	192.475000	1587.032227	871.366028
12307.219149	192.475000	1585.990234	966.391846
12307.219149	192.475000	1584.947266	756.529297
12307.219149	192.475000	1583.904297	842.411560
12307.219149	192.475000	1582.861328	999.313538
12307.219149	192.475000	1581.818359	684.254395
12307.219149	192.475000	1580.775391	990.049927
12307.219149	192.475000	1579.731445	734.698242
12307.219149	192.475000	1578.687500	1008.354736
12307.219149	192.475000	1577.643555	1023.261108
12307.219149	192.475000	1576.598633	1010.719177
12307.219149	192.475000	1575.554688	1011.942383
12307.219149	192.475000	1574.509766	910.237854
12307.219149	192.475000	1573.464844	922.965027
12307.219149	192.475000	1572.419922	732.185913
12307.219149	192.475000	1571.374023	891.324463
12307.219149	192.475000	1570.329102	851.555786
12307.219149	192.475000	1569.283203	887.248779
12307.219149	192.475000	1568.237305	781.285278
12307.219149	192.475000	1567.191406	725.653931
12307.219149	192.475000	1566.144531	875.645081
12307.219149	192.475000	1565.098633	1043.882690
12307.219149	192.475000	1564.051758	881.008606
12307.219149	192.475000	1563.004883	971.622925
12307.219149	192.475000	1561.957031	783.781860
12307.219149	192.475000	1560.910156	737.530945
12307.219149	192.475000	1559.862305	992.481873
12307.219149	192.475000	1558.814453	620.086304
12307.219149	192.475000	1557.766602	922.921021
12307.219149	192.475000	1556.718750	1011.340820
12307.219149	192.475000	1555.669922	1108.875732
12307.219149	192.475000	1554.621094	1021.791626
12307.219149	192.475000	1553.573242	886.927795
12307.219149	192.475000	1552.523438	553.930664
12307.219149	192.475000	1551.474609	704.018982
12307.219149	192.475000	1550.424805	676.441589
12307.219149	192.475000	1549.375000	671.684143
12307.219149	192.475000	1548.325195	676.073242
12307.219149	192.475000	1547.275391	782.924805
12307.219149	192.475000	1546.225586	664.486267
12307.219149	192.475000	1545.174805	675.817139
12307.219149	192.475000	1544.124023	905.559021
12307.219149	192.475000	1543.073242	807.754456
12307.219149	192.475000	1542.022461	671.374451
12307.219149	192.475000	1540.970703	646.482666
12307.219149	192.475000	1539.919922	726.205078
12307.219149	192.475000	1538.868164	528.688110
12307.219149	192.475000	1537.815430	651.649963
12307.219149	192.475000	1536.763672	633.771240
12307.219149	192.475000	1535.710938	640.924072
12307.219149	192.475000	1534.659180	509.609039
12307.219149	192.475000	1533.606445	478.279510
12307.219149	192.475000	1532.552734	639.938049
12307.219149	192.475000	1531.500000	601.879822
12307.219149	192.475000	1530.446289	482.197174
12307.219149	192.475000	1529.393555	417.057281
12307.219149	192.475000	1528.338867	220.437592
12307.219149	192.475000	1527.285156	318.732483
12307.219149	192.475000	1526.231445	405.702271
12307.219149	192.475000	1525.176758	218.413055
12307.219149	192.475000	1524.122070	126.430420
12307.219149	192.475000	1523.067383	25.469526
12307.219149	192.475000	1522.012695	31.070778
12307.219149	192.475000	1520.957031	14.067095
12307.219149	192.475000	1519.901367	40.145866
12307.219149	192.475000	1518.845703	-8.446475
12307.219149	192.475000	1517.790039	-7.169559
12307.219149	192.475000	1516.734375	-75.997665
12307.219149	192.475000	1515.677734	95.091805
12307.219149	192.475000	1514.621094	-9.821440
12307.219149	192.475000	1513.564453	-62.620876
12307.219149	192.475000	1512.507813	-6.802289
12307.219149	192.475000	1511.450195	60.348526
12307.219149	192.475000	1510.393555	39.373856
12307.219149	192.475000	1509.335938	0.380550
12307.219149	192.475000	1508.278320	-104.069603
12307.219149	192.475000	1507.219727	53.626469
12307.219149	192.475000	1506.162109	32.886589
12307.219149	192.475000	1505.103516	25.758444
12307.219149	192.475000	1504.044922	81.904175
12307.219149	192.475000	1502.986328	68.109215
12307.219149	192.475000	1501.926758	-108.116882
12307.219149	192.475000	1500.868164	-4.423244
12307.219149	192.475000	1499.808594	33.862347
12307.219149	192.475000	1498.749023	112.788460
12307.219149	192.475000	1497.688477	-171.320679
12307.219149	192.475000	1496.628906	-60.704514
12307.219149	192.475000	1495.568359	11.604521
12307.219149	192.475000	1494.507813	-121.143089
12307.219149	192.475000	1493.447266	-35.213718
12307.219149	192.475000	1492.386719	52.994423
12307.219149	192.475000	1491.325195	134.466980
12307.219149	192.475000	1490.263672	58.335064
12307.219149	192.475000	1489.202148	-110.017334
12307.219149	192.475000	1488.140625	7.636555
12307.219149	192.475000	1487.079102	71.290092
12307.219149	192.475000	1486.016602	13.472166
12307.219149	192.475000	1484.954102	14.229582
12307.219149	192.475000	1483.891602	-234.615204
12307.219149	192.475000	1482.829102	-134.739761
12307.219149	192.475000	1481.765625	-86.553459
12307.219149	192.475000	1480.702148	-2.365210
12307.219149	192.475000	1479.638672	7.706013
12307.219149	192.475000	1478.575195	51.518768
12307.219149	192.475000	1477.511719	-133.753937
12307.219149	192.475000	1476.447266	-141.456772
12307.219149	192.475000	1475.382813	-3.133334
12307.219149	192.475000	1474.318359	-152.129181
12307.219149	192.475000	1473.253906	-72.125816
12307.219149	192.475000	1472.189453	158.296799
12307.219149	192.475000	1471.124023	119.351913
12307.219149	192.475000	1470.058594	181.553207
12307.219149	192.475000	1468.993164	223.490646
12307.219149	192.475000	1467.927734	-7.789772
12307.219149	192.475000	1466.861328	200.186157
12307.219149	192.475000	1465.794922	267.090057
12307.219149	192.475000	1464.728516	109.965996
12307.219149	192.475000	1463.662109	51.264229
12307.219149	192.475000	1462.594727	241.565628
12307.219149	192.475000	1461.528320	180.802536
12307.219149	192.475000	1460.460938	185.496002
12307.219149	192.475000	1459.393555	370.938354
12307.219149	192.475000	1458.326172	350.947083
12307.219149	192.475000	1457.257813	349.242950
12307.219149	192.475000	1456.189453	81.234299
12307.219149	192.475000	1455.121094	257.202423
12307.219149	192.475000	1454.052734	358.435486
12307.219149	192.475000	1452.984375	422.868073
12307.219149	192.475000	1451.915039	281.056213
12307.219149	192.475000	1450.845703	446.060303
12307.219149	192.475000	1449.776367	560.744568
12307.219149	192.475000	1448.707031	478.463531
12307.219149	192.475000	1447.636719	400.183655
12307.219149	192.475000	1446.567383	360.394989
12307.219149	192.475000	1445.497070	312.760925
12307.219149	192.475000	1444.425781	159.551163
12307.219149	192.475000	1443.355469	88.243698
12307.219149	192.475000	1442.285156	191.543350
12307.219149	192.475000	1441.213867	134.703949
12307.219149	192.475000	1440.142578	220.566467
12307.219149	192.475000	1439.070313	96.733498
12307.219149	192.475000	1437.999023	271.934387
12307.219149	192.475000	1436.926758	378.920319
12307.219149	192.475000	1435.854492	294.326904
12307.219149	192.475000	1434.782227	229.408966
12307.219149	192.475000	1433.709961	171.331497
12307.219149	192.475000	1432.636719	212.737473
12307.219149	192.475000	1431.563477	97.362831
12307.219149	192.475000	1430.490234	185.164536
12307.219149	192.475000	1429.416992	-7.418038
12307.219149	192.475000	1428.343750	38.189259
12307.219149	192.475000	1427.269531	222.556427
12307.219149	192.475000	1426.195313	-74.170753
12307.219149	192.475000	1425.121094	211.529099
12307.219149	192.475000	1424.046875	218.806274
12307.219149	192.475000	1422.971680	73.364815
12307.219149	192.475000	1421.896484	53.967381
12307.219149	192.475000	1420.821289	159.196884
12307.219149	192.475000	1419.746094	208.674301
12307.219149	192.475000	1418.669922	212.387085
12307.219149	192.475000	1417.594727	74.294601
12307.219149	192.475000	1416.518555	145.311356
12307.219149	192.475000	1415.442383	76.559044
12307.219149	192.475000	1414.365234	158.977463
12307.219149	192.475000	1413.289063	175.211044
12307.219149	192.475000	1412.211914	101.278275
12307.219149	192.475000	1411.134766	339.885529
12307.219149	192.475000	1410.057617	413.584412
12307.219149	192.475000	1408.979492	520.330627
12307.219149	192.475000	1407.902344	264.596100
12307.219149	192.475000	1406.824219	392.740753
12307.219149	192.475000	1405.746094	486.676636
12307.219149	192.475000	1404.666992	464.033539
12307.219149	192.475000	1403.588867	456.704803
12307.219149	192.475000	1402.509766	432.569244
12307.219149	192.475000	1401.430664	310.576874
12307.219149	192.475000	1400.351563	366.062439
12307.219149	192.475000	1399.271484	382.515320
12307.219149	192.475000	1398.192383	324.491333
12307.219149	192.475000	1397.112305	476.632599
12307.219149	192.475000	1396.031250	347.044556
12307.219149	192.475000	1394.951172	529.546326
12307.219149	192.475000	1393.871094	473.203522
12307.219149	192.475000	1392.790039	296.972748
12307.219149	192.475000	1391.708984	573.163635
12307.219149	192.475000	1390.626953	158.775879
12307.219149	192.475000	1389.545898	229.704102
12307.219149	192.475000	1388.463867	228.684097
12307.219149	192.475000	1387.381836	355.703125
12307.219149	192.475000	1386.299805	310.324371
12307.219149	192.475000	1385.217773	176.946060
12307.219149	192.475000	1384.134766	422.051453
12307.219149	192.475000	1383.051758	220.954681
12307.219149	192.475000	1381.968750	396.282440
12307.219149	192.475000	1380.885742	489.305939
12307.219149	192.475000	1379.802734	320.933105
12307.219149	192.475000	1378.718750	546.373047
12307.219149	192.475000	1377.634766	253.027542
12307.219149	192.475000	1376.550781	248.066193
12307.219149	192.475000	1375.465820	430.607452
12307.219149	192.475000	1374.381836	253.753433
12307.219149	192.475000	1373.296875	381.727722
12307.219149	192.475000	1372.211914	344.397552
12307.219149	192.475000	1371.126953	228.927689
12307.219149	192.475000	1370.041016	263.026672
12307.219149	192.475000	1368.955078	193.975647
12307.219149	192.475000	1367.869141	309.893463
12307.219149	192.475000	1366.783203	354.607880
12307.219149	192.475000	1365.697266	342.290497
12307.219149	192.475000	1364.610352	221.814102
12307.219149	192.475000	1363.523438	230.602203
12307.219149	192.475000	1362.436523	281.099762
12307.219149	192.475000	1361.349609	282.343567
12307.219149	192.475000	1360.261719	247.770065
12307.219149	192.475000	1359.174805	232.170364
12307.219149	192.475000	1358.086914	353.931488
12307.219149	192.475000	1356.998047	363.497589
12307.219149	192.475000	1355.910156	346.853729
12307.219149	192.475000	1354.821289	291.890198
12307.219149	192.475000	1353.732422	465.516296
12307.219149	192.475000	1352.643555	227.684799
12307.219149	192.475000	1351.554688	244.377762
12307.219149	192.475000	1350.464844	362.751801
12307.219149	192.475000	1349.375000	438.763885
12307.219149	192.475000	1348.285156	403.393158
12307.219149	192.475000	1347.195313	371.620636
12307.219149	192.475000	1346.105469	391.470398
12307.219149	192.475000	1345.014648	485.561157
12307.219149	192.475000	1343.923828	600.481506
12307.219149	192.475000	1342.833008	542.057190
12307.219149	192.475000	1341.741211	763.691284
12307.219149	192.475000	1340.650391	805.335327
12307.219149	192.475000	1339.558594	925.686523
12307.219149	192.475000	1338.466797	745.069458
12307.219149	192.475000	1337.374023	877.287781
12307.219149	192.475000	1336.282227	867.861023
12307.219149	192.475000	1335.189453	691.806946
12307.219149	192.475000	1334.096680	664.748962
12307.219149	192.475000	1333.003906	791.320374
12307.219149	192.475000	1331.910156	711.712646
12307.219149	192.475000	1330.817383	622.367859
12307.219149	192.475000	1329.723633	563.832397
12307.219149	192.475000	1328.629883	770.011658
12307.219149	192.475000	1327.535156	769.881470
12307.219149	192.475000	1326.441406	858.474304
12307.219149	192.475000	1325.346680	809.653381
12307.219149	192.475000	1324.251953	739.528870
12307.219149	192.475000	1323.156250	743.566040
12307.219149	192.475000	1322.061523	740.394775
12307.219149	192.475000	1320.965820	855.066956
12307.219149	192.475000	1319.870117	790.581360
12307.219149	192.475000	1318.774414	599.335083
12307.219149	192.475000	1317.678711	731.238708
12307.219149	192.475000	1316.582031	640.741150
12307.219149	192.475000	1315.485352	447.533295
12307.219149	192.475000	1314.388672	538.990723
12307.219149	192.475000	1313.291016	627.054504
12307.219149	192.475000	1312.194336	522.270813
12307.219149	192.475000	1311.096680	389.562408
12307.219149	192.475000	1309.999023	330.989197
12307.219149	192.475000	1308.901367	356.723572
12307.219149	192.475000	1307.802734	512.876709
12307.219149	192.475000	1306.705078	502.128265
12307.219149	192.475000	1305.606445	444.776215
12307.219149	192.475000	1304.506836	444.949097
12307.219149	192.475000	1303.408203	505.388885
12307.219149	192.475000	1302.308594	283.099823
12307.219149	192.475000	1301.208984	434.905273
12307.219149	192.475000	1300.109375	569.906311
12307.219149	192.475000	1299.009766	322.859314
12307.219149	192.475000	1297.909180	339.229218
12307.219149	192.475000	1296.808594	249.459396
12307.219149	192.475000	1295.708008	295.811066
12307.219149	192.475000	1294.607422	298.978088
12307.219149	192.475000	1293.506836	210.676788
12307.219149	192.475000	1292.405273	204.567581
12307.219149	192.475000	1291.303711	29.115114
12307.219149	192.475000	1290.202148	68.627533
12307.219149	192.475000	1289.099609	166.308243
12307.219149	192.475000	1287.998047	138.366196
12307.219149	192.475000	1286.895508	89.665756
12307.219149	192.475000	1285.792969	108.017189
12307.219149	192.475000	1284.689453	52.428707
12307.219149	192.475000	1283.586914	23.338531
12307.219149	192.475000	1282.483398	89.017479
12307.219149	192.475000	1281.379883	126.192719
12307.219149	192.475000	1280.276367	77.442856
12307.219149	192.475000	1279.171875	131.905121
12307.219149	192.475000	1278.067383	-3.216842
12307.219149	192.475000	1276.962891	-76.841476
12307.219149	192.475000	1275.858398	95.400856
12307.219149	192.475000	1274.753906	-9.068462
12307.219149	192.475000	1273.648438	141.614441
12307.219149	192.475000	1272.542969	65.418762
12307.219149	192.475000	1271.437500	157.858658
12307.219149	192.475000	1270.331055	110.060738
12307.219149	192.475000	1269.225586	45.356285
12307.219149	192.475000	1268.119141	151.760742
12307.219149	192.475000	1267.012695	86.695366
12307.219149	192.475000	1265.906250	-108.589355
12307.219149	192.475000	1264.798828	-56.657158
12307.219149	192.475000	1263.691406	4.143627
12307.219149	192.475000	1262.583984	-31.226545
12307.219149	192.475000	1261.476563	36.795319
12307.219149	192.475000	1260.368164	30.545938
12307.219149	192.475000	1259.260742	-13.775530
12307.219149	192.475000	1258.152344	102.046837
12307.219149	192.475000	1257.043945	30.849195
12307.219149	192.475000	1255.934570	73.271042
12307.219149	192.475000	1254.825195	-103.128838
12307.219149	192.475000	1253.716797	32.447540
12307.219149	192.475000	1252.606445	-53.270702
12307.219149	192.475000	1251.497070	-63.932583
12307.219149	192.475000	1250.387695	1.173697
12307.219149	192.475000	1249.277344	12.858610
12307.219149	192.475000	1248.166992	44.104698
12307.219149	192.475000	1247.055664	75.642380
12307.219149	192.475000	1245.945313	81.629532
12307.219149	192.475000	1244.833984	-63.058475
12307.219149	192.475000	1243.722656	33.138020
12307.219149	192.475000	1242.611328	174.221481
12307.219149	192.475000	1241.499023	55.136227
12307.219149	192.475000	1240.387695	11.726592
12307.219149	192.475000	1239.275391	119.742050
12307.219149	192.475000	1238.162109	107.103058
12307.219149	192.475000	1237.049805	114.142189
12307.219149	192.475000	1235.936523	101.513252
12307.219149	192.475000	1234.823242	151.170395
12307.219149	192.475000	1233.709961	136.792847
12307.219149	192.475000	1232.596680	117.893822
12307.219149	192.475000	1231.482422	-12.363552
12307.219149	192.475000	1230.369141	-32.953377
12307.219149	192.475000	1229.253906	73.636124
12307.219149	192.475000	1228.139648	71.838570
12307.219149	192.475000	1227.025391	-7.679017
12307.219149	192.475000	1225.910156	-35.019112
12307.219149	192.475000	1224.794922	-96.551804
12307.219149	192.475000	1223.679688	-19.222847
12307.219149	192.475000	1222.563477	5.727579
12307.219149	192.475000	1221.447266	-76.967094
12307.219149	192.475000	1220.331055	42.178047
12307.219149	192.475000	1219.214844	101.539513
12307.219149	192.475000	1218.098633	18.064142
12307.219149	192.475000	1216.981445	75.493202
12307.219149	192.475000	1215.864258	26.245682
12307.219149	192.475000	1214.747070	39.010609
12307.219149	192.475000	1213.629883	-10.449755
12307.219149	192.475000	1212.511719	104.645905
12307.219149	192.475000	1211.393555	39.112095
12307.219149	192.475000	1210.275391	46.186684
12307.219149	192.475000	1209.157227	23.399523
12307.219149	192.475000	1208.038086	-51.439774
12307.219149	192.475000	1206.918945	66.425720
12307.219149	192.475000	1205.799805	25.889145
12307.219149	192.475000	1204.680664	38.577045
12307.219149	192.475000	1203.560547	-85.933403
12307.219149	192.475000	1202.441406	81.310616
12307.219149	192.475000	1201.321289	26.872065
12307.219149	192.475000	1200.200195	41.019077
12307.219149	192.475000	1199.080078	165.306076
12307.219149	192.475000	1197.958984	83.672951
12307.219149	192.475000	1196.837891	36.457752
12307.219149	192.475000	1195.716797	89.650322
12307.219149	192.475000	1194.594727	21.854160
12307.219149	192.475000	1193.473633	-83.926994
12307.219149	192.475000	1192.351563	-26.087307
12307.219149	192.475000	1191.229492	-97.230087
12307.219149	192.475000	1190.106445	-84.998924
12307.219149	192.475000	1188.984375	-55.055027
12307.219149	192.475000	1187.861328	-166.906906
12307.219149	192.475000	1186.738281	-80.284760
12307.219149	192.475000	1185.614258	6.779114
12307.219149	192.475000	1184.491211	3.000554
12307.219149	192.475000	1183.367188	-111.574341
12307.219149	192.475000	1182.243164	-24.239178
12307.219149	192.475000	1181.119141	9.294741
12307.219149	192.475000	1179.994141	-45.373104
12307.219149	192.475000	1178.869141	-134.237442
12307.219149	192.475000	1177.744141	-43.260559
12307.219149	192.475000	1176.619141	33.765232
12307.219149	192.475000	1175.493164	7.057516
12307.219149	192.475000	1174.368164	27.655655
12307.219149	192.475000	1173.242188	22.411186
12307.219149	192.475000	1172.115234	-41.829586
12307.219149	192.475000	1170.989258	8.962054
12307.219149	192.475000	1169.862305	-16.211071
12307.219149	192.475000	1168.735352	4.389853
12307.219149	192.475000	1167.608398	-34.314594
12307.219149	192.475000	1166.481445	-68.168480
12307.219149	192.475000	1165.353516	-0.199437
12307.219149	192.475000	1164.225586	-39.118774
12307.219149	192.475000	1163.097656	-16.040077
12307.219149	192.475000	1161.968750	-21.665833
12307.219149	192.475000	1160.840820	5.741014
12307.219149	192.475000	1159.711914	-45.916603
12307.219149	192.475000	1158.583008	-93.694611
12307.219149	192.475000	1157.453125	-93.600235
12307.219149	192.475000	1156.324219	-35.633575
12307.219149	192.475000	1155.194336	-56.724838
12307.219149	192.475000	1154.064453	-113.600754
12307.219149	192.475000	1152.933594	-173.887772
12307.219149	192.475000	1151.803711	-186.677612
12307.219149	192.475000	1150.672852	-117.940651
12307.219149	192.475000	1149.541992	-93.725807
12307.219149	192.475000	1148.411133	94.461769
12307.219149	192.475000	1147.279297	-37.929253
12307.219149	192.475000	1146.147461	-211.081009
12307.219149	192.475000	1145.015625	26.719624
12307.219149	192.475000	1143.883789	-218.477798
12307.219149	192.475000	1142.750977	-8.677817
12307.219149	192.475000	1141.619141	27.161575
12307.219149	192.475000	1140.486328	-27.030472
12307.219149	192.475000	1139.352539	-111.275749
12307.219149	192.475000	1138.219727	-102.292366
12307.219149	192.475000	1137.085938	-1.980883
12307.219149	192.475000	1135.952148	-54.196552
12307.219149	192.475000	1134.818359	-24.277483
12307.219149	192.475000	1133.683594	93.314598
12307.219149	192.475000	1132.549805	116.724144
12307.219149	192.475000	1131.415039	267.705627
12307.219149	192.475000	1130.279297	310.764648
12307.219149	192.475000	1129.144531	265.096588
12307.219149	192.475000	1128.008789	352.459717
12307.219149	192.475000	1126.873047	476.411072
12307.219149	192.475000	1125.737305	345.670227
12307.219149	192.475000	1124.601563	297.111969
12307.219149	192.475000	1123.464844	368.733368
12307.219149	192.475000	1122.328125	606.350464
12307.219149	192.475000	1121.191406	268.395599
12307.219149	192.475000	1120.054688	422.752441
12307.219149	192.475000	1118.916992	384.527344
12307.219149	192.475000	1117.779297	299.905548
12307.219149	192.475000	1116.641602	430.283356
12307.219149	192.475000	1115.503906	336.951630
12307.219149	192.475000	1114.365234	323.979523
12307.219149	192.475000	1113.226563	304.569977
12307.219149	192.475000	1112.087891	280.172058
12307.219149	192.475000	1110.949219	208.185989
12307.219149	192.475000	1109.809570	288.267761
12307.219149	192.475000	1108.669922	85.082375
12307.219149	192.475000	1107.530273	9.930433
12307.219149	192.475000	1106.390625	152.766891
12307.219149	192.475000	1105.250000	118.980057
12307.219149	192.475000	1104.109375	154.121735
12307.219149	192.475000	1102.968750	225.652756
12307.219149	192.475000	1101.828125	146.626678
12307.219149	192.475000	1100.686523	180.039169
12307.219149	192.475000	1099.544922	178.863998
12307.219149	192.475000	1098.403320	81.541527
12307.219149	192.475000	1097.261719	65.746429
12307.219149	192.475000	1096.120117	137.733490
12307.219149	192.475000	1094.977539	-11.025220
12307.219149	192.475000	1093.834961	184.053635
12307.219149	192.475000	1092.691406	231.148132
12307.219149	192.475000	1091.548828	134.503387
12307.219149	192.475000	1090.405273	244.588898
12307.219149	192.475000	1089.261719	169.280121
12307.219149	192.475000	1088.118164	121.225914
12307.219149	192.475000	1086.973633	15.078816
12307.219149	192.475000	1085.829102	170.273972
12307.219149	192.475000	1084.684570	76.941193
12307.219149	192.475000	1083.540039	142.087250
12307.219149	192.475000	1082.395508	106.144196
12307.219149	192.475000	1081.250000	111.755196
12307.219149	192.475000	1080.104492	-32.458916
12307.219149	192.475000	1078.958984	-63.418602
12307.219149	192.475000	1077.812500	28.979160
12307.219149	192.475000	1076.666016	179.818695
12307.219149	192.475000	1075.519531	-12.235973
12307.219149	192.475000	1074.373047	-54.799145
12307.219149	192.475000	1073.226563	79.823479
12307.219149	192.475000	1072.079102	17.817797
12307.219149	192.475000	1070.931641	137.453354
12307.219149	192.475000	1069.784180	79.134918
12307.219149	192.475000	1068.635742	-8.571814
12307.219149	192.475000	1067.487305	124.238541
12307.219149	192.475000	1066.338867	49.307667
12307.219149	192.475000	1065.190430	190.059875
12307.219149	192.475000	1064.041992	172.133316
12307.219149	192.475000	1062.892578	126.831863
12307.219149	192.475000	1061.743164	257.849640
12307.219149	192.475000	1060.593750	178.919540
12307.219149	192.475000	1059.443359	126.043571
12307.219149	192.475000	1058.292969	340.116180
12307.219149	192.475000	1057.142578	85.596825
12307.219149	192.475000	1055.992188	79.294609
12307.219149	192.475000	1054.841797	266.533264
12307.219149	192.475000	1053.690430	-14.385519
12307.219149	192.475000	1052.539063	3.439677
12307.219149	192.475000	1051.387695	77.567955
12307.219149	192.475000	1050.235352	141.778946
12307.219149	192.475000	1049.083984	62.489017
12307.219149	192.475000	1047.931641	-125.398376
12307.219149	192.475000	1046.778320	-105.008781
12307.219149	192.475000	1045.625977	146.125153
12307.219149	192.475000	1044.472656	252.549744
12307.219149	192.475000	1043.319336	110.922562
12307.219149	192.475000	1042.166016	146.615219
12307.219149	192.475000	1041.012695	79.352852
12307.219149	192.475000	1039.858398	162.094055
12307.219149	192.475000	1038.704102	43.120510
12307.219149	192.475000	1037.549805	58.335602
12307.219149	192.475000	1036.394531	45.770088
12307.219149	192.475000	1035.239258	-173.931931
12307.219149	192.475000	1034.083984	90.850220
12307.219149	192.475000	1032.928711	114.250862
12307.219149	192.475000	1031.773438	132.370667
12307.219149	192.475000	1030.617188	55.742207
12307.219149	192.475000	1029.460938	88.901337
12307.219149	192.475000	1028.304688	-94.733894
12307.219149	192.475000	1027.147461	81.885132
12307.219149	192.475000	1025.991211	89.871819
12307.219149	192.475000	1024.833984	226.368713
12307.219149	192.475000	1023.675781	64.711273
12307.219149	192.475000	1022.518555	134.077057
12307.219149	192.475000	1021.360352	190.434097
12307.219149	192.475000	1020.202148	-54.814770
12307.219149	192.475000	1019.043945	96.971649
12307.219149	192.475000	1017.884766	-4.082561
12307.219149	192.475000	1016.726563	14.271751
12307.219149	192.475000	1015.567383	24.610275
12307.219149	192.475000	1014.407227	137.487717
12307.219149	192.475000	1013.248047	-0.942316
12307.219149	192.475000	1012.087891	51.885464
12307.219149	192.475000	1010.927734	28.830648
12307.219149	192.475000	1009.767578	5.601837
12307.219149	192.475000	1008.606445	47.156887
12307.219149	192.475000	1007.446289	149.845520
12307.219149	192.475000	1006.285156	204.884094
12307.219149	192.475000	1005.123047	262.001160
12307.219149	192.475000	1003.961914	69.155487
12307.219149	192.475000	1002.799805	172.125290
12307.219149	192.475000	1001.637695	134.102448
12307.219149	192.475000	1000.475586	129.623672
12307.219149	192.475000	999.312500	146.961090
12307.219149	192.475000	998.149414	32.219254
12307.219149	192.475000	996.986328	124.545235
12307.219149	192.475000	995.823242	125.670624
12307.219149	192.475000	994.659180	133.551987
12307.219149	192.475000	993.496094	168.902496
12307.219149	192.475000	992.332031	27.163963
12307.219149	192.475000	991.166992	154.999039
12307.219149	192.475000	990.002930	180.865692
12307.219149	192.475000	988.837891	34.501965
12307.219149	192.475000	987.672852	197.557571
12307.219149	192.475000	986.506836	138.039688
12307.219149	192.475000	985.341797	-5.682345
12307.219149	192.475000	984.175781	30.794807
12307.219149	192.475000	983.009766	142.592667
12307.219149	192.475000	981.843750	152.948669
12307.219149	192.475000	980.676758	-7.941642
12307.219149	192.475000	979.509766	76.094582
12307.219149	192.475000	978.342773	60.373886
12307.219149	192.475000	977.175781	96.901787
12307.219149	192.475000	976.007813	56.338074
12307.219149	192.475000	974.839844	167.241943
12307.219149	192.475000	973.671875	159.777100
12307.219149	192.475000	972.503906	28.925154
12307.219149	192.475000	971.334961	83.894608
12307.219149	192.475000	970.166016	7.841929
12307.219149	192.475000	968.997070	43.955257
12307.219149	192.475000	967.828125	183.542847
12307.219149	192.475000	966.658203	164.666138
12307.219149	192.475000	965.488281	202.608170
12307.219149	192.475000	964.318359	108.475525
12307.219149	192.475000	963.148438	235.031052
12307.219149	192.475000	961.977539	239.392761
12307.219149	192.475000	960.806641	152.757324
12307.219149	192.475000	959.635742	382.916412
12307.219149	192.475000	958.463867	340.709656
12307.219149	192.475000	957.292969	308.810272
12307.219149	192.475000	956.121094	276.897827
12307.219149	192.475000	954.948242	197.150085
12307.219149	192.475000	953.776367	202.898697
12307.219149	192.475000	952.603516	382.945099
12307.219149	192.475000	951.430664	99.212746
12307.219149	192.475000	950.257813	197.873184
12307.219149	192.475000	949.084961	77.657028
12307.219149	192.475000	947.911133	159.655624
12307.219149	192.475000	946.737305	197.303268
12307.219149	192.475000	945.563477	146.285156
12307.219149	192.475000	944.388672	133.232132
12307.219149	192.475000	943.213867	31.904728
12307.219149	192.475000	942.039063	189.283066
12307.219149	192.475000	940.864258	128.099213
12307.219149	192.475000	939.688477	49.712936
12307.219149	192.475000	938.513672	232.305038
12307.219149	192.475000	937.337891	187.533356
12307.219149	192.475000	936.161133	50.528309
12307.219149	192.475000	934.985352	108.880035
12307.219149	192.475000	933.808594	53.651489
12307.219149	192.475000	932.631836	-18.507456
12307.219149	192.475000	931.454102	90.374619
12307.219149	192.475000	930.277344	424.260071
12307.219149	192.475000	929.099609	261.602325
12307.219149	192.475000	927.921875	181.050812
12307.219149	192.475000	926.743164	178.270752
12307.219149	192.475000	925.565430	135.512238
12307.219149	192.475000	924.386719	218.895523
12307.219149	192.475000	923.208008	123.562332
12307.219149	192.475000	922.028320	169.053741
12307.219149	192.475000	920.849609	113.652245
12307.219149	192.475000	919.669922	116.471573
12307.219149	192.475000	919.474609	281.379669
12307.219149	192.475000	918.309570	282.602295
12307.219149	192.475000	917.143555	166.219879
12307.219149	192.475000	915.977539	194.714096
12307.219149	192.475000	914.810547	197.990646
12307.219149	192.475000	913.644531	73.236046
12307.219149	192.475000	912.477539	143.628250
12307.219149	192.475000	911.310547	262.214417
12307.219149	192.475000	910.143555	124.877045
12307.219149	192.475000	908.975586	-196.936813
12307.219149	192.475000	907.807617	-28.104706
12307.219149	192.475000	906.639648	-6.074755
12307.219149	192.475000	905.471680	89.265945
12307.219149	192.475000	904.303711	144.741241
12307.219149	192.475000	903.134766	-70.029022
12307.219149	192.475000	901.965820	-54.373489
12307.219149	192.475000	900.796875	15.692328
12307.219149	192.475000	899.626953	60.590958
12307.219149	192.475000	898.457031	-1.287450
12307.219149	192.475000	897.287109	18.444908
12307.219149	192.475000	896.117188	-37.164501
12307.219149	192.475000	894.947266	28.542141
12307.219149	192.475000	893.776367	23.102989
12307.219149	192.475000	892.605469	15.554764
12307.219149	192.475000	891.434570	12.170023
12307.219149	192.475000	890.262695	-7.950633
12307.219149	192.475000	889.091797	-120.022293
12307.219149	192.475000	887.919922	-58.674923
12307.219149	192.475000	886.748047	46.488617
12307.219149	192.475000	885.575195	-25.905748
12307.219149	192.475000	884.403320	-35.658920
12307.219149	192.475000	883.230469	17.194693
12307.219149	192.475000	882.057617	61.659237
12307.219149	192.475000	880.883789	72.703812
12307.219149	192.475000	879.710938	-1.806332
12307.219149	192.475000	878.537109	-38.762188
12307.219149	192.475000	877.362305	-123.680336
12307.219149	192.475000	876.188477	20.742081
12307.219149	192.475000	875.013672	73.375671
12307.219149	192.475000	873.839844	25.938372
12307.219149	192.475000	872.664063	-154.840698
12307.219149	192.475000	871.489258	-91.845291
12307.219149	192.475000	870.313477	6.512355
12307.219149	192.475000	869.138672	27.766230
12307.219149	192.475000	867.962891	-46.768429
12307.219149	192.475000	866.786133	66.033882
12307.219149	192.475000	865.610352	-4.354287
12307.219149	192.475000	864.433594	-39.361938
12307.219149	192.475000	863.256836	12.990403
12307.219149	192.475000	862.079102	-24.121901
12307.219149	192.475000	860.902344	-27.971298
12307.219149	192.475000	859.724609	-42.230579
12307.219149	192.475000	858.546875	-29.483196
12307.219149	192.475000	857.368164	130.777679
12307.219149	192.475000	856.190430	-101.702698
12307.219149	192.475000	855.011719	-22.537189
12307.219149	192.475000	853.833008	64.884155
12307.219149	192.475000	852.654297	96.191750
12307.219149	192.475000	851.474609	-36.521709
12307.219149	192.475000	850.294922	17.588142
12307.219149	192.475000	849.115234	165.031601
12307.219149	192.475000	847.935547	-96.291412
12307.219149	192.475000	846.754883	-17.366873
12307.219149	192.475000	845.575195	-83.653381
12307.219149	192.475000	844.393555	-96.023590
12307.219149	192.475000	843.212891	-156.083786
12307.219149	192.475000	842.032227	-56.560238
12307.219149	192.475000	840.850586	-21.327192
12307.219149	192.475000	839.668945	38.732300
12307.219149	192.475000	838.486328	-27.590044
12307.219149	192.475000	837.304688	42.763493
12307.219149	192.475000	836.122070	-118.802391
12307.219149	192.475000	834.939453	-123.010056
12307.219149	192.475000	833.756836	7.279681
12307.219149	192.475000	832.573242	56.807182
12307.219149	192.475000	831.389648	-100.563431
12307.219149	192.475000	830.206055	104.041374
12307.219149	192.475000	829.022461	-59.513638
12307.219149	192.475000	827.838867	-158.933060
12307.219149	192.475000	826.654297	-76.442413
12307.219149	192.475000	825.469727	1.862993
12307.219149	192.475000	824.284180	7.807404
12307.219149	192.475000	823.099609	32.320946
12307.219149	192.475000	821.914063	-50.582699
12307.219149	192.475000	820.728516	-102.499252
12307.219149	192.475000	819.542969	-49.131840
12307.219149	192.475000	818.356445	-20.570866
12307.219149	192.475000	817.169922	123.514740
12307.219149	192.475000	815.983398	3.451640
12307.219149	192.475000	814.796875	11.302799
12307.219149	192.475000	813.609375	120.180397
12307.219149	192.475000	812.422852	-57.592613
12307.219149	192.475000	811.235352	-20.930071
12307.219149	192.475000	810.046875	-25.518559
12307.219149	192.475000	808.859375	-42.487667
12307.219149	192.475000	807.670898	-92.428581
12307.219149	192.475000	806.482422	-115.592140
12307.219149	192.475000	805.293945	79.512367
12307.219149	192.475000	804.104492	-94.006447
12307.219149	192.475000	802.915039	-1.942332
12307.219149	192.475000	801.725586	-33.412022
12307.219149	192.475000	800.536133	68.851547
12307.219149	192.475000	799.345703	76.427635
12307.219149	192.475000	798.155273	-8.567797
12307.219149	192.475000	796.964844	-33.916512
12307.219149	192.475000	795.774414	37.349720
12307.219149	192.475000	794.583008	36.629425
12307.219149	192.475000	793.392578	87.263611
12307.219149	192.475000	792.200195	98.822403
12307.219149	192.475000	791.008789	-2.619854
12307.219149	192.475000	789.816406	-112.252975
12307.219149	192.475000	788.625000	-22.694801
12307.219149	192.475000	787.432617	62.701702
12307.219149	192.475000	786.239258	80.314873
12307.219149	192.475000	785.046875	-12.907136
12307.219149	192.475000	783.853516	-73.284164
12307.219149	192.475000	782.660156	108.377571
12307.219149	192.475000	781.465820	6.947123
12307.219149	192.475000	780.272461	79.812721
12307.219149	192.475000	779.078125	43.985928
12307.219149	192.475000	777.883789	198.751419
12307.219149	192.475000	776.688477	160.826324
12307.219149	192.475000	775.494141	59.390984
12307.219149	192.475000	774.298828	84.963669
12307.219149	192.475000	773.103516	61.359886
12307.219149	192.475000	771.907227	37.745914
12307.219149	192.475000	770.711914	-28.863300
12307.219149	192.475000	769.515625	176.713959
12307.219149	192.475000	768.318359	95.741257
12307.219149	192.475000	767.122070	-24.084702
12307.219149	192.475000	765.924805	-0.718542
12307.219149	192.475000	764.727539	-24.412031
12307.219149	192.475000	763.530273	-117.623222
12307.219149	192.475000	762.333008	-55.480080
12307.219149	192.475000	761.134766	41.355892
12307.219149	192.475000	759.936523	52.322445
12307.219149	192.475000	758.738281	38.752544
12307.219149	192.475000	757.540039	-27.930023
12307.219149	192.475000	756.340820	27.900780
12307.219149	192.475000	755.141602	51.025543
12307.219149	192.475000	753.942383	78.202042
12307.219149	192.475000	752.742188	111.467392
12307.219149	192.475000	751.541992	-12.387990
12307.219149	192.475000	750.341797	159.535751
12307.219149	192.475000	749.141602	229.405579
12307.219149	192.475000	747.941406	160.586700
12307.219149	192.475000	746.740234	146.811447
12307.219149	192.475000	745.539063	361.270233
12307.219149	192.475000	744.337891	-49.900738
12307.219149	192.475000	743.135742	229.653870
12307.219149	192.475000	741.933594	107.845718
12307.219149	192.475000	740.731445	157.111786
12307.219149	192.475000	739.529297	409.917358
12307.219149	192.475000	738.326172	575.073792
12307.219149	192.475000	737.124023	689.265015
12307.219149	192.475000	735.919922	732.177368
12307.219149	192.475000	734.716797	1120.850464
12307.219149	192.475000	733.513672	1322.240234
12307.219149	192.475000	732.309570	1509.290283
12307.219149	192.475000	731.105469	1590.531860
12307.219149	192.475000	729.900391	1425.793945
12307.219149	192.475000	728.696289	1462.271362
12307.219149	192.475000	727.491211	1269.143311
12307.219149	192.475000	726.286133	1065.917603
12307.219149	192.475000	725.080078	895.246582
12307.219149	192.475000	723.874023	811.927612
12307.219149	192.475000	722.668945	657.575989
12307.219149	192.475000	721.461914	645.327271
12307.219149	192.475000	720.255859	529.581970
12307.219149	192.475000	719.048828	379.375946
12307.219149	192.475000	717.841797	148.084076
12307.219149	192.475000	716.634766	196.696152
12307.219149	192.475000	715.427734	224.992447
12307.219149	192.475000	714.219727	44.483700
12307.219149	192.475000	713.011719	-97.468750
12307.219149	192.475000	711.803711	-16.518215
12307.219149	192.475000	710.594727	56.272774
12307.219149	192.475000	709.385742	-8.702171
12307.219149	192.475000	708.176758	43.764980
12307.219149	192.475000	706.967773	39.506302
12307.219149	192.475000	705.758789	122.255707
12307.219149	192.475000	704.548828	81.514557
12307.219149	192.475000	703.338867	-17.901073
12307.219149	192.475000	702.127930	72.831917
12307.219149	192.475000	700.917969	-71.073181
12307.219149	192.475000	699.707031	-57.239746
12307.219149	192.475000	698.496094	25.292910
12307.219149	192.475000	697.285156	198.711853
12307.219149	192.475000	696.073242	22.483692
12307.219149	192.475000	694.861328	133.162903
12307.219149	192.475000	693.649414	-67.256767
12307.219149	192.475000	692.436523	29.215624
12307.219149	192.475000	691.224609	81.212135
12307.219149	192.475000	690.011719	175.551529
12307.219149	192.475000	688.798828	205.254211
12307.219149	192.475000	687.584961	-35.431068
12307.219149	192.475000	686.372070	36.620548
12307.219149	192.475000	685.158203	-16.416822
12307.219149	192.475000	683.943359	87.816734
12307.219149	192.475000	682.729492	127.478912
12307.219149	192.475000	681.514648	60.283775
12307.219149	192.475000	680.299805	25.336369
12307.219149	192.475000	679.084961	95.141685
12307.219149	192.475000	677.869141	33.975220
12307.219149	192.475000	676.653320	87.596848
12307.219149	192.475000	675.437500	42.522816
12307.219149	192.475000	674.221680	-60.925945
12307.219149	192.475000	673.004883	-51.654659
12307.219149	192.475000	671.789063	-42.406181
12307.219149	192.475000	670.571289	-121.694839
12307.219149	192.475000	669.354492	20.262537
12307.219149	192.475000	668.136719	21.385290
12307.219149	192.475000	666.919922	52.644077
12307.219149	192.475000	665.701172	95.927727
12307.219149	192.475000	664.483398	135.155853
12307.219149	192.475000	663.264648	182.383911
12307.219149	192.475000	662.045898	34.733353
12307.219149	192.475000	660.827148	19.669207
12307.219149	192.475000	659.608398	-57.648678
12307.219149	192.475000	658.388672	47.718113
12307.219149	192.475000	657.168945	90.806137
12307.219149	192.475000	655.949219	147.903671
12307.219149	192.475000	654.728516	-7.689561
12307.219149	192.475000	653.507813	235.897034
12307.219149	192.475000	652.287109	42.215908
12307.219149	192.475000	651.066406	107.223343
12307.219149	192.475000	649.844727	71.964134
12307.219149	192.475000	648.623047	48.726913
12307.219149	192.475000	647.401367	-8.577931
12307.219149	192.475000	646.179688	132.436554
12307.219149	192.475000	644.957031	105.145218
12307.219149	192.475000	643.734375	165.950531
12307.219149	192.475000	642.511719	146.639359
12307.219149	192.475000	641.289063	283.434143
12307.219149	192.475000	640.065430	3.941109
12307.219149	192.475000	638.841797	18.639481
12307.219149	192.475000	637.618164	99.322975
12307.219149	192.475000	636.393555	51.972340
12307.219149	192.475000	635.168945	82.601006
12307.219149	192.475000	633.944336	11.258566
12307.219149	192.475000	632.719727	-22.096201
12307.219149	192.475000	631.494141	42.453468
12307.219149	192.475000	630.269531	-16.889452
12307.219149	192.475000	629.042969	87.548561
12307.219149	192.475000	627.817383	66.133636
12307.219149	192.475000	626.590820	-15.176996
12307.219149	192.475000	625.365234	11.316805
12307.219149	192.475000	624.137695	-93.919052
12307.219149	192.475000	622.911133	8.369862
12307.219149	192.475000	621.683594	148.501572
12307.219149	192.475000	620.456055	95.120522
12307.219149	192.475000	619.228516	-4.106466
12307.219149	192.475000	618.000977	70.125137
12307.219149	192.475000	616.772461	-19.110741
12307.219149	192.475000	615.543945	122.818672
12307.219149	192.475000	614.314453	77.416496
12307.219149	192.475000	613.085938	219.247314
12307.219149	192.475000	611.856445	118.069954
12307.219149	192.475000	610.626953	190.133438
12307.219149	192.475000	609.397461	122.827278
12307.219149	192.475000	608.166992	242.602325
12307.219149	192.475000	606.936523	89.744736
12307.219149	192.475000	605.706055	145.808563
12307.219149	192.475000	604.474609	50.695358
12307.219149	192.475000	603.244141	108.719772
12307.219149	192.475000	602.012695	-65.873566
12307.219149	192.475000	600.780273	-31.713213
12307.219149	192.475000	599.548828	-238.005966
12307.219149	192.475000	598.316406	14.696874
12307.219149	192.475000	597.083984	26.955433
12307.219149	192.475000	595.851563	37.219276
12307.219149	192.475000	594.618164	-43.853714
12307.219149	192.475000	593.384766	-134.820129
12307.219149	192.475000	592.151367	-118.586342
12307.219149	192.475000	590.917969	-19.029938
12307.219149	192.475000	589.683594	9.067990
12307.219149	192.475000	588.449219	-24.329119
12307.219149	192.475000	587.214844	-180.649139
12307.219149	192.475000	585.979492	-93.068672
12307.219149	192.475000	584.745117	20.241144
12307.219149	192.475000	583.509766	-147.881851
12307.219149	192.475000	582.273438	-149.518860
12307.219149	192.475000	581.038086	-85.789757
12307.219149	192.475000	579.801758	-49.812759
12307.219149	192.475000	578.565430	-164.321228
12307.219149	192.475000	577.329102	-55.100964
12307.219149	192.475000	576.091797	28.345230
12307.219149	192.475000	574.854492	24.698534
12307.219149	192.475000	573.617188	42.815704
12307.219149	192.475000	572.378906	25.326263
12307.219149	192.475000	571.141602	-9.947348
12307.219149	192.475000	569.903320	55.618347
12307.219149	192.475000	568.664063	-56.727325
12307.219149	192.475000	567.425781	30.564590
12307.219149	192.475000	566.186523	-36.279881
12307.219149	192.475000	564.947266	-73.462944
12307.219149	192.475000	563.708008	-116.550262
12307.219149	192.475000	562.467773	27.950949
12307.219149	192.475000	561.227539	26.321850
12307.219149	192.475000	559.987305	24.698898
12307.219149	192.475000	558.747070	-4.542193
12307.219149	192.475000	557.505859	-37.711884
12307.219149	192.475000	556.264648	59.309299
12307.219149	192.475000	555.023438	73.476624
12307.219149	192.475000	553.781250	115.242798
12307.219149	192.475000	552.539063	44.649601
12307.219149	192.475000	551.296875	41.093189
12307.219149	192.475000	550.054688	199.099564
12307.219149	192.475000	548.811523	221.130707
12307.219149	192.475000	547.569336	75.767426
12307.219149	192.475000	546.325195	-85.280907
12307.219149	192.475000	545.082031	-53.339699
12307.219149	192.475000	543.837891	73.060715
12307.219149	192.475000	542.593750	59.711464
12307.219149	192.475000	541.349609	26.702900
12307.219149	192.475000	540.105469	78.288445
12307.219149	192.475000	538.860352	190.815216
12307.219149	192.475000	537.615234	37.896526
12307.219149	192.475000	536.369141	-42.226017
12307.219149	192.475000	535.124023	70.275673
12307.219149	192.475000	533.877930	47.171005
12307.219149	192.475000	532.631836	-3.416590
12307.219149	192.475000	531.384766	-89.326599
12307.219149	192.475000	530.138672	-82.910782
12307.219149	192.475000	528.891602	70.733528
12307.219149	192.475000	527.643555	-1.381165
12307.219149	192.475000	526.396484	73.705269
12307.219149	192.475000	525.148438	-2.291067
12307.219149	192.475000	523.900391	-3.719144
12307.219149	192.475000	522.652344	-99.264847
12307.219149	192.475000	521.403320	-32.045666
12307.219149	192.475000	520.154297	-31.493692
12307.219149	192.475000	518.905273	-9.381820
12307.219149	192.475000	517.656250	16.642517
12307.219149	192.475000	516.406250	70.080849
12307.219149	192.475000	515.156250	-42.964401
12307.219149	192.475000	513.906250	-54.145168
12307.219149	192.475000	512.655273	71.706474
12307.219149	192.475000	511.404297	78.120575
12307.219149	192.475000	510.153320	131.492432
12307.219149	192.475000	508.902344	16.600622
12307.219149	192.475000	507.650391	54.312138
12307.219149	192.475000	506.398438	-29.231827
12307.219149	192.475000	505.146484	-175.304092
12307.219149	192.475000	503.893555	26.599380
12307.219149	192.475000	502.641602	-23.676783
12307.219149	192.475000	501.388672	150.743515
12307.219149	192.475000	500.134766	184.440277
12307.219149	192.475000	498.881836	157.574875
12307.219149	192.475000	497.627930	140.472946
12307.219149	192.475000	496.374023	168.265076
12307.219149	192.475000	495.119141	213.597015
12307.219149	192.475000	493.865234	139.872635
12307.219149	192.475000	492.610352	136.392914
12307.219149	192.475000	491.355469	45.131470
12307.219149	192.475000	490.099609	189.836823
12307.219149	192.475000	488.843750	135.606537
12307.219149	192.475000	487.587891	245.106476
12307.219149	192.475000	486.332031	89.511269
12307.219149	192.475000	485.075195	196.977295
12307.219149	192.475000	483.818359	187.498886
12307.219149	192.475000	482.561523	107.888153
12307.219149	192.475000	481.304688	333.966888
12307.219149	192.475000	480.046875	248.456039
12307.219149	192.475000	478.789063	199.925461
12307.219149	192.475000	477.531250	198.079010
12307.219149	192.475000	476.272461	338.204254
12307.219149	192.475000	475.013672	246.780548
12307.219149	192.475000	473.754883	310.914337
12307.219149	192.475000	472.496094	376.919617
12307.219149	192.475000	471.236328	460.339264
12307.219149	192.475000	469.976563	341.572388
12307.219149	192.475000	468.716797	265.545868
12307.219149	192.475000	467.456055	251.651489
12307.219149	192.475000	466.196289	327.037628
12307.219149	192.475000	464.935547	382.910706
12307.219149	192.475000	463.673828	442.574127
12307.219149	192.475000	462.413086	432.277863
12307.219149	192.475000	461.151367	443.255585
12307.219149	192.475000	459.889648	314.479126
12307.219149	192.475000	458.626953	379.625732
12307.219149	192.475000	457.364258	514.467529
12307.219149	192.475000	456.101563	323.470917
12307.219149	192.475000	454.838867	446.459290
12307.219149	192.475000	453.575195	590.613586
12307.219149	192.475000	452.312500	457.561829
12307.219149	192.475000	451.047852	556.896301
12307.219149	192.475000	449.784180	508.904510
12307.219149	192.475000	448.519531	369.820038
12307.219149	192.475000	447.254883	509.422852
12307.219149	192.475000	445.990234	474.666779
12307.219149	192.475000	444.725586	486.237030
12307.219149	192.475000	443.459961	727.867981
12307.219149	192.475000	442.194336	636.603149
12307.219149	192.475000	440.927734	694.121338
12307.219149	192.475000	439.662109	691.541809
12307.219149	192.475000	438.395508	690.739075
12307.219149	192.475000	437.127930	531.320557
12307.219149	192.475000	435.861328	673.194275
12307.219149	192.475000	434.593750	528.965698
12307.219149	192.475000	433.326172	537.180847
12307.219149	192.475000	432.058594	680.358459
12307.219149	192.475000	430.790039	722.904114
12307.219149	192.475000	429.521484	684.182190
12307.219149	192.475000	428.252930	728.238770
12307.219149	192.475000	426.984375	804.859924
12307.219149	192.475000	425.714844	653.649597
12307.219149	192.475000	424.445313	743.303711
12307.219149	192.475000	423.174805	645.687195
12307.219149	192.475000	421.905273	750.249817
12307.219149	192.475000	420.634766	646.405029
12307.219149	192.475000	419.364258	654.085999
12307.219149	192.475000	418.092773	565.187378
12307.219149	192.475000	416.822266	838.089417
12307.219149	192.475000	415.550781	696.652466
12307.219149	192.475000	414.278320	572.301636
12307.219149	192.475000	413.006836	593.968689
12307.219149	192.475000	411.734375	547.968933
12307.219149	192.475000	410.461914	644.015991
12307.219149	192.475000	409.188477	420.436920
12307.219149	192.475000	407.916016	444.659546
12307.219149	192.475000	406.642578	526.185059
12307.219149	192.475000	405.368164	445.863647
12307.219149	192.475000	404.094727	493.956055
12307.219149	192.475000	402.820313	451.345856
12307.219149	192.475000	401.545898	364.185699
12307.219149	192.475000	400.270508	478.275177
12307.219149	192.475000	398.996094	589.989197
12307.219149	192.475000	397.720703	459.369537
12307.219149	192.475000	396.444336	458.845734
12307.219149	192.475000	395.168945	619.042297
12307.219149	192.475000	393.892578	554.265381
12307.219149	192.475000	392.616211	586.842224
12307.219149	192.475000	391.339844	622.747253
12307.219149	192.475000	390.062500	431.921112
12307.219149	192.475000	388.785156	461.054688
12307.219149	192.475000	387.507813	391.921234
12307.219149	192.475000	386.229492	624.931030
12307.219149	192.475000	384.951172	501.036041
12307.219149	192.475000	383.672852	386.190155
12307.219149	192.475000	382.394531	433.525848
12307.219149	192.475000	381.115234	466.815674
12307.219149	192.475000	379.835938	518.599854
12307.219149	192.475000	378.556641	351.616333
12307.219149	192.475000	377.277344	394.447388
12307.219149	192.475000	375.997070	377.283264
12307.219149	192.475000	374.716797	202.653000
12307.219149	192.475000	373.435547	445.988220
12307.219149	192.475000	372.155273	396.106232
12307.219149	192.475000	370.874023	385.601166
12307.219149	192.475000	369.591797	299.811340
12307.219149	192.475000	368.310547	620.087646
12307.219149	192.475000	367.028320	295.916077
12307.219149	192.475000	365.746094	396.767426
12307.219149	192.475000	364.463867	382.210754
12307.219149	192.475000	363.180664	361.041901
12307.219149	192.475000	361.897461	199.723557
12307.219149	192.475000	360.614258	361.811829
12307.219149	192.475000	359.330078	152.922562
12307.219149	192.475000	358.045898	309.217438
12307.219149	192.475000	356.761719	262.415375
12307.219149	192.475000	355.477539	281.327667
12307.219149	192.475000	354.192383	161.995178
12307.219149	192.475000	352.907227	213.098312
12307.219149	192.475000	351.622070	213.584732
12307.219149	192.475000	350.336914	184.407547
12307.219149	192.475000	349.050781	100.781242
12307.219149	192.475000	347.764648	265.354370
12307.219149	192.475000	346.477539	48.081902
12307.219149	192.475000	345.191406	-0.960531
12307.219149	192.475000	343.904297	251.156036
12307.219149	192.475000	342.616211	87.324341
12307.219149	192.475000	341.329102	99.108482
12307.219149	192.475000	340.041016	-34.927174
12307.219149	192.475000	338.752930	23.569918
12307.219149	192.475000	337.463867	17.919361
12307.219149	192.475000	336.175781	-2.400605
12307.219149	192.475000	334.886719	-18.503855
12307.219149	192.475000	333.596680	-30.427547
12307.219149	192.475000	332.307617	20.723497
12307.219149	192.475000	331.017578	72.159157
12307.219149	192.475000	329.727539	63.172012
12307.219149	192.475000	328.436523	-27.147947
12307.219149	192.475000	327.146484	-105.752998
12307.219149	192.475000	325.855469	18.724827
12307.219149	192.475000	324.563477	213.411789
12307.219149	192.475000	323.272461	123.902321
12307.219149	192.475000	321.980469	-136.065231
12307.219149	192.475000	320.688477	55.028675
12307.219149	192.475000	319.395508	-43.793217
12307.219149	192.475000	318.103516	-125.491646
12307.219149	192.475000	316.810547	-34.988338
12307.219149	192.475000	315.516602	-43.117161
12307.219149	192.475000	314.223633	-145.948364
12307.219149	192.475000	312.929688	40.492626
12307.219149	192.475000	311.635742	-68.470589
12307.219149	192.475000	310.340820	58.667385
12307.219149	192.475000	309.045898	-141.676453
12307.219149	192.475000	307.750977	96.261894
12307.219149	192.475000	306.456055	-68.877357
12307.219149	192.475000	305.160156	-132.445190
12307.219149	192.475000	303.865234	26.497698
12307.219149	192.475000	302.568359	3.339920
12307.219149	192.475000	301.272461	83.517860
12307.219149	192.475000	299.975586	198.790115
12307.219149	192.475000	298.678711	279.324493
