#X		#Y		#Wave		#Intensity
11876.285638	1410.570000	1999.980469	-43.326675
11876.285638	1410.570000	1999.016602	-49.683270
11876.285638	1410.570000	1998.052734	-7.304196
11876.285638	1410.570000	1997.087891	54.840099
11876.285638	1410.570000	1996.123047	183.813248
11876.285638	1410.570000	1995.158203	82.315163
11876.285638	1410.570000	1994.193359	-53.862427
11876.285638	1410.570000	1993.228516	129.411499
11876.285638	1410.570000	1992.262695	97.180862
11876.285638	1410.570000	1991.297852	114.430046
11876.285638	1410.570000	1990.332031	-73.782181
11876.285638	1410.570000	1989.366211	96.834526
11876.285638	1410.570000	1988.399414	76.855095
11876.285638	1410.570000	1987.433594	-42.093262
11876.285638	1410.570000	1986.466797	-74.473152
11876.285638	1410.570000	1985.500977	81.044876
11876.285638	1410.570000	1984.534180	26.340336
11876.285638	1410.570000	1983.567383	-107.468681
11876.285638	1410.570000	1982.599609	-112.753357
11876.285638	1410.570000	1981.632813	57.360397
11876.285638	1410.570000	1980.665039	-41.882027
11876.285638	1410.570000	1979.697266	108.342117
11876.285638	1410.570000	1978.729492	70.808609
11876.285638	1410.570000	1977.761719	15.981709
11876.285638	1410.570000	1976.792969	180.845932
11876.285638	1410.570000	1975.825195	93.885925
11876.285638	1410.570000	1974.856445	76.027336
11876.285638	1410.570000	1973.887695	3.876661
11876.285638	1410.570000	1972.918945	67.397583
11876.285638	1410.570000	1971.949219	-120.678024
11876.285638	1410.570000	1970.980469	51.294804
11876.285638	1410.570000	1970.010742	70.336632
11876.285638	1410.570000	1969.041016	-26.493874
11876.285638	1410.570000	1968.071289	-66.625191
11876.285638	1410.570000	1967.101563	4.116704
11876.285638	1410.570000	1966.130859	84.670044
11876.285638	1410.570000	1965.161133	-44.177017
11876.285638	1410.570000	1964.190430	191.464432
11876.285638	1410.570000	1963.219727	62.615490
11876.285638	1410.570000	1962.249023	81.498451
11876.285638	1410.570000	1961.277344	53.598778
11876.285638	1410.570000	1960.306641	161.035248
11876.285638	1410.570000	1959.334961	118.345009
11876.285638	1410.570000	1958.363281	-12.893717
11876.285638	1410.570000	1957.391602	106.757133
11876.285638	1410.570000	1956.419922	51.772697
11876.285638	1410.570000	1955.447266	102.510849
11876.285638	1410.570000	1954.474609	77.023911
11876.285638	1410.570000	1953.501953	83.485252
11876.285638	1410.570000	1952.529297	104.677574
11876.285638	1410.570000	1951.556641	17.763962
11876.285638	1410.570000	1950.583984	-96.142342
11876.285638	1410.570000	1949.610352	111.680183
11876.285638	1410.570000	1948.636719	-21.856781
11876.285638	1410.570000	1947.663086	122.037720
11876.285638	1410.570000	1946.689453	-43.370266
11876.285638	1410.570000	1945.715820	156.902069
11876.285638	1410.570000	1944.741211	16.072754
11876.285638	1410.570000	1943.767578	-95.273552
11876.285638	1410.570000	1942.792969	-83.958580
11876.285638	1410.570000	1941.818359	15.620736
11876.285638	1410.570000	1940.842773	34.257526
11876.285638	1410.570000	1939.868164	-30.453770
11876.285638	1410.570000	1938.892578	51.895508
11876.285638	1410.570000	1937.916992	-12.800597
11876.285638	1410.570000	1936.941406	59.710175
11876.285638	1410.570000	1935.965820	-56.402939
11876.285638	1410.570000	1934.990234	-128.395523
11876.285638	1410.570000	1934.013672	10.196883
11876.285638	1410.570000	1933.037109	-25.065718
11876.285638	1410.570000	1932.060547	91.426308
11876.285638	1410.570000	1931.083984	14.560899
11876.285638	1410.570000	1930.107422	45.371983
11876.285638	1410.570000	1929.129883	22.356661
11876.285638	1410.570000	1928.153320	28.697664
11876.285638	1410.570000	1927.175781	64.378212
11876.285638	1410.570000	1926.198242	-34.413803
11876.285638	1410.570000	1925.219727	145.477859
11876.285638	1410.570000	1924.242188	14.939033
11876.285638	1410.570000	1923.263672	70.144791
11876.285638	1410.570000	1922.285156	66.700951
11876.285638	1410.570000	1921.306641	-12.455804
11876.285638	1410.570000	1920.328125	-32.974251
11876.285638	1410.570000	1919.349609	5.113035
11876.285638	1410.570000	1918.370117	-0.751614
11876.285638	1410.570000	1917.391602	42.200348
11876.285638	1410.570000	1916.412109	2.171813
11876.285638	1410.570000	1915.431641	118.301559
11876.285638	1410.570000	1914.452148	5.100296
11876.285638	1410.570000	1913.472656	40.710022
11876.285638	1410.570000	1912.492188	-33.416698
11876.285638	1410.570000	1911.511719	92.393234
11876.285638	1410.570000	1910.531250	-42.646736
11876.285638	1410.570000	1909.550781	36.819904
11876.285638	1410.570000	1908.569336	1.742771
11876.285638	1410.570000	1907.588867	17.839018
11876.285638	1410.570000	1906.607422	43.674301
11876.285638	1410.570000	1905.625977	-42.515339
11876.285638	1410.570000	1904.644531	-55.628807
11876.285638	1410.570000	1903.662109	-102.814156
11876.285638	1410.570000	1902.680664	-62.362595
11876.285638	1410.570000	1901.698242	-107.090302
11876.285638	1410.570000	1900.715820	20.936470
11876.285638	1410.570000	1899.733398	-50.541561
11876.285638	1410.570000	1898.750000	23.928604
11876.285638	1410.570000	1897.767578	-11.044882
11876.285638	1410.570000	1896.784180	-106.779663
11876.285638	1410.570000	1895.800781	-8.026604
11876.285638	1410.570000	1894.817383	20.217682
11876.285638	1410.570000	1893.833984	12.008341
11876.285638	1410.570000	1892.850586	30.526493
11876.285638	1410.570000	1891.866211	56.326683
11876.285638	1410.570000	1890.881836	11.697546
11876.285638	1410.570000	1889.897461	-81.469849
11876.285638	1410.570000	1888.913086	-16.817160
11876.285638	1410.570000	1887.927734	33.252144
11876.285638	1410.570000	1886.943359	5.656157
11876.285638	1410.570000	1885.958008	58.132908
11876.285638	1410.570000	1884.972656	-90.734085
11876.285638	1410.570000	1883.987305	-14.002994
11876.285638	1410.570000	1883.001953	-162.795975
11876.285638	1410.570000	1882.015625	-47.288486
11876.285638	1410.570000	1881.029297	77.873482
11876.285638	1410.570000	1880.042969	-53.884880
11876.285638	1410.570000	1879.056641	-1.452325
11876.285638	1410.570000	1878.070313	2.513817
11876.285638	1410.570000	1877.083984	52.497334
11876.285638	1410.570000	1876.096680	5.602056
11876.285638	1410.570000	1875.109375	53.147774
11876.285638	1410.570000	1874.122070	93.415138
11876.285638	1410.570000	1873.134766	87.685280
11876.285638	1410.570000	1872.146484	40.822773
11876.285638	1410.570000	1871.159180	-71.340828
11876.285638	1410.570000	1870.170898	24.555544
11876.285638	1410.570000	1869.182617	11.590452
11876.285638	1410.570000	1868.194336	-25.548244
11876.285638	1410.570000	1867.205078	-62.672749
11876.285638	1410.570000	1866.216797	-36.940788
11876.285638	1410.570000	1865.227539	12.946213
11876.285638	1410.570000	1864.238281	-53.157330
11876.285638	1410.570000	1863.249023	-22.611422
11876.285638	1410.570000	1862.259766	-54.871281
11876.285638	1410.570000	1861.269531	48.104401
11876.285638	1410.570000	1860.279297	-34.857815
11876.285638	1410.570000	1859.290039	-125.031441
11876.285638	1410.570000	1858.298828	-53.476387
11876.285638	1410.570000	1857.308594	49.418224
11876.285638	1410.570000	1856.318359	116.086258
11876.285638	1410.570000	1855.327148	30.771643
11876.285638	1410.570000	1854.335938	75.711098
11876.285638	1410.570000	1853.344727	144.742844
11876.285638	1410.570000	1852.353516	11.252467
11876.285638	1410.570000	1851.362305	-86.037048
11876.285638	1410.570000	1850.370117	-0.151809
11876.285638	1410.570000	1849.377930	51.969120
11876.285638	1410.570000	1848.385742	14.940329
11876.285638	1410.570000	1847.393555	-17.260323
11876.285638	1410.570000	1846.401367	-75.938667
11876.285638	1410.570000	1845.408203	-50.336151
11876.285638	1410.570000	1844.415039	73.941170
11876.285638	1410.570000	1843.421875	5.642638
11876.285638	1410.570000	1842.428711	86.545441
11876.285638	1410.570000	1841.435547	126.518051
11876.285638	1410.570000	1840.441406	36.589993
11876.285638	1410.570000	1839.448242	9.215393
11876.285638	1410.570000	1838.454102	-3.727214
11876.285638	1410.570000	1837.459961	81.889053
11876.285638	1410.570000	1836.464844	1.633247
11876.285638	1410.570000	1835.470703	12.714897
11876.285638	1410.570000	1834.475586	21.385548
11876.285638	1410.570000	1833.480469	106.912727
11876.285638	1410.570000	1832.485352	81.929070
11876.285638	1410.570000	1831.490234	119.379234
11876.285638	1410.570000	1830.495117	34.374386
11876.285638	1410.570000	1829.499023	227.823364
11876.285638	1410.570000	1828.502930	68.424896
11876.285638	1410.570000	1827.506836	36.245197
11876.285638	1410.570000	1826.510742	92.829514
11876.285638	1410.570000	1825.513672	43.855244
11876.285638	1410.570000	1824.517578	28.464643
11876.285638	1410.570000	1823.520508	-15.697788
11876.285638	1410.570000	1822.523438	38.429966
11876.285638	1410.570000	1821.526367	85.339928
11876.285638	1410.570000	1820.529297	26.793167
11876.285638	1410.570000	1819.531250	-12.573009
11876.285638	1410.570000	1818.533203	79.806870
11876.285638	1410.570000	1817.535156	-7.466293
11876.285638	1410.570000	1816.537109	-3.729079
11876.285638	1410.570000	1815.539063	105.330360
11876.285638	1410.570000	1814.540039	130.569031
11876.285638	1410.570000	1813.541992	21.781698
11876.285638	1410.570000	1812.542969	-63.047928
11876.285638	1410.570000	1811.543945	103.316086
11876.285638	1410.570000	1810.543945	116.542244
11876.285638	1410.570000	1809.544922	48.454185
11876.285638	1410.570000	1808.544922	64.058022
11876.285638	1410.570000	1807.544922	98.768425
11876.285638	1410.570000	1806.544922	90.439262
11876.285638	1410.570000	1805.544922	10.421927
11876.285638	1410.570000	1804.544922	-12.240748
11876.285638	1410.570000	1803.543945	98.849655
11876.285638	1410.570000	1802.542969	90.486298
11876.285638	1410.570000	1801.541992	-27.713295
11876.285638	1410.570000	1800.541016	61.801514
11876.285638	1410.570000	1799.539063	46.257244
11876.285638	1410.570000	1798.538086	-50.423111
11876.285638	1410.570000	1797.536133	-65.962166
11876.285638	1410.570000	1796.534180	11.521201
11876.285638	1410.570000	1795.532227	24.572256
11876.285638	1410.570000	1794.529297	78.142082
11876.285638	1410.570000	1793.527344	43.473122
11876.285638	1410.570000	1792.524414	-10.263285
11876.285638	1410.570000	1791.521484	-21.095636
11876.285638	1410.570000	1790.518555	-48.614395
11876.285638	1410.570000	1789.514648	57.265270
11876.285638	1410.570000	1788.511719	27.336214
11876.285638	1410.570000	1787.507813	21.217421
11876.285638	1410.570000	1786.503906	136.510345
11876.285638	1410.570000	1785.500000	-19.614239
11876.285638	1410.570000	1784.496094	71.817688
11876.285638	1410.570000	1783.491211	-65.226311
11876.285638	1410.570000	1782.486328	109.418266
11876.285638	1410.570000	1781.481445	38.992531
11876.285638	1410.570000	1780.476563	20.898222
11876.285638	1410.570000	1779.471680	9.930157
11876.285638	1410.570000	1778.465820	96.417679
11876.285638	1410.570000	1777.460938	9.356569
11876.285638	1410.570000	1776.455078	190.835785
11876.285638	1410.570000	1775.449219	146.526749
11876.285638	1410.570000	1774.442383	104.595207
11876.285638	1410.570000	1773.436523	65.040947
11876.285638	1410.570000	1772.429688	8.865916
11876.285638	1410.570000	1771.422852	26.292879
11876.285638	1410.570000	1770.416016	98.291473
11876.285638	1410.570000	1769.409180	84.815239
11876.285638	1410.570000	1768.402344	30.993973
11876.285638	1410.570000	1767.394531	34.111488
11876.285638	1410.570000	1766.386719	-100.351074
11876.285638	1410.570000	1765.378906	80.611099
11876.285638	1410.570000	1764.371094	-113.110947
11876.285638	1410.570000	1763.362305	58.272408
11876.285638	1410.570000	1762.354492	66.046928
11876.285638	1410.570000	1761.345703	88.019966
11876.285638	1410.570000	1760.336914	57.849991
11876.285638	1410.570000	1759.328125	-59.964020
11876.285638	1410.570000	1758.318359	-75.917168
11876.285638	1410.570000	1757.308594	-18.479832
11876.285638	1410.570000	1756.299805	126.510498
11876.285638	1410.570000	1755.290039	-57.560375
11876.285638	1410.570000	1754.279297	-80.663742
11876.285638	1410.570000	1753.269531	-39.892952
11876.285638	1410.570000	1752.258789	-34.636700
11876.285638	1410.570000	1751.249023	51.013687
11876.285638	1410.570000	1750.238281	-69.103500
11876.285638	1410.570000	1749.226563	-141.908737
11876.285638	1410.570000	1748.215820	-25.607533
11876.285638	1410.570000	1747.204102	-67.703453
11876.285638	1410.570000	1746.193359	3.614670
11876.285638	1410.570000	1745.181641	-40.864803
11876.285638	1410.570000	1744.168945	-94.792328
11876.285638	1410.570000	1743.157227	49.645317
11876.285638	1410.570000	1742.144531	80.684166
11876.285638	1410.570000	1741.132813	69.206841
11876.285638	1410.570000	1740.120117	22.315046
11876.285638	1410.570000	1739.106445	-83.566467
11876.285638	1410.570000	1738.093750	-144.597946
11876.285638	1410.570000	1737.080078	-28.719772
11876.285638	1410.570000	1736.067383	-28.455891
11876.285638	1410.570000	1735.053711	-202.688126
11876.285638	1410.570000	1734.040039	-39.766354
11876.285638	1410.570000	1733.025391	66.509834
11876.285638	1410.570000	1732.011719	73.758713
11876.285638	1410.570000	1730.997070	5.594909
11876.285638	1410.570000	1729.982422	137.664246
11876.285638	1410.570000	1728.967773	62.416462
11876.285638	1410.570000	1727.952148	-81.105835
11876.285638	1410.570000	1726.937500	41.438931
11876.285638	1410.570000	1725.921875	145.089584
11876.285638	1410.570000	1724.906250	-38.421059
11876.285638	1410.570000	1723.890625	-52.470890
11876.285638	1410.570000	1722.875000	36.975285
11876.285638	1410.570000	1721.858398	-12.396926
11876.285638	1410.570000	1720.841797	46.404163
11876.285638	1410.570000	1719.825195	-106.430000
11876.285638	1410.570000	1718.808594	-71.171829
11876.285638	1410.570000	1717.791992	-151.101059
11876.285638	1410.570000	1716.774414	-12.493570
11876.285638	1410.570000	1715.756836	-71.293617
11876.285638	1410.570000	1714.739258	-104.249695
11876.285638	1410.570000	1713.721680	-92.590240
11876.285638	1410.570000	1712.704102	90.447487
11876.285638	1410.570000	1711.685547	1.091470
11876.285638	1410.570000	1710.667969	52.576363
11876.285638	1410.570000	1709.649414	14.855120
11876.285638	1410.570000	1708.630859	12.324897
11876.285638	1410.570000	1707.611328	7.432376
11876.285638	1410.570000	1706.592773	105.717995
11876.285638	1410.570000	1705.573242	58.573090
11876.285638	1410.570000	1704.553711	-19.045065
11876.285638	1410.570000	1703.534180	55.702972
11876.285638	1410.570000	1702.513672	64.790192
11876.285638	1410.570000	1701.494141	38.715687
11876.285638	1410.570000	1700.473633	101.650436
11876.285638	1410.570000	1699.453125	9.969295
11876.285638	1410.570000	1698.432617	225.061020
11876.285638	1410.570000	1697.412109	74.832939
11876.285638	1410.570000	1696.390625	8.911798
11876.285638	1410.570000	1695.369141	-68.699577
11876.285638	1410.570000	1694.347656	-106.518661
11876.285638	1410.570000	1693.326172	5.382882
11876.285638	1410.570000	1692.304688	47.058872
11876.285638	1410.570000	1691.282227	51.287849
11876.285638	1410.570000	1690.260742	-9.962039
11876.285638	1410.570000	1689.238281	155.540970
11876.285638	1410.570000	1688.214844	-22.593164
11876.285638	1410.570000	1687.192383	0.283945
11876.285638	1410.570000	1686.168945	-7.234177
11876.285638	1410.570000	1685.146484	13.268501
11876.285638	1410.570000	1684.123047	141.173050
11876.285638	1410.570000	1683.099609	-18.175230
11876.285638	1410.570000	1682.075195	34.956215
11876.285638	1410.570000	1681.051758	48.378540
11876.285638	1410.570000	1680.027344	17.443922
11876.285638	1410.570000	1679.002930	-88.150238
11876.285638	1410.570000	1677.978516	156.178726
11876.285638	1410.570000	1676.953125	41.242920
11876.285638	1410.570000	1675.928711	38.264252
11876.285638	1410.570000	1674.903320	-20.678141
11876.285638	1410.570000	1673.877930	6.630785
11876.285638	1410.570000	1672.852539	50.230244
11876.285638	1410.570000	1671.826172	84.479172
11876.285638	1410.570000	1670.800781	60.468250
11876.285638	1410.570000	1669.774414	94.679359
11876.285638	1410.570000	1668.748047	38.050739
11876.285638	1410.570000	1667.721680	-9.254848
11876.285638	1410.570000	1666.694336	-14.656334
11876.285638	1410.570000	1665.667969	52.079647
11876.285638	1410.570000	1664.640625	-18.503597
11876.285638	1410.570000	1663.613281	34.226093
11876.285638	1410.570000	1662.585938	96.228844
11876.285638	1410.570000	1661.557617	114.011955
11876.285638	1410.570000	1660.530273	69.005188
11876.285638	1410.570000	1659.501953	35.626762
11876.285638	1410.570000	1658.473633	55.705673
11876.285638	1410.570000	1657.444336	24.644701
11876.285638	1410.570000	1656.416016	135.303848
11876.285638	1410.570000	1655.386719	62.411339
11876.285638	1410.570000	1654.358398	119.589424
11876.285638	1410.570000	1653.328125	116.363907
11876.285638	1410.570000	1652.298828	192.060913
11876.285638	1410.570000	1651.269531	91.327843
11876.285638	1410.570000	1650.239258	134.494202
11876.285638	1410.570000	1649.208984	101.074593
11876.285638	1410.570000	1648.178711	102.453491
11876.285638	1410.570000	1647.148438	27.292219
11876.285638	1410.570000	1646.117188	179.383148
11876.285638	1410.570000	1645.086914	4.536170
11876.285638	1410.570000	1644.055664	219.139526
11876.285638	1410.570000	1643.024414	194.964233
11876.285638	1410.570000	1641.992188	92.014549
11876.285638	1410.570000	1640.960938	137.354324
11876.285638	1410.570000	1639.928711	279.940125
11876.285638	1410.570000	1638.896484	186.276871
11876.285638	1410.570000	1637.864258	104.219749
11876.285638	1410.570000	1636.832031	225.878845
11876.285638	1410.570000	1635.798828	231.772552
11876.285638	1410.570000	1634.766602	205.267990
11876.285638	1410.570000	1633.733398	343.011627
11876.285638	1410.570000	1632.699219	175.395767
11876.285638	1410.570000	1631.666016	174.337357
11876.285638	1410.570000	1630.632813	249.569138
11876.285638	1410.570000	1629.598633	334.011871
11876.285638	1410.570000	1628.564453	279.752563
11876.285638	1410.570000	1627.530273	109.979393
11876.285638	1410.570000	1626.495117	284.482758
11876.285638	1410.570000	1625.460938	352.669342
11876.285638	1410.570000	1624.425781	270.720795
11876.285638	1410.570000	1623.390625	253.448196
11876.285638	1410.570000	1622.355469	256.954865
11876.285638	1410.570000	1621.319336	410.471039
11876.285638	1410.570000	1620.284180	307.796539
11876.285638	1410.570000	1619.248047	302.052917
11876.285638	1410.570000	1618.211914	439.318420
11876.285638	1410.570000	1617.174805	288.258392
11876.285638	1410.570000	1616.138672	342.464661
11876.285638	1410.570000	1615.101563	299.826294
11876.285638	1410.570000	1614.065430	379.359467
11876.285638	1410.570000	1613.027344	295.247772
11876.285638	1410.570000	1611.990234	296.415009
11876.285638	1410.570000	1610.953125	348.256958
11876.285638	1410.570000	1609.915039	195.109436
11876.285638	1410.570000	1608.876953	260.763580
11876.285638	1410.570000	1607.838867	305.673706
11876.285638	1410.570000	1606.800781	334.454773
11876.285638	1410.570000	1605.761719	383.934296
11876.285638	1410.570000	1604.723633	316.059540
11876.285638	1410.570000	1603.684570	317.218658
11876.285638	1410.570000	1602.644531	309.177490
11876.285638	1410.570000	1601.605469	245.957520
11876.285638	1410.570000	1600.566406	323.000488
11876.285638	1410.570000	1599.526367	416.102692
11876.285638	1410.570000	1598.486328	357.499084
11876.285638	1410.570000	1597.446289	342.575623
11876.285638	1410.570000	1596.405273	359.818481
11876.285638	1410.570000	1595.365234	296.674957
11876.285638	1410.570000	1594.324219	348.370117
11876.285638	1410.570000	1593.283203	331.174591
11876.285638	1410.570000	1592.242188	522.867859
11876.285638	1410.570000	1591.200195	319.761414
11876.285638	1410.570000	1590.159180	527.451294
11876.285638	1410.570000	1589.117188	354.254517
11876.285638	1410.570000	1588.075195	192.597351
11876.285638	1410.570000	1587.032227	299.302551
11876.285638	1410.570000	1585.990234	385.339142
11876.285638	1410.570000	1584.947266	251.290817
11876.285638	1410.570000	1583.904297	341.895355
11876.285638	1410.570000	1582.861328	388.934753
11876.285638	1410.570000	1581.818359	296.217804
11876.285638	1410.570000	1580.775391	256.223755
11876.285638	1410.570000	1579.731445	229.989182
11876.285638	1410.570000	1578.687500	157.980911
11876.285638	1410.570000	1577.643555	170.704544
11876.285638	1410.570000	1576.598633	242.932510
11876.285638	1410.570000	1575.554688	262.513672
11876.285638	1410.570000	1574.509766	181.431183
11876.285638	1410.570000	1573.464844	70.654251
11876.285638	1410.570000	1572.419922	213.769043
11876.285638	1410.570000	1571.374023	169.348831
11876.285638	1410.570000	1570.329102	250.684265
11876.285638	1410.570000	1569.283203	299.997345
11876.285638	1410.570000	1568.237305	248.757767
11876.285638	1410.570000	1567.191406	334.623901
11876.285638	1410.570000	1566.144531	169.206223
11876.285638	1410.570000	1565.098633	90.646332
11876.285638	1410.570000	1564.051758	203.919266
11876.285638	1410.570000	1563.004883	264.652832
11876.285638	1410.570000	1561.957031	122.240715
11876.285638	1410.570000	1560.910156	160.168671
11876.285638	1410.570000	1559.862305	346.385956
11876.285638	1410.570000	1558.814453	336.373383
11876.285638	1410.570000	1557.766602	230.592026
11876.285638	1410.570000	1556.718750	252.550461
11876.285638	1410.570000	1555.669922	158.246902
11876.285638	1410.570000	1554.621094	255.447235
11876.285638	1410.570000	1553.573242	181.715149
11876.285638	1410.570000	1552.523438	240.163620
11876.285638	1410.570000	1551.474609	193.821213
11876.285638	1410.570000	1550.424805	215.830734
11876.285638	1410.570000	1549.375000	201.413071
11876.285638	1410.570000	1548.325195	125.547928
11876.285638	1410.570000	1547.275391	152.150055
11876.285638	1410.570000	1546.225586	96.831963
11876.285638	1410.570000	1545.174805	73.400589
11876.285638	1410.570000	1544.124023	36.344349
11876.285638	1410.570000	1543.073242	47.077007
11876.285638	1410.570000	1542.022461	-8.121456
11876.285638	1410.570000	1540.970703	173.148727
11876.285638	1410.570000	1539.919922	65.698494
11876.285638	1410.570000	1538.868164	65.111862
11876.285638	1410.570000	1537.815430	69.083397
11876.285638	1410.570000	1536.763672	-6.435447
11876.285638	1410.570000	1535.710938	-0.149125
11876.285638	1410.570000	1534.659180	53.837593
11876.285638	1410.570000	1533.606445	-35.208984
11876.285638	1410.570000	1532.552734	84.617134
11876.285638	1410.570000	1531.500000	0.171035
11876.285638	1410.570000	1530.446289	1.992075
11876.285638	1410.570000	1529.393555	-14.316678
11876.285638	1410.570000	1528.338867	71.456413
11876.285638	1410.570000	1527.285156	23.427216
11876.285638	1410.570000	1526.231445	-137.921829
11876.285638	1410.570000	1525.176758	6.810743
11876.285638	1410.570000	1524.122070	-29.794706
11876.285638	1410.570000	1523.067383	-18.785856
11876.285638	1410.570000	1522.012695	-16.824646
11876.285638	1410.570000	1520.957031	-57.880161
11876.285638	1410.570000	1519.901367	113.956993
11876.285638	1410.570000	1518.845703	-76.494179
11876.285638	1410.570000	1517.790039	-4.279892
11876.285638	1410.570000	1516.734375	-42.966885
11876.285638	1410.570000	1515.677734	13.410899
11876.285638	1410.570000	1514.621094	115.029846
11876.285638	1410.570000	1513.564453	-29.902861
11876.285638	1410.570000	1512.507813	-5.160502
11876.285638	1410.570000	1511.450195	-159.017181
11876.285638	1410.570000	1510.393555	19.488853
11876.285638	1410.570000	1509.335938	-125.231255
11876.285638	1410.570000	1508.278320	32.901577
11876.285638	1410.570000	1507.219727	111.923378
11876.285638	1410.570000	1506.162109	-23.632483
11876.285638	1410.570000	1505.103516	66.701927
11876.285638	1410.570000	1504.044922	-28.111589
11876.285638	1410.570000	1502.986328	78.031601
11876.285638	1410.570000	1501.926758	181.895645
11876.285638	1410.570000	1500.868164	17.232454
11876.285638	1410.570000	1499.808594	12.826061
11876.285638	1410.570000	1498.749023	15.209459
11876.285638	1410.570000	1497.688477	-25.232527
11876.285638	1410.570000	1496.628906	2.002822
11876.285638	1410.570000	1495.568359	-72.188004
11876.285638	1410.570000	1494.507813	-62.940552
11876.285638	1410.570000	1493.447266	-58.180492
11876.285638	1410.570000	1492.386719	-71.422356
11876.285638	1410.570000	1491.325195	18.971724
11876.285638	1410.570000	1490.263672	-55.036732
11876.285638	1410.570000	1489.202148	-128.992050
11876.285638	1410.570000	1488.140625	-205.146072
11876.285638	1410.570000	1487.079102	-139.461090
11876.285638	1410.570000	1486.016602	-71.529617
11876.285638	1410.570000	1484.954102	-107.086052
11876.285638	1410.570000	1483.891602	-54.885662
11876.285638	1410.570000	1482.829102	-52.154430
11876.285638	1410.570000	1481.765625	-110.106842
11876.285638	1410.570000	1480.702148	-1.668803
11876.285638	1410.570000	1479.638672	-48.322651
11876.285638	1410.570000	1478.575195	-32.012630
11876.285638	1410.570000	1477.511719	-26.918348
11876.285638	1410.570000	1476.447266	85.951874
11876.285638	1410.570000	1475.382813	1.281854
11876.285638	1410.570000	1474.318359	-128.248138
11876.285638	1410.570000	1473.253906	-93.864120
11876.285638	1410.570000	1472.189453	37.015537
11876.285638	1410.570000	1471.124023	-16.050983
11876.285638	1410.570000	1470.058594	-15.298928
11876.285638	1410.570000	1468.993164	66.206337
11876.285638	1410.570000	1467.927734	-80.836876
11876.285638	1410.570000	1466.861328	33.994934
11876.285638	1410.570000	1465.794922	61.805286
11876.285638	1410.570000	1464.728516	69.451172
11876.285638	1410.570000	1463.662109	112.851593
11876.285638	1410.570000	1462.594727	167.274857
11876.285638	1410.570000	1461.528320	125.871529
11876.285638	1410.570000	1460.460938	-11.704114
11876.285638	1410.570000	1459.393555	31.588297
11876.285638	1410.570000	1458.326172	75.164337
11876.285638	1410.570000	1457.257813	216.956482
11876.285638	1410.570000	1456.189453	75.170578
11876.285638	1410.570000	1455.121094	67.173332
11876.285638	1410.570000	1454.052734	-61.304245
11876.285638	1410.570000	1452.984375	60.453197
11876.285638	1410.570000	1451.915039	37.701504
11876.285638	1410.570000	1450.845703	74.429565
11876.285638	1410.570000	1449.776367	144.371780
11876.285638	1410.570000	1448.707031	18.847998
11876.285638	1410.570000	1447.636719	113.885132
11876.285638	1410.570000	1446.567383	57.435776
11876.285638	1410.570000	1445.497070	0.988332
11876.285638	1410.570000	1444.425781	4.577071
11876.285638	1410.570000	1443.355469	125.926880
11876.285638	1410.570000	1442.285156	-23.452368
11876.285638	1410.570000	1441.213867	123.349190
11876.285638	1410.570000	1440.142578	17.867542
11876.285638	1410.570000	1439.070313	58.186428
11876.285638	1410.570000	1437.999023	61.262413
11876.285638	1410.570000	1436.926758	60.252743
11876.285638	1410.570000	1435.854492	106.428162
11876.285638	1410.570000	1434.782227	116.145592
11876.285638	1410.570000	1433.709961	52.506577
11876.285638	1410.570000	1432.636719	130.421661
11876.285638	1410.570000	1431.563477	93.129242
11876.285638	1410.570000	1430.490234	114.832436
11876.285638	1410.570000	1429.416992	-6.715369
11876.285638	1410.570000	1428.343750	132.169403
11876.285638	1410.570000	1427.269531	15.342689
11876.285638	1410.570000	1426.195313	27.105282
11876.285638	1410.570000	1425.121094	-33.198132
11876.285638	1410.570000	1424.046875	86.014450
11876.285638	1410.570000	1422.971680	258.814392
11876.285638	1410.570000	1421.896484	110.524841
11876.285638	1410.570000	1420.821289	-32.420666
11876.285638	1410.570000	1419.746094	73.356247
11876.285638	1410.570000	1418.669922	10.458291
11876.285638	1410.570000	1417.594727	105.069092
11876.285638	1410.570000	1416.518555	73.624596
11876.285638	1410.570000	1415.442383	-30.256804
11876.285638	1410.570000	1414.365234	-36.963039
11876.285638	1410.570000	1413.289063	12.971045
11876.285638	1410.570000	1412.211914	10.240870
11876.285638	1410.570000	1411.134766	-17.597794
11876.285638	1410.570000	1410.057617	-79.268150
11876.285638	1410.570000	1408.979492	46.781425
11876.285638	1410.570000	1407.902344	154.245346
11876.285638	1410.570000	1406.824219	110.455475
11876.285638	1410.570000	1405.746094	49.427910
11876.285638	1410.570000	1404.666992	-17.707508
11876.285638	1410.570000	1403.588867	80.174583
11876.285638	1410.570000	1402.509766	98.029762
11876.285638	1410.570000	1401.430664	-57.250000
11876.285638	1410.570000	1400.351563	-11.437249
11876.285638	1410.570000	1399.271484	-73.632507
11876.285638	1410.570000	1398.192383	55.168247
11876.285638	1410.570000	1397.112305	62.518475
11876.285638	1410.570000	1396.031250	118.456718
11876.285638	1410.570000	1394.951172	75.436569
11876.285638	1410.570000	1393.871094	-68.492073
11876.285638	1410.570000	1392.790039	16.692955
11876.285638	1410.570000	1391.708984	19.725679
11876.285638	1410.570000	1390.626953	-15.370233
11876.285638	1410.570000	1389.545898	64.035324
11876.285638	1410.570000	1388.463867	35.270565
11876.285638	1410.570000	1387.381836	-76.418861
11876.285638	1410.570000	1386.299805	34.679337
11876.285638	1410.570000	1385.217773	113.027931
11876.285638	1410.570000	1384.134766	200.675613
11876.285638	1410.570000	1383.051758	177.029053
11876.285638	1410.570000	1381.968750	320.422607
11876.285638	1410.570000	1380.885742	218.401581
11876.285638	1410.570000	1379.802734	235.732437
11876.285638	1410.570000	1378.718750	304.108948
11876.285638	1410.570000	1377.634766	281.539795
11876.285638	1410.570000	1376.550781	235.134659
11876.285638	1410.570000	1375.465820	273.156250
11876.285638	1410.570000	1374.381836	198.118347
11876.285638	1410.570000	1373.296875	287.287689
11876.285638	1410.570000	1372.211914	283.710419
11876.285638	1410.570000	1371.126953	266.870758
11876.285638	1410.570000	1370.041016	167.685287
11876.285638	1410.570000	1368.955078	106.638062
11876.285638	1410.570000	1367.869141	183.040436
11876.285638	1410.570000	1366.783203	104.793144
11876.285638	1410.570000	1365.697266	110.731972
11876.285638	1410.570000	1364.610352	76.195984
11876.285638	1410.570000	1363.523438	96.080231
11876.285638	1410.570000	1362.436523	178.917740
11876.285638	1410.570000	1361.349609	2.884646
11876.285638	1410.570000	1360.261719	-19.007080
11876.285638	1410.570000	1359.174805	99.206413
11876.285638	1410.570000	1358.086914	140.364212
11876.285638	1410.570000	1356.998047	-7.688578
11876.285638	1410.570000	1355.910156	80.501518
11876.285638	1410.570000	1354.821289	52.050556
11876.285638	1410.570000	1353.732422	-7.871711
11876.285638	1410.570000	1352.643555	-21.030106
11876.285638	1410.570000	1351.554688	2.342779
11876.285638	1410.570000	1350.464844	-33.394238
11876.285638	1410.570000	1349.375000	45.813770
11876.285638	1410.570000	1348.285156	89.908516
11876.285638	1410.570000	1347.195313	88.178406
11876.285638	1410.570000	1346.105469	154.979691
11876.285638	1410.570000	1345.014648	151.333878
11876.285638	1410.570000	1343.923828	253.364151
11876.285638	1410.570000	1342.833008	186.311539
11876.285638	1410.570000	1341.741211	265.619446
11876.285638	1410.570000	1340.650391	332.708130
11876.285638	1410.570000	1339.558594	236.360626
11876.285638	1410.570000	1338.466797	439.677063
11876.285638	1410.570000	1337.374023	455.698578
11876.285638	1410.570000	1336.282227	399.424408
11876.285638	1410.570000	1335.189453	394.694275
11876.285638	1410.570000	1334.096680	336.146912
11876.285638	1410.570000	1333.003906	275.669281
11876.285638	1410.570000	1331.910156	357.873901
11876.285638	1410.570000	1330.817383	434.679718
11876.285638	1410.570000	1329.723633	317.255768
11876.285638	1410.570000	1328.629883	318.747986
11876.285638	1410.570000	1327.535156	256.813324
11876.285638	1410.570000	1326.441406	237.514160
11876.285638	1410.570000	1325.346680	216.608566
11876.285638	1410.570000	1324.251953	235.583649
11876.285638	1410.570000	1323.156250	212.250732
11876.285638	1410.570000	1322.061523	193.703384
11876.285638	1410.570000	1320.965820	173.138657
11876.285638	1410.570000	1319.870117	181.604691
11876.285638	1410.570000	1318.774414	146.933319
11876.285638	1410.570000	1317.678711	201.015900
11876.285638	1410.570000	1316.582031	200.760025
11876.285638	1410.570000	1315.485352	144.143478
11876.285638	1410.570000	1314.388672	72.270020
11876.285638	1410.570000	1313.291016	62.682529
11876.285638	1410.570000	1312.194336	183.802933
11876.285638	1410.570000	1311.096680	52.983311
11876.285638	1410.570000	1309.999023	114.314636
11876.285638	1410.570000	1308.901367	175.513489
11876.285638	1410.570000	1307.802734	55.035873
11876.285638	1410.570000	1306.705078	13.953501
11876.285638	1410.570000	1305.606445	90.953529
11876.285638	1410.570000	1304.506836	44.556755
11876.285638	1410.570000	1303.408203	-10.846329
11876.285638	1410.570000	1302.308594	85.435402
11876.285638	1410.570000	1301.208984	-42.518906
11876.285638	1410.570000	1300.109375	64.076187
11876.285638	1410.570000	1299.009766	-15.824970
11876.285638	1410.570000	1297.909180	94.472984
11876.285638	1410.570000	1296.808594	-26.120747
11876.285638	1410.570000	1295.708008	-26.540970
11876.285638	1410.570000	1294.607422	-0.518375
11876.285638	1410.570000	1293.506836	-24.222620
11876.285638	1410.570000	1292.405273	49.812195
11876.285638	1410.570000	1291.303711	80.480576
11876.285638	1410.570000	1290.202148	16.835516
11876.285638	1410.570000	1289.099609	27.679367
11876.285638	1410.570000	1287.998047	124.557144
11876.285638	1410.570000	1286.895508	62.967823
11876.285638	1410.570000	1285.792969	112.612511
11876.285638	1410.570000	1284.689453	135.735962
11876.285638	1410.570000	1283.586914	45.710777
11876.285638	1410.570000	1282.483398	-3.681789
11876.285638	1410.570000	1281.379883	190.152405
11876.285638	1410.570000	1280.276367	-38.631104
11876.285638	1410.570000	1279.171875	127.432198
11876.285638	1410.570000	1278.067383	54.410065
11876.285638	1410.570000	1276.962891	92.025902
11876.285638	1410.570000	1275.858398	92.296074
11876.285638	1410.570000	1274.753906	175.620270
11876.285638	1410.570000	1273.648438	141.593399
11876.285638	1410.570000	1272.542969	97.375465
11876.285638	1410.570000	1271.437500	92.601021
11876.285638	1410.570000	1270.331055	129.618393
11876.285638	1410.570000	1269.225586	126.984627
11876.285638	1410.570000	1268.119141	76.493805
11876.285638	1410.570000	1267.012695	58.781990
11876.285638	1410.570000	1265.906250	67.312332
11876.285638	1410.570000	1264.798828	0.611917
11876.285638	1410.570000	1263.691406	59.449600
11876.285638	1410.570000	1262.583984	32.060024
11876.285638	1410.570000	1261.476563	162.758881
11876.285638	1410.570000	1260.368164	25.309101
11876.285638	1410.570000	1259.260742	-6.370533
11876.285638	1410.570000	1258.152344	67.225555
11876.285638	1410.570000	1257.043945	76.947769
11876.285638	1410.570000	1255.934570	63.718697
11876.285638	1410.570000	1254.825195	52.151440
11876.285638	1410.570000	1253.716797	-68.839661
11876.285638	1410.570000	1252.606445	-56.087891
11876.285638	1410.570000	1251.497070	-41.862453
11876.285638	1410.570000	1250.387695	-63.270519
11876.285638	1410.570000	1249.277344	42.333668
11876.285638	1410.570000	1248.166992	13.127154
11876.285638	1410.570000	1247.055664	-113.139313
11876.285638	1410.570000	1245.945313	-47.530376
11876.285638	1410.570000	1244.833984	51.676376
11876.285638	1410.570000	1243.722656	-42.788296
11876.285638	1410.570000	1242.611328	41.740917
11876.285638	1410.570000	1241.499023	32.882435
11876.285638	1410.570000	1240.387695	-46.096825
11876.285638	1410.570000	1239.275391	33.884426
11876.285638	1410.570000	1238.162109	104.319626
11876.285638	1410.570000	1237.049805	-45.477417
11876.285638	1410.570000	1235.936523	-38.101208
11876.285638	1410.570000	1234.823242	0.126786
11876.285638	1410.570000	1233.709961	2.647272
11876.285638	1410.570000	1232.596680	-27.019934
11876.285638	1410.570000	1231.482422	68.840744
11876.285638	1410.570000	1230.369141	38.034847
11876.285638	1410.570000	1229.253906	46.959995
11876.285638	1410.570000	1228.139648	-33.221298
11876.285638	1410.570000	1227.025391	-18.746569
11876.285638	1410.570000	1225.910156	13.376602
11876.285638	1410.570000	1224.794922	49.290642
11876.285638	1410.570000	1223.679688	77.439201
11876.285638	1410.570000	1222.563477	51.285404
11876.285638	1410.570000	1221.447266	3.754401
11876.285638	1410.570000	1220.331055	-26.172552
11876.285638	1410.570000	1219.214844	-57.232956
11876.285638	1410.570000	1218.098633	-26.237541
11876.285638	1410.570000	1216.981445	-13.827209
11876.285638	1410.570000	1215.864258	7.118044
11876.285638	1410.570000	1214.747070	-53.240341
11876.285638	1410.570000	1213.629883	-112.800995
11876.285638	1410.570000	1212.511719	-79.902084
11876.285638	1410.570000	1211.393555	-45.008553
11876.285638	1410.570000	1210.275391	47.642616
11876.285638	1410.570000	1209.157227	-6.467809
11876.285638	1410.570000	1208.038086	16.783895
11876.285638	1410.570000	1206.918945	-42.044228
11876.285638	1410.570000	1205.799805	34.683887
11876.285638	1410.570000	1204.680664	-19.588095
11876.285638	1410.570000	1203.560547	-42.851215
11876.285638	1410.570000	1202.441406	-56.973019
11876.285638	1410.570000	1201.321289	9.724725
11876.285638	1410.570000	1200.200195	-37.409542
11876.285638	1410.570000	1199.080078	18.415873
11876.285638	1410.570000	1197.958984	-5.507078
11876.285638	1410.570000	1196.837891	-77.351227
11876.285638	1410.570000	1195.716797	-25.475134
11876.285638	1410.570000	1194.594727	-39.737080
11876.285638	1410.570000	1193.473633	-50.542068
11876.285638	1410.570000	1192.351563	-61.485905
11876.285638	1410.570000	1191.229492	-55.286793
11876.285638	1410.570000	1190.106445	-1.079400
11876.285638	1410.570000	1188.984375	53.132702
11876.285638	1410.570000	1187.861328	-59.126720
11876.285638	1410.570000	1186.738281	-142.381485
11876.285638	1410.570000	1185.614258	-84.673042
11876.285638	1410.570000	1184.491211	-22.363276
11876.285638	1410.570000	1183.367188	-123.527107
11876.285638	1410.570000	1182.243164	-116.532082
11876.285638	1410.570000	1181.119141	40.924412
11876.285638	1410.570000	1179.994141	-61.785042
11876.285638	1410.570000	1178.869141	-15.110463
11876.285638	1410.570000	1177.744141	56.573513
11876.285638	1410.570000	1176.619141	-43.974453
11876.285638	1410.570000	1175.493164	3.181674
11876.285638	1410.570000	1174.368164	-36.272446
11876.285638	1410.570000	1173.242188	-29.940708
11876.285638	1410.570000	1172.115234	-15.126480
11876.285638	1410.570000	1170.989258	-161.859848
11876.285638	1410.570000	1169.862305	-35.578274
11876.285638	1410.570000	1168.735352	-1.079303
11876.285638	1410.570000	1167.608398	-111.034439
11876.285638	1410.570000	1166.481445	-55.522400
11876.285638	1410.570000	1165.353516	-73.949516
11876.285638	1410.570000	1164.225586	-71.546898
11876.285638	1410.570000	1163.097656	-95.110054
11876.285638	1410.570000	1161.968750	-47.672291
11876.285638	1410.570000	1160.840820	-49.128723
11876.285638	1410.570000	1159.711914	-73.440407
11876.285638	1410.570000	1158.583008	-159.218506
11876.285638	1410.570000	1157.453125	-72.598183
11876.285638	1410.570000	1156.324219	-118.995689
11876.285638	1410.570000	1155.194336	5.072917
11876.285638	1410.570000	1154.064453	-137.134842
11876.285638	1410.570000	1152.933594	-55.084705
11876.285638	1410.570000	1151.803711	-28.494108
11876.285638	1410.570000	1150.672852	8.180371
11876.285638	1410.570000	1149.541992	18.086218
11876.285638	1410.570000	1148.411133	-125.948517
11876.285638	1410.570000	1147.279297	-29.789289
11876.285638	1410.570000	1146.147461	-17.801270
11876.285638	1410.570000	1145.015625	-72.661766
11876.285638	1410.570000	1143.883789	-25.012447
11876.285638	1410.570000	1142.750977	-44.903866
11876.285638	1410.570000	1141.619141	-36.573479
11876.285638	1410.570000	1140.486328	31.599337
11876.285638	1410.570000	1139.352539	32.639385
11876.285638	1410.570000	1138.219727	-16.907980
11876.285638	1410.570000	1137.085938	30.193016
11876.285638	1410.570000	1135.952148	0.883980
11876.285638	1410.570000	1134.818359	12.052076
11876.285638	1410.570000	1133.683594	53.235043
11876.285638	1410.570000	1132.549805	18.868988
11876.285638	1410.570000	1131.415039	103.298958
11876.285638	1410.570000	1130.279297	73.907684
11876.285638	1410.570000	1129.144531	129.507339
11876.285638	1410.570000	1128.008789	124.461464
11876.285638	1410.570000	1126.873047	102.136566
11876.285638	1410.570000	1125.737305	124.650307
11876.285638	1410.570000	1124.601563	113.020729
11876.285638	1410.570000	1123.464844	110.122887
11876.285638	1410.570000	1122.328125	70.889771
11876.285638	1410.570000	1121.191406	115.288643
11876.285638	1410.570000	1120.054688	99.185234
11876.285638	1410.570000	1118.916992	205.507751
11876.285638	1410.570000	1117.779297	74.833313
11876.285638	1410.570000	1116.641602	71.936806
11876.285638	1410.570000	1115.503906	103.706902
11876.285638	1410.570000	1114.365234	23.428722
11876.285638	1410.570000	1113.226563	103.463608
11876.285638	1410.570000	1112.087891	102.334991
11876.285638	1410.570000	1110.949219	109.705490
11876.285638	1410.570000	1109.809570	49.409977
11876.285638	1410.570000	1108.669922	109.361130
11876.285638	1410.570000	1107.530273	104.785034
11876.285638	1410.570000	1106.390625	46.784729
11876.285638	1410.570000	1105.250000	33.058342
11876.285638	1410.570000	1104.109375	115.270561
11876.285638	1410.570000	1102.968750	95.610855
11876.285638	1410.570000	1101.828125	68.293610
11876.285638	1410.570000	1100.686523	116.720032
11876.285638	1410.570000	1099.544922	68.917656
11876.285638	1410.570000	1098.403320	116.553993
11876.285638	1410.570000	1097.261719	119.733086
11876.285638	1410.570000	1096.120117	49.129284
11876.285638	1410.570000	1094.977539	136.095901
11876.285638	1410.570000	1093.834961	78.594612
11876.285638	1410.570000	1092.691406	68.554886
11876.285638	1410.570000	1091.548828	38.156994
11876.285638	1410.570000	1090.405273	59.938019
11876.285638	1410.570000	1089.261719	-47.976475
11876.285638	1410.570000	1088.118164	-33.061279
11876.285638	1410.570000	1086.973633	67.921844
11876.285638	1410.570000	1085.829102	3.457878
11876.285638	1410.570000	1084.684570	55.687515
11876.285638	1410.570000	1083.540039	115.470680
11876.285638	1410.570000	1082.395508	3.276921
11876.285638	1410.570000	1081.250000	54.098328
11876.285638	1410.570000	1080.104492	74.779831
11876.285638	1410.570000	1078.958984	115.314911
11876.285638	1410.570000	1077.812500	-15.773366
11876.285638	1410.570000	1076.666016	17.097769
11876.285638	1410.570000	1075.519531	-11.847977
11876.285638	1410.570000	1074.373047	107.807442
11876.285638	1410.570000	1073.226563	48.132473
11876.285638	1410.570000	1072.079102	178.034164
11876.285638	1410.570000	1070.931641	148.013077
11876.285638	1410.570000	1069.784180	97.453079
11876.285638	1410.570000	1068.635742	66.231186
11876.285638	1410.570000	1067.487305	57.647785
11876.285638	1410.570000	1066.338867	157.020355
11876.285638	1410.570000	1065.190430	109.543335
11876.285638	1410.570000	1064.041992	122.873550
11876.285638	1410.570000	1062.892578	208.197037
11876.285638	1410.570000	1061.743164	123.172676
11876.285638	1410.570000	1060.593750	120.158455
11876.285638	1410.570000	1059.443359	148.873596
11876.285638	1410.570000	1058.292969	97.950645
11876.285638	1410.570000	1057.142578	58.804012
11876.285638	1410.570000	1055.992188	77.068321
11876.285638	1410.570000	1054.841797	27.005165
11876.285638	1410.570000	1053.690430	36.982143
11876.285638	1410.570000	1052.539063	35.094505
11876.285638	1410.570000	1051.387695	25.839928
11876.285638	1410.570000	1050.235352	118.318893
11876.285638	1410.570000	1049.083984	-26.279331
11876.285638	1410.570000	1047.931641	27.560799
11876.285638	1410.570000	1046.778320	163.046906
11876.285638	1410.570000	1045.625977	110.112679
11876.285638	1410.570000	1044.472656	30.585150
11876.285638	1410.570000	1043.319336	-62.041656
11876.285638	1410.570000	1042.166016	98.147911
11876.285638	1410.570000	1041.012695	12.188896
11876.285638	1410.570000	1039.858398	29.297440
11876.285638	1410.570000	1038.704102	57.169998
11876.285638	1410.570000	1037.549805	54.206367
11876.285638	1410.570000	1036.394531	31.798443
11876.285638	1410.570000	1035.239258	0.927385
11876.285638	1410.570000	1034.083984	49.829170
11876.285638	1410.570000	1032.928711	127.749054
11876.285638	1410.570000	1031.773438	62.769455
11876.285638	1410.570000	1030.617188	112.379402
11876.285638	1410.570000	1029.460938	-159.468704
11876.285638	1410.570000	1028.304688	25.189880
11876.285638	1410.570000	1027.147461	99.921310
11876.285638	1410.570000	1025.991211	-35.957809
11876.285638	1410.570000	1024.833984	-34.471325
11876.285638	1410.570000	1023.675781	76.730743
11876.285638	1410.570000	1022.518555	25.863976
11876.285638	1410.570000	1021.360352	24.994816
11876.285638	1410.570000	1020.202148	16.436331
11876.285638	1410.570000	1019.043945	-9.044967
11876.285638	1410.570000	1017.884766	-41.333897
11876.285638	1410.570000	1016.726563	70.576447
11876.285638	1410.570000	1015.567383	57.656258
11876.285638	1410.570000	1014.407227	-12.395834
11876.285638	1410.570000	1013.248047	57.534531
11876.285638	1410.570000	1012.087891	25.730511
11876.285638	1410.570000	1010.927734	72.711037
11876.285638	1410.570000	1009.767578	-1.342826
11876.285638	1410.570000	1008.606445	142.785873
11876.285638	1410.570000	1007.446289	18.419817
11876.285638	1410.570000	1006.285156	30.923151
11876.285638	1410.570000	1005.123047	62.122929
11876.285638	1410.570000	1003.961914	96.793282
11876.285638	1410.570000	1002.799805	92.059311
11876.285638	1410.570000	1001.637695	110.684639
11876.285638	1410.570000	1000.475586	46.513905
11876.285638	1410.570000	999.312500	163.578476
11876.285638	1410.570000	998.149414	211.340469
11876.285638	1410.570000	996.986328	-63.176765
11876.285638	1410.570000	995.823242	59.123142
11876.285638	1410.570000	994.659180	-77.564659
11876.285638	1410.570000	993.496094	72.857307
11876.285638	1410.570000	992.332031	-21.491796
11876.285638	1410.570000	991.166992	8.424312
11876.285638	1410.570000	990.002930	44.954098
11876.285638	1410.570000	988.837891	21.299711
11876.285638	1410.570000	987.672852	50.177708
11876.285638	1410.570000	986.506836	2.439962
11876.285638	1410.570000	985.341797	-11.307463
11876.285638	1410.570000	984.175781	121.261581
11876.285638	1410.570000	983.009766	8.416880
11876.285638	1410.570000	981.843750	58.265045
11876.285638	1410.570000	980.676758	-19.586201
11876.285638	1410.570000	979.509766	-15.359004
11876.285638	1410.570000	978.342773	50.492699
11876.285638	1410.570000	977.175781	17.382639
11876.285638	1410.570000	976.007813	47.265461
11876.285638	1410.570000	974.839844	40.634354
11876.285638	1410.570000	973.671875	-52.981220
11876.285638	1410.570000	972.503906	-28.100632
11876.285638	1410.570000	971.334961	61.214878
11876.285638	1410.570000	970.166016	80.377937
11876.285638	1410.570000	968.997070	99.365768
11876.285638	1410.570000	967.828125	138.308395
11876.285638	1410.570000	966.658203	75.949036
11876.285638	1410.570000	965.488281	22.960081
11876.285638	1410.570000	964.318359	124.032600
11876.285638	1410.570000	963.148438	88.418961
11876.285638	1410.570000	961.977539	85.428741
11876.285638	1410.570000	960.806641	35.766098
11876.285638	1410.570000	959.635742	22.468287
11876.285638	1410.570000	958.463867	-13.579413
11876.285638	1410.570000	957.292969	10.341179
11876.285638	1410.570000	956.121094	3.758280
11876.285638	1410.570000	954.948242	29.865643
11876.285638	1410.570000	953.776367	115.707863
11876.285638	1410.570000	952.603516	-23.076012
11876.285638	1410.570000	951.430664	-59.898544
11876.285638	1410.570000	950.257813	-78.977119
11876.285638	1410.570000	949.084961	-38.261055
11876.285638	1410.570000	947.911133	130.318756
11876.285638	1410.570000	946.737305	0.638317
11876.285638	1410.570000	945.563477	9.443859
11876.285638	1410.570000	944.388672	26.560354
11876.285638	1410.570000	943.213867	80.296410
11876.285638	1410.570000	942.039063	80.537910
11876.285638	1410.570000	940.864258	-0.364924
11876.285638	1410.570000	939.688477	6.368454
11876.285638	1410.570000	938.513672	12.901970
11876.285638	1410.570000	937.337891	13.210145
11876.285638	1410.570000	936.161133	9.215476
11876.285638	1410.570000	934.985352	28.603113
11876.285638	1410.570000	933.808594	-15.957590
11876.285638	1410.570000	932.631836	116.619774
11876.285638	1410.570000	931.454102	59.252224
11876.285638	1410.570000	930.277344	38.198860
11876.285638	1410.570000	929.099609	68.289940
11876.285638	1410.570000	927.921875	81.357933
11876.285638	1410.570000	926.743164	-5.798771
11876.285638	1410.570000	925.565430	45.650906
11876.285638	1410.570000	924.386719	43.795780
11876.285638	1410.570000	923.208008	1.462218
11876.285638	1410.570000	922.028320	50.766460
11876.285638	1410.570000	920.849609	25.497576
11876.285638	1410.570000	919.669922	26.600103
11876.285638	1410.570000	919.474609	-37.909481
11876.285638	1410.570000	918.309570	149.787659
11876.285638	1410.570000	917.143555	113.872208
11876.285638	1410.570000	915.977539	58.819160
11876.285638	1410.570000	914.810547	112.327530
11876.285638	1410.570000	913.644531	67.945107
11876.285638	1410.570000	912.477539	85.276382
11876.285638	1410.570000	911.310547	-5.861375
11876.285638	1410.570000	910.143555	-82.072586
11876.285638	1410.570000	908.975586	-41.319836
11876.285638	1410.570000	907.807617	46.182861
11876.285638	1410.570000	906.639648	-23.600306
11876.285638	1410.570000	905.471680	8.632980
11876.285638	1410.570000	904.303711	51.479706
11876.285638	1410.570000	903.134766	-11.873296
11876.285638	1410.570000	901.965820	-53.961597
11876.285638	1410.570000	900.796875	-55.691879
11876.285638	1410.570000	899.626953	97.526505
11876.285638	1410.570000	898.457031	51.215824
11876.285638	1410.570000	897.287109	79.186188
11876.285638	1410.570000	896.117188	30.788479
11876.285638	1410.570000	894.947266	39.676792
11876.285638	1410.570000	893.776367	99.455940
11876.285638	1410.570000	892.605469	-40.052280
11876.285638	1410.570000	891.434570	-45.972095
11876.285638	1410.570000	890.262695	3.212196
11876.285638	1410.570000	889.091797	-21.768991
11876.285638	1410.570000	887.919922	42.229492
11876.285638	1410.570000	886.748047	-101.328506
11876.285638	1410.570000	885.575195	19.840546
11876.285638	1410.570000	884.403320	-106.706818
11876.285638	1410.570000	883.230469	44.056427
11876.285638	1410.570000	882.057617	17.021086
11876.285638	1410.570000	880.883789	-134.813965
11876.285638	1410.570000	879.710938	-43.341938
11876.285638	1410.570000	878.537109	18.494225
11876.285638	1410.570000	877.362305	61.284393
11876.285638	1410.570000	876.188477	0.484656
11876.285638	1410.570000	875.013672	-64.509506
11876.285638	1410.570000	873.839844	-51.292320
11876.285638	1410.570000	872.664063	-84.547523
11876.285638	1410.570000	871.489258	110.323158
11876.285638	1410.570000	870.313477	-146.775742
11876.285638	1410.570000	869.138672	-44.853802
11876.285638	1410.570000	867.962891	-124.495468
11876.285638	1410.570000	866.786133	-16.273996
11876.285638	1410.570000	865.610352	-76.886734
11876.285638	1410.570000	864.433594	-29.882477
11876.285638	1410.570000	863.256836	-181.144226
11876.285638	1410.570000	862.079102	-161.536591
11876.285638	1410.570000	860.902344	-63.928356
11876.285638	1410.570000	859.724609	-14.831676
11876.285638	1410.570000	858.546875	38.465633
11876.285638	1410.570000	857.368164	34.861664
11876.285638	1410.570000	856.190430	-12.971898
11876.285638	1410.570000	855.011719	-48.142879
11876.285638	1410.570000	853.833008	45.149254
11876.285638	1410.570000	852.654297	-25.795273
11876.285638	1410.570000	851.474609	-105.123039
11876.285638	1410.570000	850.294922	-110.761330
11876.285638	1410.570000	849.115234	-91.144783
11876.285638	1410.570000	847.935547	-124.117477
11876.285638	1410.570000	846.754883	0.656929
11876.285638	1410.570000	845.575195	-74.361664
11876.285638	1410.570000	844.393555	-86.277374
11876.285638	1410.570000	843.212891	-169.642502
11876.285638	1410.570000	842.032227	-154.207657
11876.285638	1410.570000	840.850586	-0.115740
11876.285638	1410.570000	839.668945	-20.418125
11876.285638	1410.570000	838.486328	-80.606110
11876.285638	1410.570000	837.304688	-107.172752
11876.285638	1410.570000	836.122070	-72.847618
11876.285638	1410.570000	834.939453	-202.230942
11876.285638	1410.570000	833.756836	-75.567459
11876.285638	1410.570000	832.573242	48.951321
11876.285638	1410.570000	831.389648	-95.044861
11876.285638	1410.570000	830.206055	46.210712
11876.285638	1410.570000	829.022461	-55.786728
11876.285638	1410.570000	827.838867	-50.837124
11876.285638	1410.570000	826.654297	48.421249
11876.285638	1410.570000	825.469727	-24.168285
11876.285638	1410.570000	824.284180	1.733291
11876.285638	1410.570000	823.099609	-51.960693
11876.285638	1410.570000	821.914063	40.948685
11876.285638	1410.570000	820.728516	18.678751
11876.285638	1410.570000	819.542969	-53.813129
11876.285638	1410.570000	818.356445	-11.175256
11876.285638	1410.570000	817.169922	50.277458
11876.285638	1410.570000	815.983398	-20.075521
11876.285638	1410.570000	814.796875	45.540543
11876.285638	1410.570000	813.609375	-45.686474
11876.285638	1410.570000	812.422852	5.278281
11876.285638	1410.570000	811.235352	-29.467829
11876.285638	1410.570000	810.046875	65.360168
11876.285638	1410.570000	808.859375	-75.930428
11876.285638	1410.570000	807.670898	-18.727606
11876.285638	1410.570000	806.482422	-1.225971
11876.285638	1410.570000	805.293945	-38.016293
11876.285638	1410.570000	804.104492	-101.926819
11876.285638	1410.570000	802.915039	-19.718084
11876.285638	1410.570000	801.725586	58.283783
11876.285638	1410.570000	800.536133	34.030239
11876.285638	1410.570000	799.345703	13.959372
11876.285638	1410.570000	798.155273	73.138031
11876.285638	1410.570000	796.964844	-1.141262
11876.285638	1410.570000	795.774414	-112.910721
11876.285638	1410.570000	794.583008	15.028234
11876.285638	1410.570000	793.392578	78.320023
11876.285638	1410.570000	792.200195	18.680420
11876.285638	1410.570000	791.008789	40.288704
11876.285638	1410.570000	789.816406	66.051498
11876.285638	1410.570000	788.625000	10.607364
11876.285638	1410.570000	787.432617	84.233521
11876.285638	1410.570000	786.239258	37.129429
11876.285638	1410.570000	785.046875	12.926823
11876.285638	1410.570000	783.853516	13.693912
11876.285638	1410.570000	782.660156	-110.325462
11876.285638	1410.570000	781.465820	-22.210117
11876.285638	1410.570000	780.272461	-73.419136
11876.285638	1410.570000	779.078125	2.173042
11876.285638	1410.570000	777.883789	63.183300
11876.285638	1410.570000	776.688477	-8.798508
11876.285638	1410.570000	775.494141	21.021746
11876.285638	1410.570000	774.298828	81.975616
11876.285638	1410.570000	773.103516	30.780840
11876.285638	1410.570000	771.907227	50.180309
11876.285638	1410.570000	770.711914	-15.526440
11876.285638	1410.570000	769.515625	37.061188
11876.285638	1410.570000	768.318359	-18.254114
11876.285638	1410.570000	767.122070	-13.405946
11876.285638	1410.570000	765.924805	32.907379
11876.285638	1410.570000	764.727539	187.001755
11876.285638	1410.570000	763.530273	129.598358
11876.285638	1410.570000	762.333008	-35.552883
11876.285638	1410.570000	761.134766	149.514999
11876.285638	1410.570000	759.936523	119.060310
11876.285638	1410.570000	758.738281	43.045395
11876.285638	1410.570000	757.540039	-49.512444
11876.285638	1410.570000	756.340820	33.927914
11876.285638	1410.570000	755.141602	57.299603
11876.285638	1410.570000	753.942383	140.662628
11876.285638	1410.570000	752.742188	95.708252
11876.285638	1410.570000	751.541992	100.405251
11876.285638	1410.570000	750.341797	105.089272
11876.285638	1410.570000	749.141602	45.663109
11876.285638	1410.570000	747.941406	79.273911
11876.285638	1410.570000	746.740234	48.789879
11876.285638	1410.570000	745.539063	103.025558
11876.285638	1410.570000	744.337891	132.435226
11876.285638	1410.570000	743.135742	134.969330
11876.285638	1410.570000	741.933594	125.098938
11876.285638	1410.570000	740.731445	90.443367
11876.285638	1410.570000	739.529297	59.916630
11876.285638	1410.570000	738.326172	151.150513
11876.285638	1410.570000	737.124023	194.874420
11876.285638	1410.570000	735.919922	292.202057
11876.285638	1410.570000	734.716797	276.037689
11876.285638	1410.570000	733.513672	272.236694
11876.285638	1410.570000	732.309570	554.983337
11876.285638	1410.570000	731.105469	485.137390
11876.285638	1410.570000	729.900391	365.847412
11876.285638	1410.570000	728.696289	293.976105
11876.285638	1410.570000	727.491211	281.855194
11876.285638	1410.570000	726.286133	224.413956
11876.285638	1410.570000	725.080078	183.451981
11876.285638	1410.570000	723.874023	43.677082
11876.285638	1410.570000	722.668945	124.163376
11876.285638	1410.570000	721.461914	62.616573
11876.285638	1410.570000	720.255859	108.054245
11876.285638	1410.570000	719.048828	85.578484
11876.285638	1410.570000	717.841797	3.456026
11876.285638	1410.570000	716.634766	40.595524
11876.285638	1410.570000	715.427734	-8.634176
11876.285638	1410.570000	714.219727	71.609856
11876.285638	1410.570000	713.011719	24.408401
11876.285638	1410.570000	711.803711	151.818298
11876.285638	1410.570000	710.594727	125.115784
11876.285638	1410.570000	709.385742	-8.374174
11876.285638	1410.570000	708.176758	143.533447
11876.285638	1410.570000	706.967773	118.836182
11876.285638	1410.570000	705.758789	120.804016
11876.285638	1410.570000	704.548828	147.368851
11876.285638	1410.570000	703.338867	-14.816360
11876.285638	1410.570000	702.127930	89.650978
11876.285638	1410.570000	700.917969	118.185570
11876.285638	1410.570000	699.707031	91.335266
11876.285638	1410.570000	698.496094	68.571228
11876.285638	1410.570000	697.285156	105.215942
11876.285638	1410.570000	696.073242	152.064240
11876.285638	1410.570000	694.861328	-57.162891
11876.285638	1410.570000	693.649414	6.031598
11876.285638	1410.570000	692.436523	46.652939
11876.285638	1410.570000	691.224609	40.150856
11876.285638	1410.570000	690.011719	109.346825
11876.285638	1410.570000	688.798828	6.615511
11876.285638	1410.570000	687.584961	38.914700
11876.285638	1410.570000	686.372070	95.715538
11876.285638	1410.570000	685.158203	115.659172
11876.285638	1410.570000	683.943359	82.413528
11876.285638	1410.570000	682.729492	120.691589
11876.285638	1410.570000	681.514648	101.707382
11876.285638	1410.570000	680.299805	176.684860
11876.285638	1410.570000	679.084961	106.573776
11876.285638	1410.570000	677.869141	48.717018
11876.285638	1410.570000	676.653320	70.485603
11876.285638	1410.570000	675.437500	22.809504
11876.285638	1410.570000	674.221680	71.047913
11876.285638	1410.570000	673.004883	149.843948
11876.285638	1410.570000	671.789063	26.610010
11876.285638	1410.570000	670.571289	25.776253
11876.285638	1410.570000	669.354492	39.187336
11876.285638	1410.570000	668.136719	62.756275
11876.285638	1410.570000	666.919922	43.479202
11876.285638	1410.570000	665.701172	60.862152
11876.285638	1410.570000	664.483398	149.518906
11876.285638	1410.570000	663.264648	158.661606
11876.285638	1410.570000	662.045898	200.355484
11876.285638	1410.570000	660.827148	83.176567
11876.285638	1410.570000	659.608398	116.662560
11876.285638	1410.570000	658.388672	113.466370
11876.285638	1410.570000	657.168945	-32.204113
11876.285638	1410.570000	655.949219	143.603165
11876.285638	1410.570000	654.728516	-36.655758
11876.285638	1410.570000	653.507813	-3.340254
11876.285638	1410.570000	652.287109	-6.668678
11876.285638	1410.570000	651.066406	6.234128
11876.285638	1410.570000	649.844727	41.454025
11876.285638	1410.570000	648.623047	131.487717
11876.285638	1410.570000	647.401367	14.239914
11876.285638	1410.570000	646.179688	83.865349
11876.285638	1410.570000	644.957031	55.958107
11876.285638	1410.570000	643.734375	62.542850
11876.285638	1410.570000	642.511719	105.627350
11876.285638	1410.570000	641.289063	35.018211
11876.285638	1410.570000	640.065430	67.878792
11876.285638	1410.570000	638.841797	33.752674
11876.285638	1410.570000	637.618164	-14.588181
11876.285638	1410.570000	636.393555	107.376213
11876.285638	1410.570000	635.168945	67.081383
11876.285638	1410.570000	633.944336	138.241470
11876.285638	1410.570000	632.719727	93.837914
11876.285638	1410.570000	631.494141	266.189209
11876.285638	1410.570000	630.269531	41.444355
11876.285638	1410.570000	629.042969	150.890213
11876.285638	1410.570000	627.817383	122.584236
11876.285638	1410.570000	626.590820	45.675480
11876.285638	1410.570000	625.365234	152.928391
11876.285638	1410.570000	624.137695	-11.024235
11876.285638	1410.570000	622.911133	100.173492
11876.285638	1410.570000	621.683594	91.964874
11876.285638	1410.570000	620.456055	61.484356
11876.285638	1410.570000	619.228516	-43.815334
11876.285638	1410.570000	618.000977	164.178467
11876.285638	1410.570000	616.772461	178.058701
11876.285638	1410.570000	615.543945	16.133020
11876.285638	1410.570000	614.314453	50.171085
11876.285638	1410.570000	613.085938	-10.750795
11876.285638	1410.570000	611.856445	23.213926
11876.285638	1410.570000	610.626953	73.280754
11876.285638	1410.570000	609.397461	58.713047
11876.285638	1410.570000	608.166992	56.224712
11876.285638	1410.570000	606.936523	-24.969374
11876.285638	1410.570000	605.706055	-41.620483
11876.285638	1410.570000	604.474609	-46.198341
11876.285638	1410.570000	603.244141	-103.220665
11876.285638	1410.570000	602.012695	35.261806
11876.285638	1410.570000	600.780273	-3.681689
11876.285638	1410.570000	599.548828	-139.345291
11876.285638	1410.570000	598.316406	2.992082
11876.285638	1410.570000	597.083984	56.627857
11876.285638	1410.570000	595.851563	-0.529016
11876.285638	1410.570000	594.618164	-132.174942
11876.285638	1410.570000	593.384766	-24.294910
11876.285638	1410.570000	592.151367	-53.317326
11876.285638	1410.570000	590.917969	-17.980667
11876.285638	1410.570000	589.683594	7.254439
11876.285638	1410.570000	588.449219	24.406811
11876.285638	1410.570000	587.214844	39.513386
11876.285638	1410.570000	585.979492	157.095428
11876.285638	1410.570000	584.745117	57.565247
11876.285638	1410.570000	583.509766	30.378845
11876.285638	1410.570000	582.273438	45.359032
11876.285638	1410.570000	581.038086	-44.123993
11876.285638	1410.570000	579.801758	23.018511
11876.285638	1410.570000	578.565430	43.934978
11876.285638	1410.570000	577.329102	-15.463807
11876.285638	1410.570000	576.091797	-139.075363
11876.285638	1410.570000	574.854492	-66.053925
11876.285638	1410.570000	573.617188	51.038914
11876.285638	1410.570000	572.378906	21.667656
11876.285638	1410.570000	571.141602	68.473358
11876.285638	1410.570000	569.903320	-67.172020
11876.285638	1410.570000	568.664063	-44.465130
11876.285638	1410.570000	567.425781	34.312614
11876.285638	1410.570000	566.186523	18.883905
11876.285638	1410.570000	564.947266	37.487064
11876.285638	1410.570000	563.708008	-0.003681
11876.285638	1410.570000	562.467773	-19.483765
11876.285638	1410.570000	561.227539	45.086216
11876.285638	1410.570000	559.987305	-54.476128
11876.285638	1410.570000	558.747070	52.047943
11876.285638	1410.570000	557.505859	-37.512188
11876.285638	1410.570000	556.264648	62.924709
11876.285638	1410.570000	555.023438	-70.620613
11876.285638	1410.570000	553.781250	31.742489
11876.285638	1410.570000	552.539063	-41.820721
11876.285638	1410.570000	551.296875	-23.458418
11876.285638	1410.570000	550.054688	-116.986259
11876.285638	1410.570000	548.811523	-40.730179
11876.285638	1410.570000	547.569336	-62.360744
11876.285638	1410.570000	546.325195	-18.121479
11876.285638	1410.570000	545.082031	6.128422
11876.285638	1410.570000	543.837891	-21.530079
11876.285638	1410.570000	542.593750	54.553749
11876.285638	1410.570000	541.349609	-3.047298
11876.285638	1410.570000	540.105469	-20.751396
11876.285638	1410.570000	538.860352	-16.529562
11876.285638	1410.570000	537.615234	-56.173897
11876.285638	1410.570000	536.369141	73.584564
11876.285638	1410.570000	535.124023	-33.826160
11876.285638	1410.570000	533.877930	2.226527
11876.285638	1410.570000	532.631836	-119.084114
11876.285638	1410.570000	531.384766	-41.231819
11876.285638	1410.570000	530.138672	-78.883507
11876.285638	1410.570000	528.891602	-17.010372
11876.285638	1410.570000	527.643555	-150.185654
11876.285638	1410.570000	526.396484	-74.409721
11876.285638	1410.570000	525.148438	-30.499041
11876.285638	1410.570000	523.900391	-66.157776
11876.285638	1410.570000	522.652344	-60.053143
11876.285638	1410.570000	521.403320	-0.286860
11876.285638	1410.570000	520.154297	-45.879993
11876.285638	1410.570000	518.905273	3.916730
11876.285638	1410.570000	517.656250	-39.676483
11876.285638	1410.570000	516.406250	133.228622
11876.285638	1410.570000	515.156250	-65.261131
11876.285638	1410.570000	513.906250	-75.068848
11876.285638	1410.570000	512.655273	60.015709
11876.285638	1410.570000	511.404297	-64.912117
11876.285638	1410.570000	510.153320	-1.309893
11876.285638	1410.570000	508.902344	-147.988235
11876.285638	1410.570000	507.650391	-44.734013
11876.285638	1410.570000	506.398438	-106.084488
11876.285638	1410.570000	505.146484	-123.797089
11876.285638	1410.570000	503.893555	-12.683366
11876.285638	1410.570000	502.641602	54.796906
11876.285638	1410.570000	501.388672	-36.229034
11876.285638	1410.570000	500.134766	-6.401467
11876.285638	1410.570000	498.881836	-6.282295
11876.285638	1410.570000	497.627930	-45.755287
11876.285638	1410.570000	496.374023	-61.455765
11876.285638	1410.570000	495.119141	-55.380173
11876.285638	1410.570000	493.865234	-5.774602
11876.285638	1410.570000	492.610352	-61.021149
11876.285638	1410.570000	491.355469	-94.485458
11876.285638	1410.570000	490.099609	2.558856
11876.285638	1410.570000	488.843750	-40.779530
11876.285638	1410.570000	487.587891	10.768312
11876.285638	1410.570000	486.332031	91.937592
11876.285638	1410.570000	485.075195	62.451218
11876.285638	1410.570000	483.818359	1.383545
11876.285638	1410.570000	482.561523	-20.160173
11876.285638	1410.570000	481.304688	-41.688484
11876.285638	1410.570000	480.046875	84.826111
11876.285638	1410.570000	478.789063	79.080391
11876.285638	1410.570000	477.531250	110.827927
11876.285638	1410.570000	476.272461	75.501900
11876.285638	1410.570000	475.013672	115.133934
11876.285638	1410.570000	473.754883	-50.293022
11876.285638	1410.570000	472.496094	7.099956
11876.285638	1410.570000	471.236328	74.324776
11876.285638	1410.570000	469.976563	25.275696
11876.285638	1410.570000	468.716797	5.800499
11876.285638	1410.570000	467.456055	-53.054337
11876.285638	1410.570000	466.196289	79.120438
11876.285638	1410.570000	464.935547	8.469835
11876.285638	1410.570000	463.673828	-75.927307
11876.285638	1410.570000	462.413086	-28.442671
11876.285638	1410.570000	461.151367	9.183395
11876.285638	1410.570000	459.889648	76.298111
11876.285638	1410.570000	458.626953	-11.972523
11876.285638	1410.570000	457.364258	-1.901998
11876.285638	1410.570000	456.101563	74.994453
11876.285638	1410.570000	454.838867	57.524288
11876.285638	1410.570000	453.575195	-26.747501
11876.285638	1410.570000	452.312500	77.595055
11876.285638	1410.570000	451.047852	42.441788
11876.285638	1410.570000	449.784180	-14.299762
11876.285638	1410.570000	448.519531	66.390465
11876.285638	1410.570000	447.254883	-6.052514
11876.285638	1410.570000	445.990234	-11.758185
11876.285638	1410.570000	444.725586	59.038174
11876.285638	1410.570000	443.459961	65.061867
11876.285638	1410.570000	442.194336	90.678093
11876.285638	1410.570000	440.927734	57.447426
11876.285638	1410.570000	439.662109	83.018692
11876.285638	1410.570000	438.395508	51.725449
11876.285638	1410.570000	437.127930	10.624884
11876.285638	1410.570000	435.861328	102.723083
11876.285638	1410.570000	434.593750	67.454826
11876.285638	1410.570000	433.326172	128.116699
11876.285638	1410.570000	432.058594	59.520985
11876.285638	1410.570000	430.790039	24.191797
11876.285638	1410.570000	429.521484	14.280997
11876.285638	1410.570000	428.252930	49.332020
11876.285638	1410.570000	426.984375	180.167023
11876.285638	1410.570000	425.714844	220.948288
11876.285638	1410.570000	424.445313	197.149658
11876.285638	1410.570000	423.174805	85.352585
11876.285638	1410.570000	421.905273	65.402519
11876.285638	1410.570000	420.634766	-13.209344
11876.285638	1410.570000	419.364258	-11.757025
11876.285638	1410.570000	418.092773	-37.710712
11876.285638	1410.570000	416.822266	6.575478
11876.285638	1410.570000	415.550781	21.490604
11876.285638	1410.570000	414.278320	-10.515779
11876.285638	1410.570000	413.006836	54.980717
11876.285638	1410.570000	411.734375	30.628954
11876.285638	1410.570000	410.461914	64.715912
11876.285638	1410.570000	409.188477	-94.350243
11876.285638	1410.570000	407.916016	-5.844362
11876.285638	1410.570000	406.642578	94.217789
11876.285638	1410.570000	405.368164	53.825047
11876.285638	1410.570000	404.094727	91.277763
11876.285638	1410.570000	402.820313	-44.759075
11876.285638	1410.570000	401.545898	27.521503
11876.285638	1410.570000	400.270508	132.743866
11876.285638	1410.570000	398.996094	121.002380
11876.285638	1410.570000	397.720703	64.367447
11876.285638	1410.570000	396.444336	62.095303
11876.285638	1410.570000	395.168945	48.011875
11876.285638	1410.570000	393.892578	154.362701
11876.285638	1410.570000	392.616211	120.508949
11876.285638	1410.570000	391.339844	107.890579
11876.285638	1410.570000	390.062500	182.566711
11876.285638	1410.570000	388.785156	-26.674406
11876.285638	1410.570000	387.507813	158.375656
11876.285638	1410.570000	386.229492	117.835587
11876.285638	1410.570000	384.951172	84.882111
11876.285638	1410.570000	383.672852	12.906187
11876.285638	1410.570000	382.394531	99.917236
11876.285638	1410.570000	381.115234	23.646275
11876.285638	1410.570000	379.835938	69.413368
11876.285638	1410.570000	378.556641	48.967525
11876.285638	1410.570000	377.277344	61.252876
11876.285638	1410.570000	375.997070	3.466611
11876.285638	1410.570000	374.716797	-9.973740
11876.285638	1410.570000	373.435547	123.608604
11876.285638	1410.570000	372.155273	53.394062
11876.285638	1410.570000	370.874023	2.281315
11876.285638	1410.570000	369.591797	1.236829
11876.285638	1410.570000	368.310547	32.803917
11876.285638	1410.570000	367.028320	27.239498
11876.285638	1410.570000	365.746094	-56.084534
11876.285638	1410.570000	364.463867	28.641209
11876.285638	1410.570000	363.180664	-20.537403
11876.285638	1410.570000	361.897461	13.109868
11876.285638	1410.570000	360.614258	-125.759773
11876.285638	1410.570000	359.330078	57.920292
11876.285638	1410.570000	358.045898	-62.382404
11876.285638	1410.570000	356.761719	-51.633602
11876.285638	1410.570000	355.477539	66.880371
11876.285638	1410.570000	354.192383	-21.820269
11876.285638	1410.570000	352.907227	-2.786528
11876.285638	1410.570000	351.622070	-13.202628
11876.285638	1410.570000	350.336914	-8.660329
11876.285638	1410.570000	349.050781	-23.939997
11876.285638	1410.570000	347.764648	8.509049
11876.285638	1410.570000	346.477539	-17.485174
11876.285638	1410.570000	345.191406	-32.434357
11876.285638	1410.570000	343.904297	40.749512
11876.285638	1410.570000	342.616211	-27.445150
11876.285638	1410.570000	341.329102	-51.863503
11876.285638	1410.570000	340.041016	-5.599947
11876.285638	1410.570000	338.752930	-75.600479
11876.285638	1410.570000	337.463867	-140.464157
11876.285638	1410.570000	336.175781	-40.327820
11876.285638	1410.570000	334.886719	-41.071503
11876.285638	1410.570000	333.596680	11.356215
11876.285638	1410.570000	332.307617	-75.529663
11876.285638	1410.570000	331.017578	2.336107
11876.285638	1410.570000	329.727539	-86.054726
11876.285638	1410.570000	328.436523	-4.038874
11876.285638	1410.570000	327.146484	-103.615044
11876.285638	1410.570000	325.855469	-17.518301
11876.285638	1410.570000	324.563477	33.059769
11876.285638	1410.570000	323.272461	34.711258
11876.285638	1410.570000	321.980469	45.038677
11876.285638	1410.570000	320.688477	-114.607697
11876.285638	1410.570000	319.395508	-19.741817
11876.285638	1410.570000	318.103516	-129.397858
11876.285638	1410.570000	316.810547	-71.109238
11876.285638	1410.570000	315.516602	-102.187920
11876.285638	1410.570000	314.223633	11.543934
11876.285638	1410.570000	312.929688	-14.009378
11876.285638	1410.570000	311.635742	60.987911
11876.285638	1410.570000	310.340820	155.874573
11876.285638	1410.570000	309.045898	44.419502
11876.285638	1410.570000	307.750977	31.482740
11876.285638	1410.570000	306.456055	147.630325
11876.285638	1410.570000	305.160156	245.193237
11876.285638	1410.570000	303.865234	126.930557
11876.285638	1410.570000	302.568359	237.130371
11876.285638	1410.570000	301.272461	412.975952
11876.285638	1410.570000	299.975586	472.471527
11876.285638	1410.570000	298.678711	379.334534
