#X		#Y		#Wave		#Intensity
12004.329255	2632.716667	1999.980469	107.313370
12004.329255	2632.716667	1999.016602	-152.357620
12004.329255	2632.716667	1998.052734	66.368279
12004.329255	2632.716667	1997.087891	-119.033630
12004.329255	2632.716667	1996.123047	-79.008919
12004.329255	2632.716667	1995.158203	201.185822
12004.329255	2632.716667	1994.193359	216.161133
12004.329255	2632.716667	1993.228516	102.263802
12004.329255	2632.716667	1992.262695	79.917580
12004.329255	2632.716667	1991.297852	213.434219
12004.329255	2632.716667	1990.332031	109.218513
12004.329255	2632.716667	1989.366211	-155.886688
12004.329255	2632.716667	1988.399414	-35.036369
12004.329255	2632.716667	1987.433594	206.889343
12004.329255	2632.716667	1986.466797	10.910555
12004.329255	2632.716667	1985.500977	111.640518
12004.329255	2632.716667	1984.534180	2.123317
12004.329255	2632.716667	1983.567383	233.668777
12004.329255	2632.716667	1982.599609	7.877003
12004.329255	2632.716667	1981.632813	-190.719421
12004.329255	2632.716667	1980.665039	-53.344753
12004.329255	2632.716667	1979.697266	-24.759409
12004.329255	2632.716667	1978.729492	40.794720
12004.329255	2632.716667	1977.761719	17.383310
12004.329255	2632.716667	1976.792969	82.787453
12004.329255	2632.716667	1975.825195	278.919067
12004.329255	2632.716667	1974.856445	238.036301
12004.329255	2632.716667	1973.887695	132.972565
12004.329255	2632.716667	1972.918945	254.831390
12004.329255	2632.716667	1971.949219	176.832825
12004.329255	2632.716667	1970.980469	81.559990
12004.329255	2632.716667	1970.010742	195.825974
12004.329255	2632.716667	1969.041016	88.172211
12004.329255	2632.716667	1968.071289	51.986198
12004.329255	2632.716667	1967.101563	30.557720
12004.329255	2632.716667	1966.130859	309.639557
12004.329255	2632.716667	1965.161133	199.431229
12004.329255	2632.716667	1964.190430	5.500978
12004.329255	2632.716667	1963.219727	33.198845
12004.329255	2632.716667	1962.249023	-0.686572
12004.329255	2632.716667	1961.277344	-209.332535
12004.329255	2632.716667	1960.306641	-51.281582
12004.329255	2632.716667	1959.334961	182.949066
12004.329255	2632.716667	1958.363281	80.076607
12004.329255	2632.716667	1957.391602	277.256622
12004.329255	2632.716667	1956.419922	41.578278
12004.329255	2632.716667	1955.447266	172.268250
12004.329255	2632.716667	1954.474609	283.225311
12004.329255	2632.716667	1953.501953	32.868595
12004.329255	2632.716667	1952.529297	89.717789
12004.329255	2632.716667	1951.556641	264.444885
12004.329255	2632.716667	1950.583984	-22.661928
12004.329255	2632.716667	1949.610352	88.140305
12004.329255	2632.716667	1948.636719	-17.171610
12004.329255	2632.716667	1947.663086	0.280257
12004.329255	2632.716667	1946.689453	-6.829332
12004.329255	2632.716667	1945.715820	336.952667
12004.329255	2632.716667	1944.741211	-153.558685
12004.329255	2632.716667	1943.767578	13.491517
12004.329255	2632.716667	1942.792969	207.445313
12004.329255	2632.716667	1941.818359	80.104553
12004.329255	2632.716667	1940.842773	53.316360
12004.329255	2632.716667	1939.868164	212.817459
12004.329255	2632.716667	1938.892578	-5.148940
12004.329255	2632.716667	1937.916992	-44.175583
12004.329255	2632.716667	1936.941406	71.141502
12004.329255	2632.716667	1935.965820	-14.428510
12004.329255	2632.716667	1934.990234	-139.151627
12004.329255	2632.716667	1934.013672	103.421608
12004.329255	2632.716667	1933.037109	-84.929604
12004.329255	2632.716667	1932.060547	174.672211
12004.329255	2632.716667	1931.083984	57.337914
12004.329255	2632.716667	1930.107422	-77.079491
12004.329255	2632.716667	1929.129883	-94.035950
12004.329255	2632.716667	1928.153320	-64.517647
12004.329255	2632.716667	1927.175781	160.603073
12004.329255	2632.716667	1926.198242	-78.856667
12004.329255	2632.716667	1925.219727	143.737930
12004.329255	2632.716667	1924.242188	146.310730
12004.329255	2632.716667	1923.263672	90.242256
12004.329255	2632.716667	1922.285156	153.899353
12004.329255	2632.716667	1921.306641	-68.231392
12004.329255	2632.716667	1920.328125	112.652061
12004.329255	2632.716667	1919.349609	168.952286
12004.329255	2632.716667	1918.370117	5.536392
12004.329255	2632.716667	1917.391602	120.417892
12004.329255	2632.716667	1916.412109	-121.006180
12004.329255	2632.716667	1915.431641	-215.955353
12004.329255	2632.716667	1914.452148	203.820129
12004.329255	2632.716667	1913.472656	235.673599
12004.329255	2632.716667	1912.492188	-68.975159
12004.329255	2632.716667	1911.511719	72.629120
12004.329255	2632.716667	1910.531250	192.248230
12004.329255	2632.716667	1909.550781	-41.535713
12004.329255	2632.716667	1908.569336	73.194069
12004.329255	2632.716667	1907.588867	-50.847038
12004.329255	2632.716667	1906.607422	173.452820
12004.329255	2632.716667	1905.625977	20.224730
12004.329255	2632.716667	1904.644531	144.614212
12004.329255	2632.716667	1903.662109	-10.978570
12004.329255	2632.716667	1902.680664	-98.359871
12004.329255	2632.716667	1901.698242	16.260864
12004.329255	2632.716667	1900.715820	101.648438
12004.329255	2632.716667	1899.733398	65.387733
12004.329255	2632.716667	1898.750000	51.030254
12004.329255	2632.716667	1897.767578	158.259857
12004.329255	2632.716667	1896.784180	-79.758873
12004.329255	2632.716667	1895.800781	105.241699
12004.329255	2632.716667	1894.817383	290.177460
12004.329255	2632.716667	1893.833984	115.451591
12004.329255	2632.716667	1892.850586	-37.342312
12004.329255	2632.716667	1891.866211	64.945839
12004.329255	2632.716667	1890.881836	174.484009
12004.329255	2632.716667	1889.897461	118.888206
12004.329255	2632.716667	1888.913086	-121.167923
12004.329255	2632.716667	1887.927734	-57.761837
12004.329255	2632.716667	1886.943359	10.478569
12004.329255	2632.716667	1885.958008	112.658302
12004.329255	2632.716667	1884.972656	185.694260
12004.329255	2632.716667	1883.987305	101.069618
12004.329255	2632.716667	1883.001953	-87.783264
12004.329255	2632.716667	1882.015625	157.374527
12004.329255	2632.716667	1881.029297	-7.179801
12004.329255	2632.716667	1880.042969	73.085709
12004.329255	2632.716667	1879.056641	10.370989
12004.329255	2632.716667	1878.070313	-146.793961
12004.329255	2632.716667	1877.083984	-158.581299
12004.329255	2632.716667	1876.096680	301.831818
12004.329255	2632.716667	1875.109375	6.696222
12004.329255	2632.716667	1874.122070	157.065277
12004.329255	2632.716667	1873.134766	65.359612
12004.329255	2632.716667	1872.146484	150.323914
12004.329255	2632.716667	1871.159180	-74.408127
12004.329255	2632.716667	1870.170898	-134.581177
12004.329255	2632.716667	1869.182617	-83.490372
12004.329255	2632.716667	1868.194336	-20.331358
12004.329255	2632.716667	1867.205078	21.042902
12004.329255	2632.716667	1866.216797	74.483826
12004.329255	2632.716667	1865.227539	91.652023
12004.329255	2632.716667	1864.238281	-24.075809
12004.329255	2632.716667	1863.249023	-318.521301
12004.329255	2632.716667	1862.259766	-57.369362
12004.329255	2632.716667	1861.269531	-102.992531
12004.329255	2632.716667	1860.279297	133.865784
12004.329255	2632.716667	1859.290039	35.109650
12004.329255	2632.716667	1858.298828	37.742245
12004.329255	2632.716667	1857.308594	81.389557
12004.329255	2632.716667	1856.318359	11.627271
12004.329255	2632.716667	1855.327148	11.830865
12004.329255	2632.716667	1854.335938	-0.032122
12004.329255	2632.716667	1853.344727	130.357285
12004.329255	2632.716667	1852.353516	106.407890
12004.329255	2632.716667	1851.362305	284.915253
12004.329255	2632.716667	1850.370117	487.441284
12004.329255	2632.716667	1849.377930	39.373493
12004.329255	2632.716667	1848.385742	61.187115
12004.329255	2632.716667	1847.393555	145.601486
12004.329255	2632.716667	1846.401367	8.442425
12004.329255	2632.716667	1845.408203	217.999374
12004.329255	2632.716667	1844.415039	283.044617
12004.329255	2632.716667	1843.421875	117.023117
12004.329255	2632.716667	1842.428711	18.422773
12004.329255	2632.716667	1841.435547	52.159241
12004.329255	2632.716667	1840.441406	331.199646
12004.329255	2632.716667	1839.448242	285.480713
12004.329255	2632.716667	1838.454102	47.418457
12004.329255	2632.716667	1837.459961	54.626110
12004.329255	2632.716667	1836.464844	66.620560
12004.329255	2632.716667	1835.470703	153.089569
12004.329255	2632.716667	1834.475586	-31.973736
12004.329255	2632.716667	1833.480469	289.848572
12004.329255	2632.716667	1832.485352	-128.156723
12004.329255	2632.716667	1831.490234	414.436737
12004.329255	2632.716667	1830.495117	37.344463
12004.329255	2632.716667	1829.499023	150.022690
12004.329255	2632.716667	1828.502930	56.260544
12004.329255	2632.716667	1827.506836	195.251022
12004.329255	2632.716667	1826.510742	197.435196
12004.329255	2632.716667	1825.513672	235.573959
12004.329255	2632.716667	1824.517578	86.640594
12004.329255	2632.716667	1823.520508	151.121078
12004.329255	2632.716667	1822.523438	246.719666
12004.329255	2632.716667	1821.526367	4.338364
12004.329255	2632.716667	1820.529297	-108.577820
12004.329255	2632.716667	1819.531250	97.156715
12004.329255	2632.716667	1818.533203	317.163300
12004.329255	2632.716667	1817.535156	309.558807
12004.329255	2632.716667	1816.537109	208.555847
12004.329255	2632.716667	1815.539063	126.720467
12004.329255	2632.716667	1814.540039	-55.632862
12004.329255	2632.716667	1813.541992	101.867996
12004.329255	2632.716667	1812.542969	144.443039
12004.329255	2632.716667	1811.543945	177.410049
12004.329255	2632.716667	1810.543945	236.645905
12004.329255	2632.716667	1809.544922	248.015091
12004.329255	2632.716667	1808.544922	247.400574
12004.329255	2632.716667	1807.544922	203.735428
12004.329255	2632.716667	1806.544922	-21.564569
12004.329255	2632.716667	1805.544922	207.179993
12004.329255	2632.716667	1804.544922	266.197357
12004.329255	2632.716667	1803.543945	232.013687
12004.329255	2632.716667	1802.542969	104.684326
12004.329255	2632.716667	1801.541992	-239.892563
12004.329255	2632.716667	1800.541016	24.353094
12004.329255	2632.716667	1799.539063	-33.732296
12004.329255	2632.716667	1798.538086	182.597183
12004.329255	2632.716667	1797.536133	83.891983
12004.329255	2632.716667	1796.534180	199.876526
12004.329255	2632.716667	1795.532227	170.312317
12004.329255	2632.716667	1794.529297	-178.783447
12004.329255	2632.716667	1793.527344	-112.961449
12004.329255	2632.716667	1792.524414	29.077568
12004.329255	2632.716667	1791.521484	-0.546320
12004.329255	2632.716667	1790.518555	134.212601
12004.329255	2632.716667	1789.514648	416.583344
12004.329255	2632.716667	1788.511719	129.591660
12004.329255	2632.716667	1787.507813	159.384232
12004.329255	2632.716667	1786.503906	58.191677
12004.329255	2632.716667	1785.500000	68.884895
12004.329255	2632.716667	1784.496094	67.645386
12004.329255	2632.716667	1783.491211	78.270386
12004.329255	2632.716667	1782.486328	24.627338
12004.329255	2632.716667	1781.481445	42.332310
12004.329255	2632.716667	1780.476563	-61.283775
12004.329255	2632.716667	1779.471680	191.757462
12004.329255	2632.716667	1778.465820	-56.920666
12004.329255	2632.716667	1777.460938	58.110607
12004.329255	2632.716667	1776.455078	-7.534799
12004.329255	2632.716667	1775.449219	64.612343
12004.329255	2632.716667	1774.442383	-10.576694
12004.329255	2632.716667	1773.436523	-0.266652
12004.329255	2632.716667	1772.429688	-42.234440
12004.329255	2632.716667	1771.422852	65.347717
12004.329255	2632.716667	1770.416016	-40.766369
12004.329255	2632.716667	1769.409180	-4.483980
12004.329255	2632.716667	1768.402344	100.561020
12004.329255	2632.716667	1767.394531	-29.320799
12004.329255	2632.716667	1766.386719	191.840103
12004.329255	2632.716667	1765.378906	121.209686
12004.329255	2632.716667	1764.371094	-22.923025
12004.329255	2632.716667	1763.362305	122.155769
12004.329255	2632.716667	1762.354492	1.713658
12004.329255	2632.716667	1761.345703	267.514191
12004.329255	2632.716667	1760.336914	149.390381
12004.329255	2632.716667	1759.328125	175.766068
12004.329255	2632.716667	1758.318359	-13.409724
12004.329255	2632.716667	1757.308594	197.601410
12004.329255	2632.716667	1756.299805	34.473530
12004.329255	2632.716667	1755.290039	-3.187340
12004.329255	2632.716667	1754.279297	198.134354
12004.329255	2632.716667	1753.269531	257.395264
12004.329255	2632.716667	1752.258789	28.008844
12004.329255	2632.716667	1751.249023	-61.781986
12004.329255	2632.716667	1750.238281	-85.366600
12004.329255	2632.716667	1749.226563	132.162201
12004.329255	2632.716667	1748.215820	39.938114
12004.329255	2632.716667	1747.204102	-9.748670
12004.329255	2632.716667	1746.193359	-40.542633
12004.329255	2632.716667	1745.181641	119.986916
12004.329255	2632.716667	1744.168945	25.336054
12004.329255	2632.716667	1743.157227	84.186684
12004.329255	2632.716667	1742.144531	72.149017
12004.329255	2632.716667	1741.132813	-74.461136
12004.329255	2632.716667	1740.120117	194.321808
12004.329255	2632.716667	1739.106445	-1.881027
12004.329255	2632.716667	1738.093750	70.910408
12004.329255	2632.716667	1737.080078	221.475998
12004.329255	2632.716667	1736.067383	-113.847618
12004.329255	2632.716667	1735.053711	-85.974022
12004.329255	2632.716667	1734.040039	-48.712837
12004.329255	2632.716667	1733.025391	-91.637077
12004.329255	2632.716667	1732.011719	11.529574
12004.329255	2632.716667	1730.997070	18.024721
12004.329255	2632.716667	1729.982422	137.554489
12004.329255	2632.716667	1728.967773	118.055580
12004.329255	2632.716667	1727.952148	-200.514862
12004.329255	2632.716667	1726.937500	-55.206402
12004.329255	2632.716667	1725.921875	-48.861740
12004.329255	2632.716667	1724.906250	-33.135914
12004.329255	2632.716667	1723.890625	-123.324638
12004.329255	2632.716667	1722.875000	19.380890
12004.329255	2632.716667	1721.858398	126.717972
12004.329255	2632.716667	1720.841797	22.347130
12004.329255	2632.716667	1719.825195	91.966812
12004.329255	2632.716667	1718.808594	168.583115
12004.329255	2632.716667	1717.791992	57.127884
12004.329255	2632.716667	1716.774414	-317.486847
12004.329255	2632.716667	1715.756836	22.191565
12004.329255	2632.716667	1714.739258	46.970993
12004.329255	2632.716667	1713.721680	-90.326057
12004.329255	2632.716667	1712.704102	7.195204
12004.329255	2632.716667	1711.685547	-120.710533
12004.329255	2632.716667	1710.667969	131.627777
12004.329255	2632.716667	1709.649414	-10.386209
12004.329255	2632.716667	1708.630859	61.124203
12004.329255	2632.716667	1707.611328	73.934143
12004.329255	2632.716667	1706.592773	-117.315414
12004.329255	2632.716667	1705.573242	120.570038
12004.329255	2632.716667	1704.553711	-124.591286
12004.329255	2632.716667	1703.534180	12.366920
12004.329255	2632.716667	1702.513672	-28.857437
12004.329255	2632.716667	1701.494141	-173.176865
12004.329255	2632.716667	1700.473633	78.416451
12004.329255	2632.716667	1699.453125	-63.578499
12004.329255	2632.716667	1698.432617	-121.245384
12004.329255	2632.716667	1697.412109	66.910263
12004.329255	2632.716667	1696.390625	-93.803391
12004.329255	2632.716667	1695.369141	108.265091
12004.329255	2632.716667	1694.347656	-54.780434
12004.329255	2632.716667	1693.326172	2.117007
12004.329255	2632.716667	1692.304688	21.547609
12004.329255	2632.716667	1691.282227	-57.272335
12004.329255	2632.716667	1690.260742	50.963898
12004.329255	2632.716667	1689.238281	56.279362
12004.329255	2632.716667	1688.214844	-132.415482
12004.329255	2632.716667	1687.192383	230.403992
12004.329255	2632.716667	1686.168945	-16.697279
12004.329255	2632.716667	1685.146484	292.198944
12004.329255	2632.716667	1684.123047	217.956421
12004.329255	2632.716667	1683.099609	-24.387444
12004.329255	2632.716667	1682.075195	162.873795
12004.329255	2632.716667	1681.051758	58.302063
12004.329255	2632.716667	1680.027344	68.091064
12004.329255	2632.716667	1679.002930	315.833008
12004.329255	2632.716667	1677.978516	250.890579
12004.329255	2632.716667	1676.953125	29.693808
12004.329255	2632.716667	1675.928711	116.361397
12004.329255	2632.716667	1674.903320	100.397491
12004.329255	2632.716667	1673.877930	275.552582
12004.329255	2632.716667	1672.852539	45.138618
12004.329255	2632.716667	1671.826172	432.226166
12004.329255	2632.716667	1670.800781	120.310081
12004.329255	2632.716667	1669.774414	20.436382
12004.329255	2632.716667	1668.748047	106.876144
12004.329255	2632.716667	1667.721680	156.019440
12004.329255	2632.716667	1666.694336	270.301086
12004.329255	2632.716667	1665.667969	433.403534
12004.329255	2632.716667	1664.640625	508.008453
12004.329255	2632.716667	1663.613281	375.528625
12004.329255	2632.716667	1662.585938	252.393158
12004.329255	2632.716667	1661.557617	587.401123
12004.329255	2632.716667	1660.530273	313.127625
12004.329255	2632.716667	1659.501953	252.802155
12004.329255	2632.716667	1658.473633	385.392181
12004.329255	2632.716667	1657.444336	404.057098
12004.329255	2632.716667	1656.416016	557.458008
12004.329255	2632.716667	1655.386719	511.030365
12004.329255	2632.716667	1654.358398	455.329895
12004.329255	2632.716667	1653.328125	304.436371
12004.329255	2632.716667	1652.298828	397.349030
12004.329255	2632.716667	1651.269531	518.071045
12004.329255	2632.716667	1650.239258	399.722687
12004.329255	2632.716667	1649.208984	506.460968
12004.329255	2632.716667	1648.178711	555.163330
12004.329255	2632.716667	1647.148438	636.311707
12004.329255	2632.716667	1646.117188	719.737305
12004.329255	2632.716667	1645.086914	515.670654
12004.329255	2632.716667	1644.055664	601.399780
12004.329255	2632.716667	1643.024414	548.052429
12004.329255	2632.716667	1641.992188	798.233276
12004.329255	2632.716667	1640.960938	916.284119
12004.329255	2632.716667	1639.928711	837.421753
12004.329255	2632.716667	1638.896484	839.635193
12004.329255	2632.716667	1637.864258	827.956238
12004.329255	2632.716667	1636.832031	927.388184
12004.329255	2632.716667	1635.798828	904.121826
12004.329255	2632.716667	1634.766602	765.185425
12004.329255	2632.716667	1633.733398	901.583862
12004.329255	2632.716667	1632.699219	751.130188
12004.329255	2632.716667	1631.666016	836.611450
12004.329255	2632.716667	1630.632813	813.400940
12004.329255	2632.716667	1629.598633	952.003906
12004.329255	2632.716667	1628.564453	852.517700
12004.329255	2632.716667	1627.530273	739.211365
12004.329255	2632.716667	1626.495117	776.110596
12004.329255	2632.716667	1625.460938	933.114685
12004.329255	2632.716667	1624.425781	1030.015869
12004.329255	2632.716667	1623.390625	1133.814697
12004.329255	2632.716667	1622.355469	898.247986
12004.329255	2632.716667	1621.319336	801.251770
12004.329255	2632.716667	1620.284180	854.294495
12004.329255	2632.716667	1619.248047	796.582520
12004.329255	2632.716667	1618.211914	923.429932
12004.329255	2632.716667	1617.174805	992.578308
12004.329255	2632.716667	1616.138672	879.567444
12004.329255	2632.716667	1615.101563	957.941650
12004.329255	2632.716667	1614.065430	1146.932861
12004.329255	2632.716667	1613.027344	1137.677368
12004.329255	2632.716667	1611.990234	875.016541
12004.329255	2632.716667	1610.953125	928.043518
12004.329255	2632.716667	1609.915039	1034.026489
12004.329255	2632.716667	1608.876953	988.014771
12004.329255	2632.716667	1607.838867	997.286255
12004.329255	2632.716667	1606.800781	829.342285
12004.329255	2632.716667	1605.761719	1133.220581
12004.329255	2632.716667	1604.723633	1195.423584
12004.329255	2632.716667	1603.684570	1075.889282
12004.329255	2632.716667	1602.644531	1076.005981
12004.329255	2632.716667	1601.605469	1060.051270
12004.329255	2632.716667	1600.566406	975.151733
12004.329255	2632.716667	1599.526367	924.776794
12004.329255	2632.716667	1598.486328	1021.516663
12004.329255	2632.716667	1597.446289	821.846375
12004.329255	2632.716667	1596.405273	1175.885864
12004.329255	2632.716667	1595.365234	932.667297
12004.329255	2632.716667	1594.324219	737.781555
12004.329255	2632.716667	1593.283203	1107.765991
12004.329255	2632.716667	1592.242188	1050.688477
12004.329255	2632.716667	1591.200195	1200.194336
12004.329255	2632.716667	1590.159180	916.015747
12004.329255	2632.716667	1589.117188	1161.885376
12004.329255	2632.716667	1588.075195	969.611084
12004.329255	2632.716667	1587.032227	1098.469116
12004.329255	2632.716667	1585.990234	1270.868164
12004.329255	2632.716667	1584.947266	1115.431763
12004.329255	2632.716667	1583.904297	985.292786
12004.329255	2632.716667	1582.861328	896.475037
12004.329255	2632.716667	1581.818359	1144.479004
12004.329255	2632.716667	1580.775391	1112.981812
12004.329255	2632.716667	1579.731445	1120.448730
12004.329255	2632.716667	1578.687500	887.540405
12004.329255	2632.716667	1577.643555	1085.101196
12004.329255	2632.716667	1576.598633	998.818970
12004.329255	2632.716667	1575.554688	1065.913208
12004.329255	2632.716667	1574.509766	975.153442
12004.329255	2632.716667	1573.464844	1062.869629
12004.329255	2632.716667	1572.419922	1130.001465
12004.329255	2632.716667	1571.374023	1030.226196
12004.329255	2632.716667	1570.329102	1257.419434
12004.329255	2632.716667	1569.283203	1086.873413
12004.329255	2632.716667	1568.237305	1094.662964
12004.329255	2632.716667	1567.191406	800.914368
12004.329255	2632.716667	1566.144531	1144.591187
12004.329255	2632.716667	1565.098633	917.245300
12004.329255	2632.716667	1564.051758	986.843262
12004.329255	2632.716667	1563.004883	1168.308228
12004.329255	2632.716667	1561.957031	1121.496338
12004.329255	2632.716667	1560.910156	910.445618
12004.329255	2632.716667	1559.862305	1169.493896
12004.329255	2632.716667	1558.814453	835.411926
12004.329255	2632.716667	1557.766602	423.959717
12004.329255	2632.716667	1556.718750	427.690521
12004.329255	2632.716667	1555.669922	700.455872
12004.329255	2632.716667	1554.621094	613.034912
12004.329255	2632.716667	1553.573242	605.449890
12004.329255	2632.716667	1552.523438	798.392578
12004.329255	2632.716667	1551.474609	702.013794
12004.329255	2632.716667	1550.424805	498.668762
12004.329255	2632.716667	1549.375000	361.478363
12004.329255	2632.716667	1548.325195	659.202698
12004.329255	2632.716667	1547.275391	538.052124
12004.329255	2632.716667	1546.225586	667.311096
12004.329255	2632.716667	1545.174805	509.884399
12004.329255	2632.716667	1544.124023	102.340744
12004.329255	2632.716667	1543.073242	211.267456
12004.329255	2632.716667	1542.022461	345.206879
12004.329255	2632.716667	1540.970703	133.578430
12004.329255	2632.716667	1539.919922	210.746460
12004.329255	2632.716667	1538.868164	269.744904
12004.329255	2632.716667	1537.815430	167.447250
12004.329255	2632.716667	1536.763672	315.115967
12004.329255	2632.716667	1535.710938	408.261841
12004.329255	2632.716667	1534.659180	178.979156
12004.329255	2632.716667	1533.606445	254.047394
12004.329255	2632.716667	1532.552734	363.176971
12004.329255	2632.716667	1531.500000	293.034180
12004.329255	2632.716667	1530.446289	622.294250
12004.329255	2632.716667	1529.393555	309.497375
12004.329255	2632.716667	1528.338867	572.945618
12004.329255	2632.716667	1527.285156	355.615753
12004.329255	2632.716667	1526.231445	496.627930
12004.329255	2632.716667	1525.176758	406.429596
12004.329255	2632.716667	1524.122070	368.440186
12004.329255	2632.716667	1523.067383	416.617004
12004.329255	2632.716667	1522.012695	591.684021
12004.329255	2632.716667	1520.957031	551.565308
12004.329255	2632.716667	1519.901367	654.173340
12004.329255	2632.716667	1518.845703	663.969360
12004.329255	2632.716667	1517.790039	913.749390
12004.329255	2632.716667	1516.734375	606.761902
12004.329255	2632.716667	1515.677734	711.746643
12004.329255	2632.716667	1514.621094	642.554199
12004.329255	2632.716667	1513.564453	736.288452
12004.329255	2632.716667	1512.507813	848.129150
12004.329255	2632.716667	1511.450195	928.325256
12004.329255	2632.716667	1510.393555	1089.920898
12004.329255	2632.716667	1509.335938	948.669250
12004.329255	2632.716667	1508.278320	938.580933
12004.329255	2632.716667	1507.219727	1005.356934
12004.329255	2632.716667	1506.162109	1142.180664
12004.329255	2632.716667	1505.103516	1148.029541
12004.329255	2632.716667	1504.044922	1336.808228
12004.329255	2632.716667	1502.986328	1193.747314
12004.329255	2632.716667	1501.926758	1030.485840
12004.329255	2632.716667	1500.868164	1332.162598
12004.329255	2632.716667	1499.808594	1259.288574
12004.329255	2632.716667	1498.749023	1033.127686
12004.329255	2632.716667	1497.688477	910.844482
12004.329255	2632.716667	1496.628906	840.523499
12004.329255	2632.716667	1495.568359	587.700623
12004.329255	2632.716667	1494.507813	713.657166
12004.329255	2632.716667	1493.447266	648.095276
12004.329255	2632.716667	1492.386719	384.370697
12004.329255	2632.716667	1491.325195	512.717468
12004.329255	2632.716667	1490.263672	382.103119
12004.329255	2632.716667	1489.202148	332.651733
12004.329255	2632.716667	1488.140625	375.570526
12004.329255	2632.716667	1487.079102	335.260040
12004.329255	2632.716667	1486.016602	349.025879
12004.329255	2632.716667	1484.954102	140.130188
12004.329255	2632.716667	1483.891602	185.537888
12004.329255	2632.716667	1482.829102	64.580139
12004.329255	2632.716667	1481.765625	159.569687
12004.329255	2632.716667	1480.702148	-12.906472
12004.329255	2632.716667	1479.638672	199.031662
12004.329255	2632.716667	1478.575195	-139.518188
12004.329255	2632.716667	1477.511719	29.784914
12004.329255	2632.716667	1476.447266	26.208046
12004.329255	2632.716667	1475.382813	119.193382
12004.329255	2632.716667	1474.318359	21.390406
12004.329255	2632.716667	1473.253906	-42.520145
12004.329255	2632.716667	1472.189453	142.484253
12004.329255	2632.716667	1471.124023	-255.514587
12004.329255	2632.716667	1470.058594	66.481834
12004.329255	2632.716667	1468.993164	-158.715881
12004.329255	2632.716667	1467.927734	-69.636024
12004.329255	2632.716667	1466.861328	-88.273712
12004.329255	2632.716667	1465.794922	-115.884598
12004.329255	2632.716667	1464.728516	-4.663967
12004.329255	2632.716667	1463.662109	-14.002415
12004.329255	2632.716667	1462.594727	34.354164
12004.329255	2632.716667	1461.528320	-61.792751
12004.329255	2632.716667	1460.460938	11.445931
12004.329255	2632.716667	1459.393555	-91.790306
12004.329255	2632.716667	1458.326172	182.437027
12004.329255	2632.716667	1457.257813	17.641068
12004.329255	2632.716667	1456.189453	108.920113
12004.329255	2632.716667	1455.121094	-6.660433
12004.329255	2632.716667	1454.052734	227.317398
12004.329255	2632.716667	1452.984375	169.202194
12004.329255	2632.716667	1451.915039	343.792572
12004.329255	2632.716667	1450.845703	310.389587
12004.329255	2632.716667	1449.776367	275.375061
12004.329255	2632.716667	1448.707031	295.161041
12004.329255	2632.716667	1447.636719	156.405731
12004.329255	2632.716667	1446.567383	456.276093
12004.329255	2632.716667	1445.497070	214.598328
12004.329255	2632.716667	1444.425781	184.120590
12004.329255	2632.716667	1443.355469	292.321014
12004.329255	2632.716667	1442.285156	281.711426
12004.329255	2632.716667	1441.213867	364.456116
12004.329255	2632.716667	1440.142578	415.640717
12004.329255	2632.716667	1439.070313	289.029327
12004.329255	2632.716667	1437.999023	378.422668
12004.329255	2632.716667	1436.926758	491.686951
12004.329255	2632.716667	1435.854492	168.555969
12004.329255	2632.716667	1434.782227	308.107727
12004.329255	2632.716667	1433.709961	67.905609
12004.329255	2632.716667	1432.636719	-42.975464
12004.329255	2632.716667	1431.563477	20.827963
12004.329255	2632.716667	1430.490234	183.408539
12004.329255	2632.716667	1429.416992	193.383331
12004.329255	2632.716667	1428.343750	228.094025
12004.329255	2632.716667	1427.269531	201.737839
12004.329255	2632.716667	1426.195313	207.561752
12004.329255	2632.716667	1425.121094	274.786285
12004.329255	2632.716667	1424.046875	355.569519
12004.329255	2632.716667	1422.971680	59.727097
12004.329255	2632.716667	1421.896484	69.105278
12004.329255	2632.716667	1420.821289	175.852371
12004.329255	2632.716667	1419.746094	311.304138
12004.329255	2632.716667	1418.669922	212.977600
12004.329255	2632.716667	1417.594727	100.086342
12004.329255	2632.716667	1416.518555	241.779816
12004.329255	2632.716667	1415.442383	24.956697
12004.329255	2632.716667	1414.365234	279.031647
12004.329255	2632.716667	1413.289063	371.497131
12004.329255	2632.716667	1412.211914	-19.542917
12004.329255	2632.716667	1411.134766	-59.949799
12004.329255	2632.716667	1410.057617	265.552643
12004.329255	2632.716667	1408.979492	113.101021
12004.329255	2632.716667	1407.902344	-67.554008
12004.329255	2632.716667	1406.824219	37.691074
12004.329255	2632.716667	1405.746094	98.728554
12004.329255	2632.716667	1404.666992	194.786057
12004.329255	2632.716667	1403.588867	86.847183
12004.329255	2632.716667	1402.509766	284.738525
12004.329255	2632.716667	1401.430664	153.636353
12004.329255	2632.716667	1400.351563	328.713226
12004.329255	2632.716667	1399.271484	252.767380
12004.329255	2632.716667	1398.192383	112.775986
12004.329255	2632.716667	1397.112305	-78.445572
12004.329255	2632.716667	1396.031250	122.757896
12004.329255	2632.716667	1394.951172	216.320313
12004.329255	2632.716667	1393.871094	157.629791
12004.329255	2632.716667	1392.790039	45.009174
12004.329255	2632.716667	1391.708984	-78.723206
12004.329255	2632.716667	1390.626953	-63.173092
12004.329255	2632.716667	1389.545898	63.121231
12004.329255	2632.716667	1388.463867	43.983734
12004.329255	2632.716667	1387.381836	312.407318
12004.329255	2632.716667	1386.299805	225.899521
12004.329255	2632.716667	1385.217773	241.826279
12004.329255	2632.716667	1384.134766	-118.804611
12004.329255	2632.716667	1383.051758	347.268097
12004.329255	2632.716667	1381.968750	426.231628
12004.329255	2632.716667	1380.885742	279.929443
12004.329255	2632.716667	1379.802734	519.467651
12004.329255	2632.716667	1378.718750	401.408020
12004.329255	2632.716667	1377.634766	247.751770
12004.329255	2632.716667	1376.550781	277.889221
12004.329255	2632.716667	1375.465820	457.789490
12004.329255	2632.716667	1374.381836	267.774200
12004.329255	2632.716667	1373.296875	279.533875
12004.329255	2632.716667	1372.211914	99.555824
12004.329255	2632.716667	1371.126953	427.451019
12004.329255	2632.716667	1370.041016	233.360703
12004.329255	2632.716667	1368.955078	92.059105
12004.329255	2632.716667	1367.869141	159.200195
12004.329255	2632.716667	1366.783203	4.810980
12004.329255	2632.716667	1365.697266	215.813004
12004.329255	2632.716667	1364.610352	260.104523
12004.329255	2632.716667	1363.523438	15.782763
12004.329255	2632.716667	1362.436523	297.728271
12004.329255	2632.716667	1361.349609	190.235611
12004.329255	2632.716667	1360.261719	288.321350
12004.329255	2632.716667	1359.174805	134.622253
12004.329255	2632.716667	1358.086914	183.702118
12004.329255	2632.716667	1356.998047	179.062653
12004.329255	2632.716667	1355.910156	103.046417
12004.329255	2632.716667	1354.821289	95.002609
12004.329255	2632.716667	1353.732422	148.154053
12004.329255	2632.716667	1352.643555	192.836334
12004.329255	2632.716667	1351.554688	64.604729
12004.329255	2632.716667	1350.464844	252.093353
12004.329255	2632.716667	1349.375000	319.904755
12004.329255	2632.716667	1348.285156	231.876434
12004.329255	2632.716667	1347.195313	449.040253
12004.329255	2632.716667	1346.105469	378.036438
12004.329255	2632.716667	1345.014648	340.723938
12004.329255	2632.716667	1343.923828	263.906219
12004.329255	2632.716667	1342.833008	352.800659
12004.329255	2632.716667	1341.741211	280.950867
12004.329255	2632.716667	1340.650391	281.384766
12004.329255	2632.716667	1339.558594	208.583481
12004.329255	2632.716667	1338.466797	541.114990
12004.329255	2632.716667	1337.374023	355.449707
12004.329255	2632.716667	1336.282227	206.374115
12004.329255	2632.716667	1335.189453	302.888153
12004.329255	2632.716667	1334.096680	485.477600
12004.329255	2632.716667	1333.003906	357.600067
12004.329255	2632.716667	1331.910156	278.209595
12004.329255	2632.716667	1330.817383	618.096191
12004.329255	2632.716667	1329.723633	629.607727
12004.329255	2632.716667	1328.629883	496.569702
12004.329255	2632.716667	1327.535156	332.651123
12004.329255	2632.716667	1326.441406	503.949310
12004.329255	2632.716667	1325.346680	558.603455
12004.329255	2632.716667	1324.251953	545.858887
12004.329255	2632.716667	1323.156250	690.232239
12004.329255	2632.716667	1322.061523	541.073608
12004.329255	2632.716667	1320.965820	686.190430
12004.329255	2632.716667	1319.870117	538.663696
12004.329255	2632.716667	1318.774414	593.727417
12004.329255	2632.716667	1317.678711	579.001282
12004.329255	2632.716667	1316.582031	810.587158
12004.329255	2632.716667	1315.485352	725.247681
12004.329255	2632.716667	1314.388672	718.310486
12004.329255	2632.716667	1313.291016	640.764282
12004.329255	2632.716667	1312.194336	676.927368
12004.329255	2632.716667	1311.096680	581.583191
12004.329255	2632.716667	1309.999023	534.010803
12004.329255	2632.716667	1308.901367	640.291870
12004.329255	2632.716667	1307.802734	573.715942
12004.329255	2632.716667	1306.705078	606.956421
12004.329255	2632.716667	1305.606445	621.834290
12004.329255	2632.716667	1304.506836	256.977081
12004.329255	2632.716667	1303.408203	599.673279
12004.329255	2632.716667	1302.308594	641.833862
12004.329255	2632.716667	1301.208984	422.585236
12004.329255	2632.716667	1300.109375	333.122284
12004.329255	2632.716667	1299.009766	472.063721
12004.329255	2632.716667	1297.909180	225.462112
12004.329255	2632.716667	1296.808594	251.568771
12004.329255	2632.716667	1295.708008	375.706543
12004.329255	2632.716667	1294.607422	303.616241
12004.329255	2632.716667	1293.506836	300.657715
12004.329255	2632.716667	1292.405273	-75.553787
12004.329255	2632.716667	1291.303711	102.515137
12004.329255	2632.716667	1290.202148	205.750793
12004.329255	2632.716667	1289.099609	231.238159
12004.329255	2632.716667	1287.998047	-116.430283
12004.329255	2632.716667	1286.895508	121.849434
12004.329255	2632.716667	1285.792969	205.823532
12004.329255	2632.716667	1284.689453	-143.310623
12004.329255	2632.716667	1283.586914	-4.248785
12004.329255	2632.716667	1282.483398	-44.872185
12004.329255	2632.716667	1281.379883	41.931538
12004.329255	2632.716667	1280.276367	124.595566
12004.329255	2632.716667	1279.171875	-65.207092
12004.329255	2632.716667	1278.067383	28.179832
12004.329255	2632.716667	1276.962891	77.904358
12004.329255	2632.716667	1275.858398	-13.392322
12004.329255	2632.716667	1274.753906	5.207341
12004.329255	2632.716667	1273.648438	-89.051285
12004.329255	2632.716667	1272.542969	83.956726
12004.329255	2632.716667	1271.437500	81.707535
12004.329255	2632.716667	1270.331055	78.261978
12004.329255	2632.716667	1269.225586	72.111420
12004.329255	2632.716667	1268.119141	-111.842743
12004.329255	2632.716667	1267.012695	46.782169
12004.329255	2632.716667	1265.906250	-78.719322
12004.329255	2632.716667	1264.798828	-85.922058
12004.329255	2632.716667	1263.691406	-76.472687
12004.329255	2632.716667	1262.583984	-62.994656
12004.329255	2632.716667	1261.476563	-40.784267
12004.329255	2632.716667	1260.368164	-130.508118
12004.329255	2632.716667	1259.260742	-66.753143
12004.329255	2632.716667	1258.152344	-58.224197
12004.329255	2632.716667	1257.043945	-88.351181
12004.329255	2632.716667	1255.934570	-139.163910
12004.329255	2632.716667	1254.825195	2.115668
12004.329255	2632.716667	1253.716797	-7.059580
12004.329255	2632.716667	1252.606445	-54.457966
12004.329255	2632.716667	1251.497070	-9.751414
12004.329255	2632.716667	1250.387695	54.660160
12004.329255	2632.716667	1249.277344	-50.939529
12004.329255	2632.716667	1248.166992	-80.924789
12004.329255	2632.716667	1247.055664	-46.483574
12004.329255	2632.716667	1245.945313	3.943450
12004.329255	2632.716667	1244.833984	-124.246765
12004.329255	2632.716667	1243.722656	-64.409988
12004.329255	2632.716667	1242.611328	-76.165741
12004.329255	2632.716667	1241.499023	-9.038854
12004.329255	2632.716667	1240.387695	-75.620430
12004.329255	2632.716667	1239.275391	32.576401
12004.329255	2632.716667	1238.162109	-29.203609
12004.329255	2632.716667	1237.049805	-6.939280
12004.329255	2632.716667	1235.936523	-59.973797
12004.329255	2632.716667	1234.823242	-30.718624
12004.329255	2632.716667	1233.709961	72.653999
12004.329255	2632.716667	1232.596680	38.356613
12004.329255	2632.716667	1231.482422	-24.209780
12004.329255	2632.716667	1230.369141	-55.516216
12004.329255	2632.716667	1229.253906	7.100996
12004.329255	2632.716667	1228.139648	-112.799873
12004.329255	2632.716667	1227.025391	34.205627
12004.329255	2632.716667	1225.910156	-23.127966
12004.329255	2632.716667	1224.794922	29.901161
12004.329255	2632.716667	1223.679688	20.827827
12004.329255	2632.716667	1222.563477	21.533527
12004.329255	2632.716667	1221.447266	-87.376602
12004.329255	2632.716667	1220.331055	-23.076710
12004.329255	2632.716667	1219.214844	-111.364990
12004.329255	2632.716667	1218.098633	-6.116755
12004.329255	2632.716667	1216.981445	31.581717
12004.329255	2632.716667	1215.864258	-73.521843
12004.329255	2632.716667	1214.747070	-56.364269
12004.329255	2632.716667	1213.629883	-94.413651
12004.329255	2632.716667	1212.511719	73.409744
12004.329255	2632.716667	1211.393555	45.662277
12004.329255	2632.716667	1210.275391	14.856330
12004.329255	2632.716667	1209.157227	-70.160751
12004.329255	2632.716667	1208.038086	57.492546
12004.329255	2632.716667	1206.918945	56.147964
12004.329255	2632.716667	1205.799805	15.723186
12004.329255	2632.716667	1204.680664	107.449364
12004.329255	2632.716667	1203.560547	-47.460968
12004.329255	2632.716667	1202.441406	59.288891
12004.329255	2632.716667	1201.321289	153.145813
12004.329255	2632.716667	1200.200195	9.942486
12004.329255	2632.716667	1199.080078	-58.181568
12004.329255	2632.716667	1197.958984	73.944122
12004.329255	2632.716667	1196.837891	159.668961
12004.329255	2632.716667	1195.716797	24.302244
12004.329255	2632.716667	1194.594727	158.222519
12004.329255	2632.716667	1193.473633	114.376961
12004.329255	2632.716667	1192.351563	153.803207
12004.329255	2632.716667	1191.229492	32.588978
12004.329255	2632.716667	1190.106445	-15.438966
12004.329255	2632.716667	1188.984375	204.205719
12004.329255	2632.716667	1187.861328	-5.425756
12004.329255	2632.716667	1186.738281	145.689957
12004.329255	2632.716667	1185.614258	67.345398
12004.329255	2632.716667	1184.491211	141.073868
12004.329255	2632.716667	1183.367188	147.371841
12004.329255	2632.716667	1182.243164	85.121109
12004.329255	2632.716667	1181.119141	52.103642
12004.329255	2632.716667	1179.994141	20.529949
12004.329255	2632.716667	1178.869141	18.595306
12004.329255	2632.716667	1177.744141	-93.048164
12004.329255	2632.716667	1176.619141	5.940144
12004.329255	2632.716667	1175.493164	30.174011
12004.329255	2632.716667	1174.368164	111.178139
12004.329255	2632.716667	1173.242188	182.037735
12004.329255	2632.716667	1172.115234	177.317993
12004.329255	2632.716667	1170.989258	196.769287
12004.329255	2632.716667	1169.862305	127.082199
12004.329255	2632.716667	1168.735352	204.792984
12004.329255	2632.716667	1167.608398	129.529373
12004.329255	2632.716667	1166.481445	224.876114
12004.329255	2632.716667	1165.353516	144.360046
12004.329255	2632.716667	1164.225586	194.856277
12004.329255	2632.716667	1163.097656	196.914459
12004.329255	2632.716667	1161.968750	307.413879
12004.329255	2632.716667	1160.840820	268.621796
12004.329255	2632.716667	1159.711914	279.618195
12004.329255	2632.716667	1158.583008	-49.243088
12004.329255	2632.716667	1157.453125	130.823425
12004.329255	2632.716667	1156.324219	0.582115
12004.329255	2632.716667	1155.194336	2.487015
12004.329255	2632.716667	1154.064453	119.079422
12004.329255	2632.716667	1152.933594	53.679981
12004.329255	2632.716667	1151.803711	-16.699734
12004.329255	2632.716667	1150.672852	36.408844
12004.329255	2632.716667	1149.541992	-30.355253
12004.329255	2632.716667	1148.411133	65.922874
12004.329255	2632.716667	1147.279297	200.915359
12004.329255	2632.716667	1146.147461	-11.498461
12004.329255	2632.716667	1145.015625	21.319941
12004.329255	2632.716667	1143.883789	-96.039719
12004.329255	2632.716667	1142.750977	-27.419979
12004.329255	2632.716667	1141.619141	68.936134
12004.329255	2632.716667	1140.486328	101.693245
12004.329255	2632.716667	1139.352539	37.690067
12004.329255	2632.716667	1138.219727	59.531338
12004.329255	2632.716667	1137.085938	137.357178
12004.329255	2632.716667	1135.952148	11.928922
12004.329255	2632.716667	1134.818359	236.970078
12004.329255	2632.716667	1133.683594	128.768875
12004.329255	2632.716667	1132.549805	233.836456
12004.329255	2632.716667	1131.415039	144.449539
12004.329255	2632.716667	1130.279297	174.899979
12004.329255	2632.716667	1129.144531	294.463684
12004.329255	2632.716667	1128.008789	207.097946
12004.329255	2632.716667	1126.873047	163.168716
12004.329255	2632.716667	1125.737305	253.738419
12004.329255	2632.716667	1124.601563	256.418304
12004.329255	2632.716667	1123.464844	250.314819
12004.329255	2632.716667	1122.328125	275.044983
12004.329255	2632.716667	1121.191406	219.023788
12004.329255	2632.716667	1120.054688	195.623199
12004.329255	2632.716667	1118.916992	257.878357
12004.329255	2632.716667	1117.779297	181.549911
12004.329255	2632.716667	1116.641602	96.868240
12004.329255	2632.716667	1115.503906	263.466125
12004.329255	2632.716667	1114.365234	344.636444
12004.329255	2632.716667	1113.226563	338.144775
12004.329255	2632.716667	1112.087891	220.022354
12004.329255	2632.716667	1110.949219	291.572815
12004.329255	2632.716667	1109.809570	208.025543
12004.329255	2632.716667	1108.669922	223.231140
12004.329255	2632.716667	1107.530273	170.054810
12004.329255	2632.716667	1106.390625	80.264122
12004.329255	2632.716667	1105.250000	378.894989
12004.329255	2632.716667	1104.109375	150.396744
12004.329255	2632.716667	1102.968750	152.365082
12004.329255	2632.716667	1101.828125	300.804871
12004.329255	2632.716667	1100.686523	291.973663
12004.329255	2632.716667	1099.544922	299.344299
12004.329255	2632.716667	1098.403320	227.591583
12004.329255	2632.716667	1097.261719	326.979187
12004.329255	2632.716667	1096.120117	115.507095
12004.329255	2632.716667	1094.977539	171.533371
12004.329255	2632.716667	1093.834961	179.074936
12004.329255	2632.716667	1092.691406	270.960480
12004.329255	2632.716667	1091.548828	336.665375
12004.329255	2632.716667	1090.405273	166.523849
12004.329255	2632.716667	1089.261719	330.592865
12004.329255	2632.716667	1088.118164	10.993582
12004.329255	2632.716667	1086.973633	186.050720
12004.329255	2632.716667	1085.829102	21.816496
12004.329255	2632.716667	1084.684570	-24.614361
12004.329255	2632.716667	1083.540039	-106.068970
12004.329255	2632.716667	1082.395508	80.900925
12004.329255	2632.716667	1081.250000	229.608307
12004.329255	2632.716667	1080.104492	341.452118
12004.329255	2632.716667	1078.958984	57.916771
12004.329255	2632.716667	1077.812500	137.789810
12004.329255	2632.716667	1076.666016	68.264183
12004.329255	2632.716667	1075.519531	3.574316
12004.329255	2632.716667	1074.373047	76.060081
12004.329255	2632.716667	1073.226563	182.276215
12004.329255	2632.716667	1072.079102	185.379288
12004.329255	2632.716667	1070.931641	64.292870
12004.329255	2632.716667	1069.784180	67.194702
12004.329255	2632.716667	1068.635742	128.226715
12004.329255	2632.716667	1067.487305	266.446259
12004.329255	2632.716667	1066.338867	371.449127
12004.329255	2632.716667	1065.190430	320.080048
12004.329255	2632.716667	1064.041992	306.676025
12004.329255	2632.716667	1062.892578	256.478455
12004.329255	2632.716667	1061.743164	166.700134
12004.329255	2632.716667	1060.593750	244.954361
12004.329255	2632.716667	1059.443359	345.274536
12004.329255	2632.716667	1058.292969	56.667381
12004.329255	2632.716667	1057.142578	351.620300
12004.329255	2632.716667	1055.992188	46.228027
12004.329255	2632.716667	1054.841797	118.015083
12004.329255	2632.716667	1053.690430	214.620239
12004.329255	2632.716667	1052.539063	261.566925
12004.329255	2632.716667	1051.387695	307.410858
12004.329255	2632.716667	1050.235352	170.343521
12004.329255	2632.716667	1049.083984	243.376694
12004.329255	2632.716667	1047.931641	24.766289
12004.329255	2632.716667	1046.778320	81.095322
12004.329255	2632.716667	1045.625977	245.583694
12004.329255	2632.716667	1044.472656	73.066315
12004.329255	2632.716667	1043.319336	203.306015
12004.329255	2632.716667	1042.166016	210.598740
12004.329255	2632.716667	1041.012695	151.602814
12004.329255	2632.716667	1039.858398	166.986099
12004.329255	2632.716667	1038.704102	302.684357
12004.329255	2632.716667	1037.549805	210.141983
12004.329255	2632.716667	1036.394531	-30.079584
12004.329255	2632.716667	1035.239258	134.610703
12004.329255	2632.716667	1034.083984	231.384781
12004.329255	2632.716667	1032.928711	237.008392
12004.329255	2632.716667	1031.773438	282.706207
12004.329255	2632.716667	1030.617188	42.930168
12004.329255	2632.716667	1029.460938	108.922821
12004.329255	2632.716667	1028.304688	147.260406
12004.329255	2632.716667	1027.147461	252.320618
12004.329255	2632.716667	1025.991211	60.634418
12004.329255	2632.716667	1024.833984	-6.557518
12004.329255	2632.716667	1023.675781	323.577850
12004.329255	2632.716667	1022.518555	-29.052464
12004.329255	2632.716667	1021.360352	47.964981
12004.329255	2632.716667	1020.202148	4.927493
12004.329255	2632.716667	1019.043945	132.503128
12004.329255	2632.716667	1017.884766	-105.220581
12004.329255	2632.716667	1016.726563	39.985821
12004.329255	2632.716667	1015.567383	-95.448769
12004.329255	2632.716667	1014.407227	-102.524307
12004.329255	2632.716667	1013.248047	-103.416550
12004.329255	2632.716667	1012.087891	-173.374405
12004.329255	2632.716667	1010.927734	186.108536
12004.329255	2632.716667	1009.767578	80.966927
12004.329255	2632.716667	1008.606445	-9.459842
12004.329255	2632.716667	1007.446289	-60.953842
12004.329255	2632.716667	1006.285156	-25.876423
12004.329255	2632.716667	1005.123047	55.756832
12004.329255	2632.716667	1003.961914	79.251823
12004.329255	2632.716667	1002.799805	89.870171
12004.329255	2632.716667	1001.637695	43.806858
12004.329255	2632.716667	1000.475586	-83.953667
12004.329255	2632.716667	999.312500	199.964996
12004.329255	2632.716667	998.149414	-43.231388
12004.329255	2632.716667	996.986328	-19.179462
12004.329255	2632.716667	995.823242	-15.075443
12004.329255	2632.716667	994.659180	-115.039085
12004.329255	2632.716667	993.496094	-193.371674
12004.329255	2632.716667	992.332031	32.573883
12004.329255	2632.716667	991.166992	22.590612
12004.329255	2632.716667	990.002930	58.443691
12004.329255	2632.716667	988.837891	-197.925903
12004.329255	2632.716667	987.672852	-89.189232
12004.329255	2632.716667	986.506836	-202.645859
12004.329255	2632.716667	985.341797	-11.175993
12004.329255	2632.716667	984.175781	-102.297745
12004.329255	2632.716667	983.009766	38.625465
12004.329255	2632.716667	981.843750	183.492142
12004.329255	2632.716667	980.676758	-62.405533
12004.329255	2632.716667	979.509766	-53.555935
12004.329255	2632.716667	978.342773	-59.054714
12004.329255	2632.716667	977.175781	-142.839310
12004.329255	2632.716667	976.007813	45.093338
12004.329255	2632.716667	974.839844	-44.707008
12004.329255	2632.716667	973.671875	17.187424
12004.329255	2632.716667	972.503906	101.071609
12004.329255	2632.716667	971.334961	41.613613
12004.329255	2632.716667	970.166016	2.337820
12004.329255	2632.716667	968.997070	-32.034042
12004.329255	2632.716667	967.828125	114.198265
12004.329255	2632.716667	966.658203	-61.381233
12004.329255	2632.716667	965.488281	143.205994
12004.329255	2632.716667	964.318359	196.727554
12004.329255	2632.716667	963.148438	61.362209
12004.329255	2632.716667	961.977539	-50.741631
12004.329255	2632.716667	960.806641	-102.822182
12004.329255	2632.716667	959.635742	122.969208
12004.329255	2632.716667	958.463867	0.389325
12004.329255	2632.716667	957.292969	24.128780
12004.329255	2632.716667	956.121094	-79.390709
12004.329255	2632.716667	954.948242	53.514435
12004.329255	2632.716667	953.776367	79.555397
12004.329255	2632.716667	952.603516	-17.730942
12004.329255	2632.716667	951.430664	169.035431
12004.329255	2632.716667	950.257813	120.362335
12004.329255	2632.716667	949.084961	172.061310
12004.329255	2632.716667	947.911133	136.764984
12004.329255	2632.716667	946.737305	24.638569
12004.329255	2632.716667	945.563477	-128.977112
12004.329255	2632.716667	944.388672	124.715569
12004.329255	2632.716667	943.213867	217.756851
12004.329255	2632.716667	942.039063	114.158447
12004.329255	2632.716667	940.864258	-1.895079
12004.329255	2632.716667	939.688477	235.433884
12004.329255	2632.716667	938.513672	41.991558
12004.329255	2632.716667	937.337891	308.643585
12004.329255	2632.716667	936.161133	144.196564
12004.329255	2632.716667	934.985352	-34.732738
12004.329255	2632.716667	933.808594	-2.454511
12004.329255	2632.716667	932.631836	-124.776100
12004.329255	2632.716667	931.454102	143.721054
12004.329255	2632.716667	930.277344	33.878448
12004.329255	2632.716667	929.099609	101.635757
12004.329255	2632.716667	927.921875	77.437630
12004.329255	2632.716667	926.743164	329.019958
12004.329255	2632.716667	925.565430	127.234085
12004.329255	2632.716667	924.386719	272.202209
12004.329255	2632.716667	923.208008	1.598474
12004.329255	2632.716667	922.028320	188.285706
12004.329255	2632.716667	920.849609	-84.316338
12004.329255	2632.716667	919.669922	-78.978142
12004.329255	2632.716667	919.474609	17.628712
12004.329255	2632.716667	918.309570	58.064674
12004.329255	2632.716667	917.143555	83.872704
12004.329255	2632.716667	915.977539	195.168442
12004.329255	2632.716667	914.810547	-73.100449
12004.329255	2632.716667	913.644531	-24.388094
12004.329255	2632.716667	912.477539	161.864944
12004.329255	2632.716667	911.310547	256.333923
12004.329255	2632.716667	910.143555	173.651550
12004.329255	2632.716667	908.975586	-44.408371
12004.329255	2632.716667	907.807617	139.564774
12004.329255	2632.716667	906.639648	-149.224030
12004.329255	2632.716667	905.471680	153.332550
12004.329255	2632.716667	904.303711	137.295990
12004.329255	2632.716667	903.134766	-124.300301
12004.329255	2632.716667	901.965820	-59.154999
12004.329255	2632.716667	900.796875	-50.215469
12004.329255	2632.716667	899.626953	-105.759827
12004.329255	2632.716667	898.457031	106.933182
12004.329255	2632.716667	897.287109	144.898621
12004.329255	2632.716667	896.117188	91.383430
12004.329255	2632.716667	894.947266	6.703928
12004.329255	2632.716667	893.776367	-90.416130
12004.329255	2632.716667	892.605469	-73.268135
12004.329255	2632.716667	891.434570	-176.593414
12004.329255	2632.716667	890.262695	64.782921
12004.329255	2632.716667	889.091797	17.491198
12004.329255	2632.716667	887.919922	240.018982
12004.329255	2632.716667	886.748047	190.607147
12004.329255	2632.716667	885.575195	-8.169068
12004.329255	2632.716667	884.403320	91.802200
12004.329255	2632.716667	883.230469	-111.052162
12004.329255	2632.716667	882.057617	127.786133
12004.329255	2632.716667	880.883789	159.220352
12004.329255	2632.716667	879.710938	22.748222
12004.329255	2632.716667	878.537109	12.715452
12004.329255	2632.716667	877.362305	131.117950
12004.329255	2632.716667	876.188477	-129.586517
12004.329255	2632.716667	875.013672	-17.449778
12004.329255	2632.716667	873.839844	-2.688823
12004.329255	2632.716667	872.664063	-93.512817
12004.329255	2632.716667	871.489258	12.286124
12004.329255	2632.716667	870.313477	-30.948471
12004.329255	2632.716667	869.138672	6.491346
12004.329255	2632.716667	867.962891	-38.829288
12004.329255	2632.716667	866.786133	-36.585388
12004.329255	2632.716667	865.610352	108.287529
12004.329255	2632.716667	864.433594	116.664070
12004.329255	2632.716667	863.256836	-143.637466
12004.329255	2632.716667	862.079102	63.104256
12004.329255	2632.716667	860.902344	48.704819
12004.329255	2632.716667	859.724609	90.058228
12004.329255	2632.716667	858.546875	85.947670
12004.329255	2632.716667	857.368164	139.628601
12004.329255	2632.716667	856.190430	-120.471954
12004.329255	2632.716667	855.011719	-44.111492
12004.329255	2632.716667	853.833008	34.259846
12004.329255	2632.716667	852.654297	106.389915
12004.329255	2632.716667	851.474609	112.477432
12004.329255	2632.716667	850.294922	-77.340782
12004.329255	2632.716667	849.115234	23.569855
12004.329255	2632.716667	847.935547	4.874187
12004.329255	2632.716667	846.754883	128.353851
12004.329255	2632.716667	845.575195	-11.952468
12004.329255	2632.716667	844.393555	-43.046230
12004.329255	2632.716667	843.212891	-35.024994
12004.329255	2632.716667	842.032227	51.211212
12004.329255	2632.716667	840.850586	188.855057
12004.329255	2632.716667	839.668945	-68.736755
12004.329255	2632.716667	838.486328	-147.225113
12004.329255	2632.716667	837.304688	80.826393
12004.329255	2632.716667	836.122070	158.613724
12004.329255	2632.716667	834.939453	230.175323
12004.329255	2632.716667	833.756836	96.084229
12004.329255	2632.716667	832.573242	-95.528564
12004.329255	2632.716667	831.389648	197.928162
12004.329255	2632.716667	830.206055	143.991318
12004.329255	2632.716667	829.022461	172.223221
12004.329255	2632.716667	827.838867	114.155869
12004.329255	2632.716667	826.654297	68.410400
12004.329255	2632.716667	825.469727	131.469757
12004.329255	2632.716667	824.284180	91.849525
12004.329255	2632.716667	823.099609	-23.714550
12004.329255	2632.716667	821.914063	117.216164
12004.329255	2632.716667	820.728516	-47.587234
12004.329255	2632.716667	819.542969	97.339897
12004.329255	2632.716667	818.356445	145.808960
12004.329255	2632.716667	817.169922	-62.027039
12004.329255	2632.716667	815.983398	92.983070
12004.329255	2632.716667	814.796875	-14.399195
12004.329255	2632.716667	813.609375	5.263462
12004.329255	2632.716667	812.422852	71.999176
12004.329255	2632.716667	811.235352	153.018646
12004.329255	2632.716667	810.046875	139.793259
12004.329255	2632.716667	808.859375	15.996840
12004.329255	2632.716667	807.670898	88.708084
12004.329255	2632.716667	806.482422	134.757950
12004.329255	2632.716667	805.293945	172.576920
12004.329255	2632.716667	804.104492	110.128471
12004.329255	2632.716667	802.915039	143.790497
12004.329255	2632.716667	801.725586	69.046234
12004.329255	2632.716667	800.536133	178.276352
12004.329255	2632.716667	799.345703	-60.000099
12004.329255	2632.716667	798.155273	233.050949
12004.329255	2632.716667	796.964844	-86.914421
12004.329255	2632.716667	795.774414	18.053812
12004.329255	2632.716667	794.583008	73.940422
12004.329255	2632.716667	793.392578	135.894485
12004.329255	2632.716667	792.200195	175.344208
12004.329255	2632.716667	791.008789	129.030991
12004.329255	2632.716667	789.816406	121.475189
12004.329255	2632.716667	788.625000	60.848572
12004.329255	2632.716667	787.432617	-91.559059
12004.329255	2632.716667	786.239258	72.123169
12004.329255	2632.716667	785.046875	80.764435
12004.329255	2632.716667	783.853516	83.257919
12004.329255	2632.716667	782.660156	59.226151
12004.329255	2632.716667	781.465820	281.696594
12004.329255	2632.716667	780.272461	110.905907
12004.329255	2632.716667	779.078125	-6.894593
12004.329255	2632.716667	777.883789	-157.258011
12004.329255	2632.716667	776.688477	20.156511
12004.329255	2632.716667	775.494141	166.932510
12004.329255	2632.716667	774.298828	63.328945
12004.329255	2632.716667	773.103516	165.211777
12004.329255	2632.716667	771.907227	230.408096
12004.329255	2632.716667	770.711914	-7.461208
12004.329255	2632.716667	769.515625	143.067703
12004.329255	2632.716667	768.318359	37.377468
12004.329255	2632.716667	767.122070	96.311813
12004.329255	2632.716667	765.924805	33.275841
12004.329255	2632.716667	764.727539	23.048811
12004.329255	2632.716667	763.530273	-35.953323
12004.329255	2632.716667	762.333008	-42.169086
12004.329255	2632.716667	761.134766	-44.355579
12004.329255	2632.716667	759.936523	144.221680
12004.329255	2632.716667	758.738281	97.281410
12004.329255	2632.716667	757.540039	-12.570963
12004.329255	2632.716667	756.340820	47.982582
12004.329255	2632.716667	755.141602	7.072172
12004.329255	2632.716667	753.942383	-33.856895
12004.329255	2632.716667	752.742188	101.567039
12004.329255	2632.716667	751.541992	-111.713295
12004.329255	2632.716667	750.341797	-160.802383
12004.329255	2632.716667	749.141602	73.729485
12004.329255	2632.716667	747.941406	164.314941
12004.329255	2632.716667	746.740234	258.878265
12004.329255	2632.716667	745.539063	148.872162
12004.329255	2632.716667	744.337891	-3.634014
12004.329255	2632.716667	743.135742	226.399200
12004.329255	2632.716667	741.933594	164.925552
12004.329255	2632.716667	740.731445	160.086731
12004.329255	2632.716667	739.529297	337.248047
12004.329255	2632.716667	738.326172	221.087540
12004.329255	2632.716667	737.124023	24.068695
12004.329255	2632.716667	735.919922	304.131653
12004.329255	2632.716667	734.716797	491.080597
12004.329255	2632.716667	733.513672	562.748901
12004.329255	2632.716667	732.309570	636.374023
12004.329255	2632.716667	731.105469	423.144501
12004.329255	2632.716667	729.900391	387.661987
12004.329255	2632.716667	728.696289	578.262573
12004.329255	2632.716667	727.491211	393.334106
12004.329255	2632.716667	726.286133	246.789795
12004.329255	2632.716667	725.080078	330.271393
12004.329255	2632.716667	723.874023	183.734146
12004.329255	2632.716667	722.668945	140.074921
12004.329255	2632.716667	721.461914	152.856964
12004.329255	2632.716667	720.255859	48.681515
12004.329255	2632.716667	719.048828	67.456650
12004.329255	2632.716667	717.841797	110.372215
12004.329255	2632.716667	716.634766	-70.381088
12004.329255	2632.716667	715.427734	-21.477823
12004.329255	2632.716667	714.219727	33.414013
12004.329255	2632.716667	713.011719	64.091835
12004.329255	2632.716667	711.803711	-42.150108
12004.329255	2632.716667	710.594727	-202.716202
12004.329255	2632.716667	709.385742	-23.210287
12004.329255	2632.716667	708.176758	121.991020
12004.329255	2632.716667	706.967773	-96.924454
12004.329255	2632.716667	705.758789	34.096390
12004.329255	2632.716667	704.548828	-48.064777
12004.329255	2632.716667	703.338867	-3.595584
12004.329255	2632.716667	702.127930	-224.428833
12004.329255	2632.716667	700.917969	-93.607941
12004.329255	2632.716667	699.707031	-169.762558
12004.329255	2632.716667	698.496094	-187.673935
12004.329255	2632.716667	697.285156	-40.963699
12004.329255	2632.716667	696.073242	-173.370361
12004.329255	2632.716667	694.861328	-265.608673
12004.329255	2632.716667	693.649414	-111.028748
12004.329255	2632.716667	692.436523	-131.072235
12004.329255	2632.716667	691.224609	99.581146
12004.329255	2632.716667	690.011719	71.430420
12004.329255	2632.716667	688.798828	85.369423
12004.329255	2632.716667	687.584961	-73.104088
12004.329255	2632.716667	686.372070	91.114555
12004.329255	2632.716667	685.158203	-93.385864
12004.329255	2632.716667	683.943359	172.885391
12004.329255	2632.716667	682.729492	74.520439
12004.329255	2632.716667	681.514648	4.207597
12004.329255	2632.716667	680.299805	-2.034100
12004.329255	2632.716667	679.084961	11.722724
12004.329255	2632.716667	677.869141	143.516830
12004.329255	2632.716667	676.653320	115.184708
12004.329255	2632.716667	675.437500	166.855927
12004.329255	2632.716667	674.221680	262.484283
12004.329255	2632.716667	673.004883	26.156395
12004.329255	2632.716667	671.789063	55.775280
12004.329255	2632.716667	670.571289	-58.529503
12004.329255	2632.716667	669.354492	182.865875
12004.329255	2632.716667	668.136719	132.480606
12004.329255	2632.716667	666.919922	70.120247
12004.329255	2632.716667	665.701172	103.622253
12004.329255	2632.716667	664.483398	-114.452835
12004.329255	2632.716667	663.264648	20.848728
12004.329255	2632.716667	662.045898	-153.234879
12004.329255	2632.716667	660.827148	45.844021
12004.329255	2632.716667	659.608398	23.412418
12004.329255	2632.716667	658.388672	114.659508
12004.329255	2632.716667	657.168945	128.098923
12004.329255	2632.716667	655.949219	291.038177
12004.329255	2632.716667	654.728516	73.227020
12004.329255	2632.716667	653.507813	102.592239
12004.329255	2632.716667	652.287109	10.415000
12004.329255	2632.716667	651.066406	-27.946373
12004.329255	2632.716667	649.844727	-50.362186
12004.329255	2632.716667	648.623047	74.563148
12004.329255	2632.716667	647.401367	68.059082
12004.329255	2632.716667	646.179688	246.641220
12004.329255	2632.716667	644.957031	-62.328262
12004.329255	2632.716667	643.734375	18.735704
12004.329255	2632.716667	642.511719	-75.249870
12004.329255	2632.716667	641.289063	53.514839
12004.329255	2632.716667	640.065430	124.579559
12004.329255	2632.716667	638.841797	92.264763
12004.329255	2632.716667	637.618164	73.883003
12004.329255	2632.716667	636.393555	-57.727848
12004.329255	2632.716667	635.168945	-18.446531
12004.329255	2632.716667	633.944336	165.801254
12004.329255	2632.716667	632.719727	103.782211
12004.329255	2632.716667	631.494141	43.787415
12004.329255	2632.716667	630.269531	41.388344
12004.329255	2632.716667	629.042969	231.476654
12004.329255	2632.716667	627.817383	119.961731
12004.329255	2632.716667	626.590820	54.129833
12004.329255	2632.716667	625.365234	61.715458
12004.329255	2632.716667	624.137695	87.161255
12004.329255	2632.716667	622.911133	-51.898945
12004.329255	2632.716667	621.683594	44.945324
12004.329255	2632.716667	620.456055	129.885590
12004.329255	2632.716667	619.228516	131.618317
12004.329255	2632.716667	618.000977	-48.826038
12004.329255	2632.716667	616.772461	-1.461734
12004.329255	2632.716667	615.543945	-15.456676
12004.329255	2632.716667	614.314453	121.002068
12004.329255	2632.716667	613.085938	39.769753
12004.329255	2632.716667	611.856445	73.348045
12004.329255	2632.716667	610.626953	63.432266
12004.329255	2632.716667	609.397461	-39.388504
12004.329255	2632.716667	608.166992	77.327744
12004.329255	2632.716667	606.936523	20.084829
12004.329255	2632.716667	605.706055	-48.952938
12004.329255	2632.716667	604.474609	-48.766312
12004.329255	2632.716667	603.244141	30.476089
12004.329255	2632.716667	602.012695	167.003006
12004.329255	2632.716667	600.780273	-28.212582
12004.329255	2632.716667	599.548828	3.726933
12004.329255	2632.716667	598.316406	-17.592093
12004.329255	2632.716667	597.083984	24.291931
12004.329255	2632.716667	595.851563	-8.764310
12004.329255	2632.716667	594.618164	-231.112366
12004.329255	2632.716667	593.384766	-125.953850
12004.329255	2632.716667	592.151367	-105.568810
12004.329255	2632.716667	590.917969	70.586929
12004.329255	2632.716667	589.683594	-80.427864
12004.329255	2632.716667	588.449219	16.944778
12004.329255	2632.716667	587.214844	-301.327148
12004.329255	2632.716667	585.979492	-123.081284
12004.329255	2632.716667	584.745117	13.794789
12004.329255	2632.716667	583.509766	-22.569630
12004.329255	2632.716667	582.273438	-113.967178
12004.329255	2632.716667	581.038086	50.556965
12004.329255	2632.716667	579.801758	-176.441818
12004.329255	2632.716667	578.565430	62.903557
12004.329255	2632.716667	577.329102	150.786606
12004.329255	2632.716667	576.091797	134.494064
12004.329255	2632.716667	574.854492	-88.126686
12004.329255	2632.716667	573.617188	58.901028
12004.329255	2632.716667	572.378906	-75.045113
12004.329255	2632.716667	571.141602	138.854019
12004.329255	2632.716667	569.903320	-38.114037
12004.329255	2632.716667	568.664063	52.126137
12004.329255	2632.716667	567.425781	99.211601
12004.329255	2632.716667	566.186523	1.105991
12004.329255	2632.716667	564.947266	181.782074
12004.329255	2632.716667	563.708008	-39.747498
12004.329255	2632.716667	562.467773	-13.943582
12004.329255	2632.716667	561.227539	96.259109
12004.329255	2632.716667	559.987305	-36.633686
12004.329255	2632.716667	558.747070	75.651314
12004.329255	2632.716667	557.505859	56.662205
12004.329255	2632.716667	556.264648	47.561565
12004.329255	2632.716667	555.023438	24.837442
12004.329255	2632.716667	553.781250	51.176716
12004.329255	2632.716667	552.539063	195.083466
12004.329255	2632.716667	551.296875	247.000717
12004.329255	2632.716667	550.054688	208.943726
12004.329255	2632.716667	548.811523	186.650284
12004.329255	2632.716667	547.569336	219.235382
12004.329255	2632.716667	546.325195	171.701477
12004.329255	2632.716667	545.082031	267.041199
12004.329255	2632.716667	543.837891	110.202446
12004.329255	2632.716667	542.593750	57.129826
12004.329255	2632.716667	541.349609	309.064880
12004.329255	2632.716667	540.105469	246.385788
12004.329255	2632.716667	538.860352	359.653839
12004.329255	2632.716667	537.615234	8.107125
12004.329255	2632.716667	536.369141	320.748352
12004.329255	2632.716667	535.124023	295.589111
12004.329255	2632.716667	533.877930	471.585815
12004.329255	2632.716667	532.631836	228.023895
12004.329255	2632.716667	531.384766	134.898346
12004.329255	2632.716667	530.138672	168.695511
12004.329255	2632.716667	528.891602	421.003021
12004.329255	2632.716667	527.643555	314.528809
12004.329255	2632.716667	526.396484	194.542755
12004.329255	2632.716667	525.148438	423.575134
12004.329255	2632.716667	523.900391	313.548157
12004.329255	2632.716667	522.652344	306.910461
12004.329255	2632.716667	521.403320	325.692169
12004.329255	2632.716667	520.154297	249.136398
12004.329255	2632.716667	518.905273	433.589020
12004.329255	2632.716667	517.656250	407.829407
12004.329255	2632.716667	516.406250	415.255859
12004.329255	2632.716667	515.156250	372.178223
12004.329255	2632.716667	513.906250	568.469421
12004.329255	2632.716667	512.655273	474.986572
12004.329255	2632.716667	511.404297	492.458069
12004.329255	2632.716667	510.153320	498.340485
12004.329255	2632.716667	508.902344	471.259308
12004.329255	2632.716667	507.650391	461.761993
12004.329255	2632.716667	506.398438	520.341919
12004.329255	2632.716667	505.146484	503.221802
12004.329255	2632.716667	503.893555	429.872925
12004.329255	2632.716667	502.641602	548.827576
12004.329255	2632.716667	501.388672	712.451782
12004.329255	2632.716667	500.134766	487.948486
12004.329255	2632.716667	498.881836	711.794739
12004.329255	2632.716667	497.627930	598.085999
12004.329255	2632.716667	496.374023	796.728210
12004.329255	2632.716667	495.119141	768.488037
12004.329255	2632.716667	493.865234	625.934387
12004.329255	2632.716667	492.610352	617.230896
12004.329255	2632.716667	491.355469	974.810242
12004.329255	2632.716667	490.099609	718.161194
12004.329255	2632.716667	488.843750	659.226929
12004.329255	2632.716667	487.587891	898.573242
12004.329255	2632.716667	486.332031	1010.072388
12004.329255	2632.716667	485.075195	918.319275
12004.329255	2632.716667	483.818359	892.429993
12004.329255	2632.716667	482.561523	959.445374
12004.329255	2632.716667	481.304688	1109.630737
12004.329255	2632.716667	480.046875	876.844788
12004.329255	2632.716667	478.789063	1046.347778
12004.329255	2632.716667	477.531250	1028.269409
12004.329255	2632.716667	476.272461	1114.571899
12004.329255	2632.716667	475.013672	843.356201
12004.329255	2632.716667	473.754883	1118.971680
12004.329255	2632.716667	472.496094	1236.070923
12004.329255	2632.716667	471.236328	1044.136475
12004.329255	2632.716667	469.976563	1027.944824
12004.329255	2632.716667	468.716797	1123.679321
12004.329255	2632.716667	467.456055	1294.601074
12004.329255	2632.716667	466.196289	1314.904907
12004.329255	2632.716667	464.935547	1458.607422
12004.329255	2632.716667	463.673828	1237.696655
12004.329255	2632.716667	462.413086	1581.751709
12004.329255	2632.716667	461.151367	1597.877319
12004.329255	2632.716667	459.889648	1305.546387
12004.329255	2632.716667	458.626953	1321.557373
12004.329255	2632.716667	457.364258	1416.449341
12004.329255	2632.716667	456.101563	1536.231567
12004.329255	2632.716667	454.838867	1351.596924
12004.329255	2632.716667	453.575195	1517.313965
12004.329255	2632.716667	452.312500	1473.016724
12004.329255	2632.716667	451.047852	1478.639648
12004.329255	2632.716667	449.784180	1574.530396
12004.329255	2632.716667	448.519531	1495.177734
12004.329255	2632.716667	447.254883	1523.383423
12004.329255	2632.716667	445.990234	1609.076416
12004.329255	2632.716667	444.725586	1556.131836
12004.329255	2632.716667	443.459961	1647.151123
12004.329255	2632.716667	442.194336	1536.159668
12004.329255	2632.716667	440.927734	1423.070557
12004.329255	2632.716667	439.662109	1711.202393
12004.329255	2632.716667	438.395508	1720.527710
12004.329255	2632.716667	437.127930	1668.151367
12004.329255	2632.716667	435.861328	1772.908081
12004.329255	2632.716667	434.593750	1773.705444
12004.329255	2632.716667	433.326172	1910.415771
12004.329255	2632.716667	432.058594	1937.413696
12004.329255	2632.716667	430.790039	1929.547485
12004.329255	2632.716667	429.521484	1894.494629
12004.329255	2632.716667	428.252930	1999.027344
12004.329255	2632.716667	426.984375	1901.903687
12004.329255	2632.716667	425.714844	1913.645142
12004.329255	2632.716667	424.445313	2128.029297
12004.329255	2632.716667	423.174805	1893.726074
12004.329255	2632.716667	421.905273	1980.769531
12004.329255	2632.716667	420.634766	1969.677246
12004.329255	2632.716667	419.364258	1900.689331
12004.329255	2632.716667	418.092773	1894.379272
12004.329255	2632.716667	416.822266	1912.427490
12004.329255	2632.716667	415.550781	2023.652710
12004.329255	2632.716667	414.278320	1985.108521
12004.329255	2632.716667	413.006836	1953.654419
12004.329255	2632.716667	411.734375	2036.303467
12004.329255	2632.716667	410.461914	1858.389160
12004.329255	2632.716667	409.188477	1849.958252
12004.329255	2632.716667	407.916016	2016.617188
12004.329255	2632.716667	406.642578	1918.955200
12004.329255	2632.716667	405.368164	2065.028320
12004.329255	2632.716667	404.094727	1969.776611
12004.329255	2632.716667	402.820313	1841.357056
12004.329255	2632.716667	401.545898	2070.952881
12004.329255	2632.716667	400.270508	1742.564209
12004.329255	2632.716667	398.996094	1772.080078
12004.329255	2632.716667	397.720703	1978.062744
12004.329255	2632.716667	396.444336	1866.575562
12004.329255	2632.716667	395.168945	2080.182861
12004.329255	2632.716667	393.892578	2130.761230
12004.329255	2632.716667	392.616211	1982.197876
12004.329255	2632.716667	391.339844	2103.194580
12004.329255	2632.716667	390.062500	1977.421387
12004.329255	2632.716667	388.785156	1962.983276
12004.329255	2632.716667	387.507813	1924.618652
12004.329255	2632.716667	386.229492	1917.488770
12004.329255	2632.716667	384.951172	1827.387085
12004.329255	2632.716667	383.672852	1720.919067
12004.329255	2632.716667	382.394531	1908.084351
12004.329255	2632.716667	381.115234	1856.198120
12004.329255	2632.716667	379.835938	1668.062378
12004.329255	2632.716667	378.556641	1678.260498
12004.329255	2632.716667	377.277344	1746.003174
12004.329255	2632.716667	375.997070	1660.301147
12004.329255	2632.716667	374.716797	1620.685791
12004.329255	2632.716667	373.435547	1577.685669
12004.329255	2632.716667	372.155273	1713.589600
12004.329255	2632.716667	370.874023	1620.060303
12004.329255	2632.716667	369.591797	1479.394287
12004.329255	2632.716667	368.310547	1515.540527
12004.329255	2632.716667	367.028320	1438.033203
12004.329255	2632.716667	365.746094	1677.464233
12004.329255	2632.716667	364.463867	1619.215332
12004.329255	2632.716667	363.180664	1365.771484
12004.329255	2632.716667	361.897461	1447.951294
12004.329255	2632.716667	360.614258	1577.456665
12004.329255	2632.716667	359.330078	1411.255615
12004.329255	2632.716667	358.045898	1457.156860
12004.329255	2632.716667	356.761719	1387.360352
12004.329255	2632.716667	355.477539	1266.264771
12004.329255	2632.716667	354.192383	1093.802856
12004.329255	2632.716667	352.907227	1046.003540
12004.329255	2632.716667	351.622070	1291.124756
12004.329255	2632.716667	350.336914	1338.983398
12004.329255	2632.716667	349.050781	1195.270996
12004.329255	2632.716667	347.764648	1177.768555
12004.329255	2632.716667	346.477539	1049.975342
12004.329255	2632.716667	345.191406	1053.942261
12004.329255	2632.716667	343.904297	1011.783203
12004.329255	2632.716667	342.616211	961.244202
12004.329255	2632.716667	341.329102	951.506897
12004.329255	2632.716667	340.041016	648.109375
12004.329255	2632.716667	338.752930	808.314148
12004.329255	2632.716667	337.463867	793.690796
12004.329255	2632.716667	336.175781	645.950867
12004.329255	2632.716667	334.886719	798.907959
12004.329255	2632.716667	333.596680	501.544800
12004.329255	2632.716667	332.307617	631.181824
12004.329255	2632.716667	331.017578	648.060547
12004.329255	2632.716667	329.727539	525.871765
12004.329255	2632.716667	328.436523	601.896545
12004.329255	2632.716667	327.146484	391.859131
12004.329255	2632.716667	325.855469	298.828461
12004.329255	2632.716667	324.563477	365.961426
12004.329255	2632.716667	323.272461	357.891876
12004.329255	2632.716667	321.980469	69.189201
12004.329255	2632.716667	320.688477	286.807587
12004.329255	2632.716667	319.395508	112.616859
12004.329255	2632.716667	318.103516	43.687431
12004.329255	2632.716667	316.810547	-80.238655
12004.329255	2632.716667	315.516602	47.307289
12004.329255	2632.716667	314.223633	-122.689590
12004.329255	2632.716667	312.929688	39.341316
12004.329255	2632.716667	311.635742	-0.514417
12004.329255	2632.716667	310.340820	144.705688
12004.329255	2632.716667	309.045898	-77.363350
12004.329255	2632.716667	307.750977	-101.275612
12004.329255	2632.716667	306.456055	48.333313
12004.329255	2632.716667	305.160156	-240.881577
12004.329255	2632.716667	303.865234	48.807407
12004.329255	2632.716667	302.568359	-40.512901
12004.329255	2632.716667	301.272461	-106.777733
12004.329255	2632.716667	299.975586	93.411842
12004.329255	2632.716667	298.678711	259.893951
