#X		#Y		#Wave		#Intensity
11709.988298	1452.191667	1999.980469	1.982806
11709.988298	1452.191667	1999.016602	-39.671989
11709.988298	1452.191667	1998.052734	33.896969
11709.988298	1452.191667	1997.087891	84.990120
11709.988298	1452.191667	1996.123047	-49.905365
11709.988298	1452.191667	1995.158203	119.806511
11709.988298	1452.191667	1994.193359	-82.193367
11709.988298	1452.191667	1993.228516	-26.716406
11709.988298	1452.191667	1992.262695	-18.426617
11709.988298	1452.191667	1991.297852	163.009857
11709.988298	1452.191667	1990.332031	-98.749023
11709.988298	1452.191667	1989.366211	-93.286896
11709.988298	1452.191667	1988.399414	40.708996
11709.988298	1452.191667	1987.433594	-70.336487
11709.988298	1452.191667	1986.466797	-23.168936
11709.988298	1452.191667	1985.500977	16.459564
11709.988298	1452.191667	1984.534180	85.640259
11709.988298	1452.191667	1983.567383	-20.791771
11709.988298	1452.191667	1982.599609	43.238884
11709.988298	1452.191667	1981.632813	-68.270805
11709.988298	1452.191667	1980.665039	62.265968
11709.988298	1452.191667	1979.697266	71.647293
11709.988298	1452.191667	1978.729492	-12.893842
11709.988298	1452.191667	1977.761719	28.434555
11709.988298	1452.191667	1976.792969	116.573715
11709.988298	1452.191667	1975.825195	66.397224
11709.988298	1452.191667	1974.856445	82.794228
11709.988298	1452.191667	1973.887695	-24.237818
11709.988298	1452.191667	1972.918945	14.237308
11709.988298	1452.191667	1971.949219	198.142136
11709.988298	1452.191667	1970.980469	7.126024
11709.988298	1452.191667	1970.010742	146.471237
11709.988298	1452.191667	1969.041016	103.312447
11709.988298	1452.191667	1968.071289	106.940117
11709.988298	1452.191667	1967.101563	16.887285
11709.988298	1452.191667	1966.130859	160.847321
11709.988298	1452.191667	1965.161133	-22.869942
11709.988298	1452.191667	1964.190430	-58.811321
11709.988298	1452.191667	1963.219727	-28.305016
11709.988298	1452.191667	1962.249023	36.612431
11709.988298	1452.191667	1961.277344	64.549934
11709.988298	1452.191667	1960.306641	57.991318
11709.988298	1452.191667	1959.334961	78.463341
11709.988298	1452.191667	1958.363281	-56.071716
11709.988298	1452.191667	1957.391602	30.752192
11709.988298	1452.191667	1956.419922	171.610626
11709.988298	1452.191667	1955.447266	110.798569
11709.988298	1452.191667	1954.474609	108.974037
11709.988298	1452.191667	1953.501953	148.903778
11709.988298	1452.191667	1952.529297	68.400856
11709.988298	1452.191667	1951.556641	86.170418
11709.988298	1452.191667	1950.583984	79.352112
11709.988298	1452.191667	1949.610352	-69.911331
11709.988298	1452.191667	1948.636719	-86.554787
11709.988298	1452.191667	1947.663086	174.181396
11709.988298	1452.191667	1946.689453	206.555344
11709.988298	1452.191667	1945.715820	111.304184
11709.988298	1452.191667	1944.741211	16.075741
11709.988298	1452.191667	1943.767578	-52.144203
11709.988298	1452.191667	1942.792969	58.681881
11709.988298	1452.191667	1941.818359	-247.385452
11709.988298	1452.191667	1940.842773	57.092945
11709.988298	1452.191667	1939.868164	23.199472
11709.988298	1452.191667	1938.892578	128.999756
11709.988298	1452.191667	1937.916992	11.788132
11709.988298	1452.191667	1936.941406	85.697365
11709.988298	1452.191667	1935.965820	78.749832
11709.988298	1452.191667	1934.990234	62.007931
11709.988298	1452.191667	1934.013672	-11.042096
11709.988298	1452.191667	1933.037109	57.914932
11709.988298	1452.191667	1932.060547	19.158104
11709.988298	1452.191667	1931.083984	24.464024
11709.988298	1452.191667	1930.107422	-139.042084
11709.988298	1452.191667	1929.129883	47.306049
11709.988298	1452.191667	1928.153320	20.818968
11709.988298	1452.191667	1927.175781	-88.791115
11709.988298	1452.191667	1926.198242	63.230198
11709.988298	1452.191667	1925.219727	56.321568
11709.988298	1452.191667	1924.242188	22.540426
11709.988298	1452.191667	1923.263672	-47.873238
11709.988298	1452.191667	1922.285156	-84.052849
11709.988298	1452.191667	1921.306641	114.262772
11709.988298	1452.191667	1920.328125	144.015457
11709.988298	1452.191667	1919.349609	-14.233362
11709.988298	1452.191667	1918.370117	110.749268
11709.988298	1452.191667	1917.391602	128.308090
11709.988298	1452.191667	1916.412109	45.821693
11709.988298	1452.191667	1915.431641	-100.057732
11709.988298	1452.191667	1914.452148	88.305931
11709.988298	1452.191667	1913.472656	-3.852992
11709.988298	1452.191667	1912.492188	145.428360
11709.988298	1452.191667	1911.511719	36.248108
11709.988298	1452.191667	1910.531250	129.426285
11709.988298	1452.191667	1909.550781	-55.235687
11709.988298	1452.191667	1908.569336	-159.412674
11709.988298	1452.191667	1907.588867	43.406116
11709.988298	1452.191667	1906.607422	-97.262032
11709.988298	1452.191667	1905.625977	0.778973
11709.988298	1452.191667	1904.644531	62.274311
11709.988298	1452.191667	1903.662109	19.084717
11709.988298	1452.191667	1902.680664	138.987381
11709.988298	1452.191667	1901.698242	232.089951
11709.988298	1452.191667	1900.715820	64.849579
11709.988298	1452.191667	1899.733398	-34.208355
11709.988298	1452.191667	1898.750000	49.180164
11709.988298	1452.191667	1897.767578	-76.561859
11709.988298	1452.191667	1896.784180	-19.915646
11709.988298	1452.191667	1895.800781	-9.461746
11709.988298	1452.191667	1894.817383	98.206467
11709.988298	1452.191667	1893.833984	103.797379
11709.988298	1452.191667	1892.850586	82.675591
11709.988298	1452.191667	1891.866211	15.424931
11709.988298	1452.191667	1890.881836	-117.355606
11709.988298	1452.191667	1889.897461	126.246902
11709.988298	1452.191667	1888.913086	-16.193531
11709.988298	1452.191667	1887.927734	64.711121
11709.988298	1452.191667	1886.943359	72.799942
11709.988298	1452.191667	1885.958008	17.817411
11709.988298	1452.191667	1884.972656	13.802325
11709.988298	1452.191667	1883.987305	-36.279743
11709.988298	1452.191667	1883.001953	134.314117
11709.988298	1452.191667	1882.015625	-124.240509
11709.988298	1452.191667	1881.029297	-169.395615
11709.988298	1452.191667	1880.042969	117.472519
11709.988298	1452.191667	1879.056641	-58.530926
11709.988298	1452.191667	1878.070313	-47.933605
11709.988298	1452.191667	1877.083984	-165.698242
11709.988298	1452.191667	1876.096680	-99.375313
11709.988298	1452.191667	1875.109375	61.350632
11709.988298	1452.191667	1874.122070	-34.563221
11709.988298	1452.191667	1873.134766	150.304642
11709.988298	1452.191667	1872.146484	47.161560
11709.988298	1452.191667	1871.159180	-14.809568
11709.988298	1452.191667	1870.170898	162.709076
11709.988298	1452.191667	1869.182617	-99.974922
11709.988298	1452.191667	1868.194336	133.113129
11709.988298	1452.191667	1867.205078	-98.032837
11709.988298	1452.191667	1866.216797	47.962402
11709.988298	1452.191667	1865.227539	63.412773
11709.988298	1452.191667	1864.238281	-25.032415
11709.988298	1452.191667	1863.249023	74.977005
11709.988298	1452.191667	1862.259766	17.963566
11709.988298	1452.191667	1861.269531	-0.391811
11709.988298	1452.191667	1860.279297	-86.339256
11709.988298	1452.191667	1859.290039	54.645489
11709.988298	1452.191667	1858.298828	33.880463
11709.988298	1452.191667	1857.308594	145.833862
11709.988298	1452.191667	1856.318359	57.509346
11709.988298	1452.191667	1855.327148	104.288986
11709.988298	1452.191667	1854.335938	-51.521713
11709.988298	1452.191667	1853.344727	161.622696
11709.988298	1452.191667	1852.353516	155.315002
11709.988298	1452.191667	1851.362305	11.625073
11709.988298	1452.191667	1850.370117	67.993546
11709.988298	1452.191667	1849.377930	196.615555
11709.988298	1452.191667	1848.385742	158.974533
11709.988298	1452.191667	1847.393555	15.373725
11709.988298	1452.191667	1846.401367	69.271149
11709.988298	1452.191667	1845.408203	60.547844
11709.988298	1452.191667	1844.415039	-32.424759
11709.988298	1452.191667	1843.421875	189.891922
11709.988298	1452.191667	1842.428711	183.535522
11709.988298	1452.191667	1841.435547	-27.308426
11709.988298	1452.191667	1840.441406	211.693726
11709.988298	1452.191667	1839.448242	104.311272
11709.988298	1452.191667	1838.454102	66.684113
11709.988298	1452.191667	1837.459961	158.869751
11709.988298	1452.191667	1836.464844	243.799438
11709.988298	1452.191667	1835.470703	206.136581
11709.988298	1452.191667	1834.475586	-33.334442
11709.988298	1452.191667	1833.480469	-140.614700
11709.988298	1452.191667	1832.485352	-146.999573
11709.988298	1452.191667	1831.490234	48.300995
11709.988298	1452.191667	1830.495117	51.459389
11709.988298	1452.191667	1829.499023	114.608444
11709.988298	1452.191667	1828.502930	62.529411
11709.988298	1452.191667	1827.506836	-27.933935
11709.988298	1452.191667	1826.510742	27.953293
11709.988298	1452.191667	1825.513672	218.115387
11709.988298	1452.191667	1824.517578	142.014404
11709.988298	1452.191667	1823.520508	113.875816
11709.988298	1452.191667	1822.523438	289.481476
11709.988298	1452.191667	1821.526367	76.751320
11709.988298	1452.191667	1820.529297	-44.862438
11709.988298	1452.191667	1819.531250	-89.786179
11709.988298	1452.191667	1818.533203	131.161896
11709.988298	1452.191667	1817.535156	31.102457
11709.988298	1452.191667	1816.537109	5.286528
11709.988298	1452.191667	1815.539063	60.852844
11709.988298	1452.191667	1814.540039	11.064398
11709.988298	1452.191667	1813.541992	-29.153456
11709.988298	1452.191667	1812.542969	81.352638
11709.988298	1452.191667	1811.543945	41.092289
11709.988298	1452.191667	1810.543945	48.657028
11709.988298	1452.191667	1809.544922	51.414291
11709.988298	1452.191667	1808.544922	25.457706
11709.988298	1452.191667	1807.544922	-12.464252
11709.988298	1452.191667	1806.544922	88.214424
11709.988298	1452.191667	1805.544922	193.610062
11709.988298	1452.191667	1804.544922	79.158287
11709.988298	1452.191667	1803.543945	112.809410
11709.988298	1452.191667	1802.542969	-85.216759
11709.988298	1452.191667	1801.541992	194.321579
11709.988298	1452.191667	1800.541016	110.884514
11709.988298	1452.191667	1799.539063	63.251366
11709.988298	1452.191667	1798.538086	77.651466
11709.988298	1452.191667	1797.536133	46.688217
11709.988298	1452.191667	1796.534180	111.121155
11709.988298	1452.191667	1795.532227	30.024643
11709.988298	1452.191667	1794.529297	196.908371
11709.988298	1452.191667	1793.527344	32.329578
11709.988298	1452.191667	1792.524414	89.449554
11709.988298	1452.191667	1791.521484	103.622711
11709.988298	1452.191667	1790.518555	-25.196188
11709.988298	1452.191667	1789.514648	-32.507824
11709.988298	1452.191667	1788.511719	67.331299
11709.988298	1452.191667	1787.507813	59.943634
11709.988298	1452.191667	1786.503906	35.861008
11709.988298	1452.191667	1785.500000	11.756482
11709.988298	1452.191667	1784.496094	66.165909
11709.988298	1452.191667	1783.491211	-38.902744
11709.988298	1452.191667	1782.486328	-22.634306
11709.988298	1452.191667	1781.481445	-58.733627
11709.988298	1452.191667	1780.476563	76.371315
11709.988298	1452.191667	1779.471680	173.349213
11709.988298	1452.191667	1778.465820	53.929573
11709.988298	1452.191667	1777.460938	-17.941595
11709.988298	1452.191667	1776.455078	147.808716
11709.988298	1452.191667	1775.449219	104.386574
11709.988298	1452.191667	1774.442383	-17.443462
11709.988298	1452.191667	1773.436523	41.236080
11709.988298	1452.191667	1772.429688	64.238701
11709.988298	1452.191667	1771.422852	184.532837
11709.988298	1452.191667	1770.416016	145.714966
11709.988298	1452.191667	1769.409180	163.832275
11709.988298	1452.191667	1768.402344	-31.635910
11709.988298	1452.191667	1767.394531	-51.522385
11709.988298	1452.191667	1766.386719	75.613647
11709.988298	1452.191667	1765.378906	67.498589
11709.988298	1452.191667	1764.371094	59.350071
11709.988298	1452.191667	1763.362305	172.057846
11709.988298	1452.191667	1762.354492	144.858566
11709.988298	1452.191667	1761.345703	-57.715233
11709.988298	1452.191667	1760.336914	50.100758
11709.988298	1452.191667	1759.328125	183.893814
11709.988298	1452.191667	1758.318359	-108.677406
11709.988298	1452.191667	1757.308594	-107.576035
11709.988298	1452.191667	1756.299805	-104.143478
11709.988298	1452.191667	1755.290039	-53.415424
11709.988298	1452.191667	1754.279297	58.778355
11709.988298	1452.191667	1753.269531	-127.213478
11709.988298	1452.191667	1752.258789	119.707466
11709.988298	1452.191667	1751.249023	21.204947
11709.988298	1452.191667	1750.238281	123.687782
11709.988298	1452.191667	1749.226563	41.688534
11709.988298	1452.191667	1748.215820	66.049904
11709.988298	1452.191667	1747.204102	-20.711082
11709.988298	1452.191667	1746.193359	102.812881
11709.988298	1452.191667	1745.181641	105.769058
11709.988298	1452.191667	1744.168945	-66.096085
11709.988298	1452.191667	1743.157227	-74.993164
11709.988298	1452.191667	1742.144531	-6.016327
11709.988298	1452.191667	1741.132813	145.516556
11709.988298	1452.191667	1740.120117	-35.820843
11709.988298	1452.191667	1739.106445	75.462624
11709.988298	1452.191667	1738.093750	-25.657721
11709.988298	1452.191667	1737.080078	33.611832
11709.988298	1452.191667	1736.067383	187.153992
11709.988298	1452.191667	1735.053711	15.216441
11709.988298	1452.191667	1734.040039	-95.403206
11709.988298	1452.191667	1733.025391	-114.102188
11709.988298	1452.191667	1732.011719	29.767157
11709.988298	1452.191667	1730.997070	161.759384
11709.988298	1452.191667	1729.982422	-120.918045
11709.988298	1452.191667	1728.967773	-40.837318
11709.988298	1452.191667	1727.952148	50.944515
11709.988298	1452.191667	1726.937500	-0.951345
11709.988298	1452.191667	1725.921875	109.541061
11709.988298	1452.191667	1724.906250	-48.325699
11709.988298	1452.191667	1723.890625	-90.879128
11709.988298	1452.191667	1722.875000	113.549355
11709.988298	1452.191667	1721.858398	103.829285
11709.988298	1452.191667	1720.841797	7.068881
11709.988298	1452.191667	1719.825195	103.095436
11709.988298	1452.191667	1718.808594	88.568283
11709.988298	1452.191667	1717.791992	-81.101776
11709.988298	1452.191667	1716.774414	33.568436
11709.988298	1452.191667	1715.756836	171.650223
11709.988298	1452.191667	1714.739258	128.782913
11709.988298	1452.191667	1713.721680	-151.290619
11709.988298	1452.191667	1712.704102	50.030895
11709.988298	1452.191667	1711.685547	-82.106438
11709.988298	1452.191667	1710.667969	4.047712
11709.988298	1452.191667	1709.649414	-27.199991
11709.988298	1452.191667	1708.630859	-58.471325
11709.988298	1452.191667	1707.611328	65.043785
11709.988298	1452.191667	1706.592773	54.802002
11709.988298	1452.191667	1705.573242	53.904186
11709.988298	1452.191667	1704.553711	139.711624
11709.988298	1452.191667	1703.534180	5.126914
11709.988298	1452.191667	1702.513672	189.260284
11709.988298	1452.191667	1701.494141	-22.669048
11709.988298	1452.191667	1700.473633	-126.800255
11709.988298	1452.191667	1699.453125	92.281372
11709.988298	1452.191667	1698.432617	-112.588951
11709.988298	1452.191667	1697.412109	-92.661423
11709.988298	1452.191667	1696.390625	20.849823
11709.988298	1452.191667	1695.369141	82.798592
11709.988298	1452.191667	1694.347656	-72.912971
11709.988298	1452.191667	1693.326172	10.019156
11709.988298	1452.191667	1692.304688	-54.464790
11709.988298	1452.191667	1691.282227	70.455612
11709.988298	1452.191667	1690.260742	5.921682
11709.988298	1452.191667	1689.238281	-84.337204
11709.988298	1452.191667	1688.214844	-13.334959
11709.988298	1452.191667	1687.192383	-73.239662
11709.988298	1452.191667	1686.168945	112.147163
11709.988298	1452.191667	1685.146484	288.094574
11709.988298	1452.191667	1684.123047	52.921532
11709.988298	1452.191667	1683.099609	182.051102
11709.988298	1452.191667	1682.075195	19.293745
11709.988298	1452.191667	1681.051758	33.957310
11709.988298	1452.191667	1680.027344	78.917717
11709.988298	1452.191667	1679.002930	30.509766
11709.988298	1452.191667	1677.978516	231.684509
11709.988298	1452.191667	1676.953125	96.915390
11709.988298	1452.191667	1675.928711	179.027130
11709.988298	1452.191667	1674.903320	90.892029
11709.988298	1452.191667	1673.877930	142.614532
11709.988298	1452.191667	1672.852539	103.406471
11709.988298	1452.191667	1671.826172	129.420883
11709.988298	1452.191667	1670.800781	339.435394
11709.988298	1452.191667	1669.774414	239.576447
11709.988298	1452.191667	1668.748047	46.588314
11709.988298	1452.191667	1667.721680	37.573936
11709.988298	1452.191667	1666.694336	86.726807
11709.988298	1452.191667	1665.667969	277.804260
11709.988298	1452.191667	1664.640625	82.532646
11709.988298	1452.191667	1663.613281	154.843384
11709.988298	1452.191667	1662.585938	173.608963
11709.988298	1452.191667	1661.557617	224.896835
11709.988298	1452.191667	1660.530273	224.999161
11709.988298	1452.191667	1659.501953	234.373642
11709.988298	1452.191667	1658.473633	78.713470
11709.988298	1452.191667	1657.444336	201.925873
11709.988298	1452.191667	1656.416016	257.704071
11709.988298	1452.191667	1655.386719	90.452911
11709.988298	1452.191667	1654.358398	236.763596
11709.988298	1452.191667	1653.328125	273.862183
11709.988298	1452.191667	1652.298828	290.041107
11709.988298	1452.191667	1651.269531	262.099213
11709.988298	1452.191667	1650.239258	378.016846
11709.988298	1452.191667	1649.208984	303.629028
11709.988298	1452.191667	1648.178711	152.707184
11709.988298	1452.191667	1647.148438	268.532074
11709.988298	1452.191667	1646.117188	173.289154
11709.988298	1452.191667	1645.086914	221.806229
11709.988298	1452.191667	1644.055664	344.455139
11709.988298	1452.191667	1643.024414	411.426422
11709.988298	1452.191667	1641.992188	332.387939
11709.988298	1452.191667	1640.960938	438.690002
11709.988298	1452.191667	1639.928711	565.777649
11709.988298	1452.191667	1638.896484	505.243835
11709.988298	1452.191667	1637.864258	405.365875
11709.988298	1452.191667	1636.832031	604.107666
11709.988298	1452.191667	1635.798828	520.422607
11709.988298	1452.191667	1634.766602	436.766235
11709.988298	1452.191667	1633.733398	378.574158
11709.988298	1452.191667	1632.699219	382.837585
11709.988298	1452.191667	1631.666016	384.784973
11709.988298	1452.191667	1630.632813	389.036285
11709.988298	1452.191667	1629.598633	488.045380
11709.988298	1452.191667	1628.564453	471.456055
11709.988298	1452.191667	1627.530273	443.313782
11709.988298	1452.191667	1626.495117	472.925934
11709.988298	1452.191667	1625.460938	495.598175
11709.988298	1452.191667	1624.425781	617.550293
11709.988298	1452.191667	1623.390625	660.950989
11709.988298	1452.191667	1622.355469	466.567871
11709.988298	1452.191667	1621.319336	392.264526
11709.988298	1452.191667	1620.284180	472.594635
11709.988298	1452.191667	1619.248047	670.544617
11709.988298	1452.191667	1618.211914	483.216766
11709.988298	1452.191667	1617.174805	485.058167
11709.988298	1452.191667	1616.138672	440.790497
11709.988298	1452.191667	1615.101563	703.131592
11709.988298	1452.191667	1614.065430	522.856812
11709.988298	1452.191667	1613.027344	637.598389
11709.988298	1452.191667	1611.990234	648.627502
11709.988298	1452.191667	1610.953125	567.516235
11709.988298	1452.191667	1609.915039	656.856201
11709.988298	1452.191667	1608.876953	709.323425
11709.988298	1452.191667	1607.838867	722.638184
11709.988298	1452.191667	1606.800781	712.936279
11709.988298	1452.191667	1605.761719	604.285400
11709.988298	1452.191667	1604.723633	578.515015
11709.988298	1452.191667	1603.684570	872.497375
11709.988298	1452.191667	1602.644531	802.988953
11709.988298	1452.191667	1601.605469	754.214661
11709.988298	1452.191667	1600.566406	537.643127
11709.988298	1452.191667	1599.526367	665.935425
11709.988298	1452.191667	1598.486328	757.416809
11709.988298	1452.191667	1597.446289	674.252991
11709.988298	1452.191667	1596.405273	875.974548
11709.988298	1452.191667	1595.365234	802.026611
11709.988298	1452.191667	1594.324219	769.446106
11709.988298	1452.191667	1593.283203	711.635559
11709.988298	1452.191667	1592.242188	665.335571
11709.988298	1452.191667	1591.200195	782.000427
11709.988298	1452.191667	1590.159180	864.220947
11709.988298	1452.191667	1589.117188	893.654297
11709.988298	1452.191667	1588.075195	751.072083
11709.988298	1452.191667	1587.032227	837.866943
11709.988298	1452.191667	1585.990234	970.502197
11709.988298	1452.191667	1584.947266	832.612244
11709.988298	1452.191667	1583.904297	862.092102
11709.988298	1452.191667	1582.861328	861.789368
11709.988298	1452.191667	1581.818359	779.032227
11709.988298	1452.191667	1580.775391	893.302185
11709.988298	1452.191667	1579.731445	870.141357
11709.988298	1452.191667	1578.687500	796.637512
11709.988298	1452.191667	1577.643555	933.778503
11709.988298	1452.191667	1576.598633	823.706055
11709.988298	1452.191667	1575.554688	677.091248
11709.988298	1452.191667	1574.509766	759.323730
11709.988298	1452.191667	1573.464844	683.721985
11709.988298	1452.191667	1572.419922	459.525879
11709.988298	1452.191667	1571.374023	685.855347
11709.988298	1452.191667	1570.329102	621.807861
11709.988298	1452.191667	1569.283203	740.643860
11709.988298	1452.191667	1568.237305	596.675537
11709.988298	1452.191667	1567.191406	642.410156
11709.988298	1452.191667	1566.144531	544.244751
11709.988298	1452.191667	1565.098633	608.290588
11709.988298	1452.191667	1564.051758	676.898743
11709.988298	1452.191667	1563.004883	537.769958
11709.988298	1452.191667	1561.957031	695.425232
11709.988298	1452.191667	1560.910156	736.672485
11709.988298	1452.191667	1559.862305	609.097351
11709.988298	1452.191667	1558.814453	534.063538
11709.988298	1452.191667	1557.766602	529.785767
11709.988298	1452.191667	1556.718750	612.183044
11709.988298	1452.191667	1555.669922	409.613403
11709.988298	1452.191667	1554.621094	537.641113
11709.988298	1452.191667	1553.573242	569.945007
11709.988298	1452.191667	1552.523438	461.001038
11709.988298	1452.191667	1551.474609	693.818054
11709.988298	1452.191667	1550.424805	569.013306
11709.988298	1452.191667	1549.375000	432.905365
11709.988298	1452.191667	1548.325195	549.579041
11709.988298	1452.191667	1547.275391	575.195984
11709.988298	1452.191667	1546.225586	266.317505
11709.988298	1452.191667	1545.174805	503.636627
11709.988298	1452.191667	1544.124023	342.815796
11709.988298	1452.191667	1543.073242	743.845154
11709.988298	1452.191667	1542.022461	714.994202
11709.988298	1452.191667	1540.970703	636.170776
11709.988298	1452.191667	1539.919922	614.242981
11709.988298	1452.191667	1538.868164	496.910950
11709.988298	1452.191667	1537.815430	411.466736
11709.988298	1452.191667	1536.763672	432.863159
11709.988298	1452.191667	1535.710938	536.047119
11709.988298	1452.191667	1534.659180	487.094421
11709.988298	1452.191667	1533.606445	306.520447
11709.988298	1452.191667	1532.552734	500.573242
11709.988298	1452.191667	1531.500000	311.069061
11709.988298	1452.191667	1530.446289	205.625549
11709.988298	1452.191667	1529.393555	490.445068
11709.988298	1452.191667	1528.338867	328.384369
11709.988298	1452.191667	1527.285156	409.063507
11709.988298	1452.191667	1526.231445	199.559570
11709.988298	1452.191667	1525.176758	307.511963
11709.988298	1452.191667	1524.122070	374.671234
11709.988298	1452.191667	1523.067383	260.584137
11709.988298	1452.191667	1522.012695	309.689026
11709.988298	1452.191667	1520.957031	100.617500
11709.988298	1452.191667	1519.901367	167.933517
11709.988298	1452.191667	1518.845703	153.763824
11709.988298	1452.191667	1517.790039	182.650757
11709.988298	1452.191667	1516.734375	213.834366
11709.988298	1452.191667	1515.677734	163.592514
11709.988298	1452.191667	1514.621094	199.378998
11709.988298	1452.191667	1513.564453	113.062782
11709.988298	1452.191667	1512.507813	-83.977432
11709.988298	1452.191667	1511.450195	92.145279
11709.988298	1452.191667	1510.393555	37.686314
11709.988298	1452.191667	1509.335938	-7.666681
11709.988298	1452.191667	1508.278320	-46.176517
11709.988298	1452.191667	1507.219727	-82.366760
11709.988298	1452.191667	1506.162109	46.387249
11709.988298	1452.191667	1505.103516	-41.648872
11709.988298	1452.191667	1504.044922	-97.993019
11709.988298	1452.191667	1502.986328	-127.178612
11709.988298	1452.191667	1501.926758	35.523911
11709.988298	1452.191667	1500.868164	-11.628958
11709.988298	1452.191667	1499.808594	92.431099
11709.988298	1452.191667	1498.749023	-38.069927
11709.988298	1452.191667	1497.688477	115.663147
11709.988298	1452.191667	1496.628906	75.493332
11709.988298	1452.191667	1495.568359	8.338433
11709.988298	1452.191667	1494.507813	153.108810
11709.988298	1452.191667	1493.447266	31.989721
11709.988298	1452.191667	1492.386719	-98.040588
11709.988298	1452.191667	1491.325195	-36.520164
11709.988298	1452.191667	1490.263672	9.264829
11709.988298	1452.191667	1489.202148	28.066547
11709.988298	1452.191667	1488.140625	-7.110428
11709.988298	1452.191667	1487.079102	-12.963663
11709.988298	1452.191667	1486.016602	1.487078
11709.988298	1452.191667	1484.954102	-76.250191
11709.988298	1452.191667	1483.891602	66.520012
11709.988298	1452.191667	1482.829102	-161.759766
11709.988298	1452.191667	1481.765625	-142.580307
11709.988298	1452.191667	1480.702148	-87.387405
11709.988298	1452.191667	1479.638672	24.020235
11709.988298	1452.191667	1478.575195	-12.855762
11709.988298	1452.191667	1477.511719	-29.458132
11709.988298	1452.191667	1476.447266	-12.262763
11709.988298	1452.191667	1475.382813	-31.033630
11709.988298	1452.191667	1474.318359	-78.847755
11709.988298	1452.191667	1473.253906	-5.403753
11709.988298	1452.191667	1472.189453	-50.864586
11709.988298	1452.191667	1471.124023	-15.476426
11709.988298	1452.191667	1470.058594	105.196671
11709.988298	1452.191667	1468.993164	129.371109
11709.988298	1452.191667	1467.927734	1.061150
11709.988298	1452.191667	1466.861328	157.707825
11709.988298	1452.191667	1465.794922	61.269791
11709.988298	1452.191667	1464.728516	0.598209
11709.988298	1452.191667	1463.662109	-64.479706
11709.988298	1452.191667	1462.594727	4.912832
11709.988298	1452.191667	1461.528320	138.943909
11709.988298	1452.191667	1460.460938	150.097031
11709.988298	1452.191667	1459.393555	300.148376
11709.988298	1452.191667	1458.326172	88.142441
11709.988298	1452.191667	1457.257813	175.429855
11709.988298	1452.191667	1456.189453	276.230499
11709.988298	1452.191667	1455.121094	166.311951
11709.988298	1452.191667	1454.052734	265.031677
11709.988298	1452.191667	1452.984375	203.237854
11709.988298	1452.191667	1451.915039	223.453735
11709.988298	1452.191667	1450.845703	173.111282
11709.988298	1452.191667	1449.776367	402.323792
11709.988298	1452.191667	1448.707031	220.275818
11709.988298	1452.191667	1447.636719	175.062103
11709.988298	1452.191667	1446.567383	197.707108
11709.988298	1452.191667	1445.497070	309.709900
11709.988298	1452.191667	1444.425781	341.734680
11709.988298	1452.191667	1443.355469	260.270447
11709.988298	1452.191667	1442.285156	215.214188
11709.988298	1452.191667	1441.213867	305.317719
11709.988298	1452.191667	1440.142578	231.459183
11709.988298	1452.191667	1439.070313	196.075500
11709.988298	1452.191667	1437.999023	156.483688
11709.988298	1452.191667	1436.926758	191.787140
11709.988298	1452.191667	1435.854492	78.537621
11709.988298	1452.191667	1434.782227	261.615936
11709.988298	1452.191667	1433.709961	71.324730
11709.988298	1452.191667	1432.636719	56.979164
11709.988298	1452.191667	1431.563477	118.142471
11709.988298	1452.191667	1430.490234	74.049919
11709.988298	1452.191667	1429.416992	43.410412
11709.988298	1452.191667	1428.343750	18.924053
11709.988298	1452.191667	1427.269531	42.963345
11709.988298	1452.191667	1426.195313	-54.460030
11709.988298	1452.191667	1425.121094	48.895527
11709.988298	1452.191667	1424.046875	-73.030647
11709.988298	1452.191667	1422.971680	-82.388802
11709.988298	1452.191667	1421.896484	-29.292480
11709.988298	1452.191667	1420.821289	89.675179
11709.988298	1452.191667	1419.746094	67.392960
11709.988298	1452.191667	1418.669922	64.924164
11709.988298	1452.191667	1417.594727	100.528542
11709.988298	1452.191667	1416.518555	89.020882
11709.988298	1452.191667	1415.442383	120.704292
11709.988298	1452.191667	1414.365234	-4.600903
11709.988298	1452.191667	1413.289063	130.201050
11709.988298	1452.191667	1412.211914	196.625015
11709.988298	1452.191667	1411.134766	194.912857
11709.988298	1452.191667	1410.057617	130.242142
11709.988298	1452.191667	1408.979492	62.461250
11709.988298	1452.191667	1407.902344	217.091675
11709.988298	1452.191667	1406.824219	177.927597
11709.988298	1452.191667	1405.746094	157.232544
11709.988298	1452.191667	1404.666992	216.887329
11709.988298	1452.191667	1403.588867	168.202072
11709.988298	1452.191667	1402.509766	217.653473
11709.988298	1452.191667	1401.430664	74.149376
11709.988298	1452.191667	1400.351563	253.601196
11709.988298	1452.191667	1399.271484	219.296219
11709.988298	1452.191667	1398.192383	335.559174
11709.988298	1452.191667	1397.112305	314.206116
11709.988298	1452.191667	1396.031250	460.752075
11709.988298	1452.191667	1394.951172	472.909180
11709.988298	1452.191667	1393.871094	272.333435
11709.988298	1452.191667	1392.790039	199.367111
11709.988298	1452.191667	1391.708984	280.638763
11709.988298	1452.191667	1390.626953	270.491638
11709.988298	1452.191667	1389.545898	241.599365
11709.988298	1452.191667	1388.463867	295.769348
11709.988298	1452.191667	1387.381836	332.409821
11709.988298	1452.191667	1386.299805	350.765076
11709.988298	1452.191667	1385.217773	264.115601
11709.988298	1452.191667	1384.134766	358.831879
11709.988298	1452.191667	1383.051758	345.023468
11709.988298	1452.191667	1381.968750	206.634399
11709.988298	1452.191667	1380.885742	339.113159
11709.988298	1452.191667	1379.802734	258.497040
11709.988298	1452.191667	1378.718750	160.281677
11709.988298	1452.191667	1377.634766	356.395752
11709.988298	1452.191667	1376.550781	348.215424
11709.988298	1452.191667	1375.465820	179.139740
11709.988298	1452.191667	1374.381836	229.205185
11709.988298	1452.191667	1373.296875	252.384537
11709.988298	1452.191667	1372.211914	160.989059
11709.988298	1452.191667	1371.126953	168.122406
11709.988298	1452.191667	1370.041016	299.529083
11709.988298	1452.191667	1368.955078	225.097366
11709.988298	1452.191667	1367.869141	423.241455
11709.988298	1452.191667	1366.783203	291.086517
11709.988298	1452.191667	1365.697266	237.183990
11709.988298	1452.191667	1364.610352	209.930359
11709.988298	1452.191667	1363.523438	244.457840
11709.988298	1452.191667	1362.436523	270.874969
11709.988298	1452.191667	1361.349609	339.768799
11709.988298	1452.191667	1360.261719	189.857773
11709.988298	1452.191667	1359.174805	321.291412
11709.988298	1452.191667	1358.086914	417.702271
11709.988298	1452.191667	1356.998047	271.172150
11709.988298	1452.191667	1355.910156	333.820526
11709.988298	1452.191667	1354.821289	514.887146
11709.988298	1452.191667	1353.732422	378.833374
11709.988298	1452.191667	1352.643555	312.597809
11709.988298	1452.191667	1351.554688	367.993103
11709.988298	1452.191667	1350.464844	302.097839
11709.988298	1452.191667	1349.375000	265.702881
11709.988298	1452.191667	1348.285156	318.298492
11709.988298	1452.191667	1347.195313	504.702209
11709.988298	1452.191667	1346.105469	468.555756
11709.988298	1452.191667	1345.014648	461.904694
11709.988298	1452.191667	1343.923828	473.011780
11709.988298	1452.191667	1342.833008	462.734070
11709.988298	1452.191667	1341.741211	428.568939
11709.988298	1452.191667	1340.650391	344.068848
11709.988298	1452.191667	1339.558594	425.640015
11709.988298	1452.191667	1338.466797	435.081238
11709.988298	1452.191667	1337.374023	422.562775
11709.988298	1452.191667	1336.282227	472.745270
11709.988298	1452.191667	1335.189453	414.911224
11709.988298	1452.191667	1334.096680	472.784485
11709.988298	1452.191667	1333.003906	477.494049
11709.988298	1452.191667	1331.910156	466.751373
11709.988298	1452.191667	1330.817383	423.967743
11709.988298	1452.191667	1329.723633	503.594910
11709.988298	1452.191667	1328.629883	310.307251
11709.988298	1452.191667	1327.535156	286.139099
11709.988298	1452.191667	1326.441406	410.316895
11709.988298	1452.191667	1325.346680	349.238434
11709.988298	1452.191667	1324.251953	272.685883
11709.988298	1452.191667	1323.156250	481.546234
11709.988298	1452.191667	1322.061523	372.067200
11709.988298	1452.191667	1320.965820	358.647675
11709.988298	1452.191667	1319.870117	480.103485
11709.988298	1452.191667	1318.774414	428.759338
11709.988298	1452.191667	1317.678711	283.475159
11709.988298	1452.191667	1316.582031	406.180603
11709.988298	1452.191667	1315.485352	353.646362
11709.988298	1452.191667	1314.388672	275.846100
11709.988298	1452.191667	1313.291016	210.967346
11709.988298	1452.191667	1312.194336	274.280243
11709.988298	1452.191667	1311.096680	382.701324
11709.988298	1452.191667	1309.999023	364.725739
11709.988298	1452.191667	1308.901367	357.423401
11709.988298	1452.191667	1307.802734	280.577087
11709.988298	1452.191667	1306.705078	247.739944
11709.988298	1452.191667	1305.606445	160.555283
11709.988298	1452.191667	1304.506836	130.879150
11709.988298	1452.191667	1303.408203	287.811371
11709.988298	1452.191667	1302.308594	240.053513
11709.988298	1452.191667	1301.208984	283.473602
11709.988298	1452.191667	1300.109375	296.960327
11709.988298	1452.191667	1299.009766	188.653397
11709.988298	1452.191667	1297.909180	340.044342
11709.988298	1452.191667	1296.808594	390.043060
11709.988298	1452.191667	1295.708008	323.954315
11709.988298	1452.191667	1294.607422	402.215118
11709.988298	1452.191667	1293.506836	197.666321
11709.988298	1452.191667	1292.405273	205.785873
11709.988298	1452.191667	1291.303711	292.219482
11709.988298	1452.191667	1290.202148	197.309433
11709.988298	1452.191667	1289.099609	157.076202
11709.988298	1452.191667	1287.998047	175.055618
11709.988298	1452.191667	1286.895508	119.274429
11709.988298	1452.191667	1285.792969	115.717613
11709.988298	1452.191667	1284.689453	103.599541
11709.988298	1452.191667	1283.586914	169.449066
11709.988298	1452.191667	1282.483398	200.461060
11709.988298	1452.191667	1281.379883	117.939735
11709.988298	1452.191667	1280.276367	148.649780
11709.988298	1452.191667	1279.171875	145.374969
11709.988298	1452.191667	1278.067383	52.764717
11709.988298	1452.191667	1276.962891	172.218460
11709.988298	1452.191667	1275.858398	25.321671
11709.988298	1452.191667	1274.753906	98.698898
11709.988298	1452.191667	1273.648438	88.047554
11709.988298	1452.191667	1272.542969	77.007225
11709.988298	1452.191667	1271.437500	141.946579
11709.988298	1452.191667	1270.331055	81.175865
11709.988298	1452.191667	1269.225586	52.585941
11709.988298	1452.191667	1268.119141	174.896866
11709.988298	1452.191667	1267.012695	106.059212
11709.988298	1452.191667	1265.906250	183.594498
11709.988298	1452.191667	1264.798828	272.334473
11709.988298	1452.191667	1263.691406	132.221420
11709.988298	1452.191667	1262.583984	47.256809
11709.988298	1452.191667	1261.476563	49.060310
11709.988298	1452.191667	1260.368164	77.214691
11709.988298	1452.191667	1259.260742	156.647812
11709.988298	1452.191667	1258.152344	14.721938
11709.988298	1452.191667	1257.043945	55.767475
11709.988298	1452.191667	1255.934570	46.549343
11709.988298	1452.191667	1254.825195	114.786110
11709.988298	1452.191667	1253.716797	79.104546
11709.988298	1452.191667	1252.606445	-4.531227
11709.988298	1452.191667	1251.497070	58.671108
11709.988298	1452.191667	1250.387695	88.521400
11709.988298	1452.191667	1249.277344	64.373955
11709.988298	1452.191667	1248.166992	60.733459
11709.988298	1452.191667	1247.055664	-40.747444
11709.988298	1452.191667	1245.945313	16.732082
11709.988298	1452.191667	1244.833984	116.043678
11709.988298	1452.191667	1243.722656	27.441061
11709.988298	1452.191667	1242.611328	81.732399
11709.988298	1452.191667	1241.499023	13.362322
11709.988298	1452.191667	1240.387695	-25.562649
11709.988298	1452.191667	1239.275391	-41.483864
11709.988298	1452.191667	1238.162109	-1.121480
11709.988298	1452.191667	1237.049805	22.665699
11709.988298	1452.191667	1235.936523	-19.604694
11709.988298	1452.191667	1234.823242	-21.498749
11709.988298	1452.191667	1233.709961	-85.529083
11709.988298	1452.191667	1232.596680	-41.767883
11709.988298	1452.191667	1231.482422	45.493633
11709.988298	1452.191667	1230.369141	-93.833260
11709.988298	1452.191667	1229.253906	38.006050
11709.988298	1452.191667	1228.139648	-103.876190
11709.988298	1452.191667	1227.025391	-90.745789
11709.988298	1452.191667	1225.910156	-61.266052
11709.988298	1452.191667	1224.794922	-15.906327
11709.988298	1452.191667	1223.679688	39.687977
11709.988298	1452.191667	1222.563477	-2.586397
11709.988298	1452.191667	1221.447266	26.831017
11709.988298	1452.191667	1220.331055	42.134163
11709.988298	1452.191667	1219.214844	29.088772
11709.988298	1452.191667	1218.098633	51.868286
11709.988298	1452.191667	1216.981445	4.949507
11709.988298	1452.191667	1215.864258	13.066282
11709.988298	1452.191667	1214.747070	19.094704
11709.988298	1452.191667	1213.629883	25.834690
11709.988298	1452.191667	1212.511719	53.626781
11709.988298	1452.191667	1211.393555	64.143837
11709.988298	1452.191667	1210.275391	74.319588
11709.988298	1452.191667	1209.157227	-26.251621
11709.988298	1452.191667	1208.038086	44.234596
11709.988298	1452.191667	1206.918945	23.075663
11709.988298	1452.191667	1205.799805	-3.962174
11709.988298	1452.191667	1204.680664	5.447886
11709.988298	1452.191667	1203.560547	66.164864
11709.988298	1452.191667	1202.441406	-78.240295
11709.988298	1452.191667	1201.321289	24.979593
11709.988298	1452.191667	1200.200195	100.990173
11709.988298	1452.191667	1199.080078	-66.436844
11709.988298	1452.191667	1197.958984	-87.255013
11709.988298	1452.191667	1196.837891	-111.247833
11709.988298	1452.191667	1195.716797	-32.277939
11709.988298	1452.191667	1194.594727	-207.035706
11709.988298	1452.191667	1193.473633	-108.146225
11709.988298	1452.191667	1192.351563	-0.279506
11709.988298	1452.191667	1191.229492	-130.754593
11709.988298	1452.191667	1190.106445	-134.453827
11709.988298	1452.191667	1188.984375	-153.291702
11709.988298	1452.191667	1187.861328	-66.971535
11709.988298	1452.191667	1186.738281	14.785836
11709.988298	1452.191667	1185.614258	-39.067490
11709.988298	1452.191667	1184.491211	14.585371
11709.988298	1452.191667	1183.367188	37.778770
11709.988298	1452.191667	1182.243164	42.127411
11709.988298	1452.191667	1181.119141	79.478180
11709.988298	1452.191667	1179.994141	-24.002056
11709.988298	1452.191667	1178.869141	-21.123339
11709.988298	1452.191667	1177.744141	-52.858105
11709.988298	1452.191667	1176.619141	-50.319424
11709.988298	1452.191667	1175.493164	-94.984039
11709.988298	1452.191667	1174.368164	-16.207378
11709.988298	1452.191667	1173.242188	-44.669243
11709.988298	1452.191667	1172.115234	-5.490562
11709.988298	1452.191667	1170.989258	-93.027107
11709.988298	1452.191667	1169.862305	-61.025692
11709.988298	1452.191667	1168.735352	10.359606
11709.988298	1452.191667	1167.608398	-35.932972
11709.988298	1452.191667	1166.481445	-7.989604
11709.988298	1452.191667	1165.353516	-47.905846
11709.988298	1452.191667	1164.225586	-87.476295
11709.988298	1452.191667	1163.097656	-54.243172
11709.988298	1452.191667	1161.968750	-114.812828
11709.988298	1452.191667	1160.840820	-89.168556
11709.988298	1452.191667	1159.711914	-1.930568
11709.988298	1452.191667	1158.583008	-36.428982
11709.988298	1452.191667	1157.453125	13.771281
11709.988298	1452.191667	1156.324219	-119.773323
11709.988298	1452.191667	1155.194336	-112.544022
11709.988298	1452.191667	1154.064453	21.657986
11709.988298	1452.191667	1152.933594	-46.308960
11709.988298	1452.191667	1151.803711	15.838850
11709.988298	1452.191667	1150.672852	-87.424416
11709.988298	1452.191667	1149.541992	-27.699650
11709.988298	1452.191667	1148.411133	7.134550
11709.988298	1452.191667	1147.279297	-3.905864
11709.988298	1452.191667	1146.147461	-39.745922
11709.988298	1452.191667	1145.015625	21.692820
11709.988298	1452.191667	1143.883789	-20.153271
11709.988298	1452.191667	1142.750977	34.712139
11709.988298	1452.191667	1141.619141	-97.576187
11709.988298	1452.191667	1140.486328	-109.138222
11709.988298	1452.191667	1139.352539	-99.379951
11709.988298	1452.191667	1138.219727	-51.122505
11709.988298	1452.191667	1137.085938	-70.448891
11709.988298	1452.191667	1135.952148	107.817184
11709.988298	1452.191667	1134.818359	33.103825
11709.988298	1452.191667	1133.683594	29.806604
11709.988298	1452.191667	1132.549805	68.945488
11709.988298	1452.191667	1131.415039	61.816631
11709.988298	1452.191667	1130.279297	63.644444
11709.988298	1452.191667	1129.144531	152.579926
11709.988298	1452.191667	1128.008789	185.045547
11709.988298	1452.191667	1126.873047	133.451721
11709.988298	1452.191667	1125.737305	112.665543
11709.988298	1452.191667	1124.601563	133.359787
11709.988298	1452.191667	1123.464844	135.520126
11709.988298	1452.191667	1122.328125	153.264175
11709.988298	1452.191667	1121.191406	157.258347
11709.988298	1452.191667	1120.054688	237.557236
11709.988298	1452.191667	1118.916992	213.580063
11709.988298	1452.191667	1117.779297	184.825394
11709.988298	1452.191667	1116.641602	153.721375
11709.988298	1452.191667	1115.503906	159.215210
11709.988298	1452.191667	1114.365234	41.752396
11709.988298	1452.191667	1113.226563	170.279358
11709.988298	1452.191667	1112.087891	40.148106
11709.988298	1452.191667	1110.949219	58.030460
11709.988298	1452.191667	1109.809570	77.233635
11709.988298	1452.191667	1108.669922	163.585541
11709.988298	1452.191667	1107.530273	137.389359
11709.988298	1452.191667	1106.390625	97.714882
11709.988298	1452.191667	1105.250000	171.555756
11709.988298	1452.191667	1104.109375	131.212677
11709.988298	1452.191667	1102.968750	115.356499
11709.988298	1452.191667	1101.828125	108.120522
11709.988298	1452.191667	1100.686523	249.969971
11709.988298	1452.191667	1099.544922	127.498642
11709.988298	1452.191667	1098.403320	66.787560
11709.988298	1452.191667	1097.261719	98.203430
11709.988298	1452.191667	1096.120117	19.459158
11709.988298	1452.191667	1094.977539	140.130676
11709.988298	1452.191667	1093.834961	111.056564
11709.988298	1452.191667	1092.691406	77.263885
11709.988298	1452.191667	1091.548828	129.906525
11709.988298	1452.191667	1090.405273	-0.623515
11709.988298	1452.191667	1089.261719	69.740479
11709.988298	1452.191667	1088.118164	73.962891
11709.988298	1452.191667	1086.973633	193.263062
11709.988298	1452.191667	1085.829102	27.034462
11709.988298	1452.191667	1084.684570	-13.191624
11709.988298	1452.191667	1083.540039	-0.557238
11709.988298	1452.191667	1082.395508	56.507488
11709.988298	1452.191667	1081.250000	12.318454
11709.988298	1452.191667	1080.104492	52.557858
11709.988298	1452.191667	1078.958984	32.782883
11709.988298	1452.191667	1077.812500	69.761017
11709.988298	1452.191667	1076.666016	-4.356209
11709.988298	1452.191667	1075.519531	81.074829
11709.988298	1452.191667	1074.373047	152.584961
11709.988298	1452.191667	1073.226563	73.320259
11709.988298	1452.191667	1072.079102	109.271713
11709.988298	1452.191667	1070.931641	-7.257607
11709.988298	1452.191667	1069.784180	-49.198784
11709.988298	1452.191667	1068.635742	67.065086
11709.988298	1452.191667	1067.487305	218.440186
11709.988298	1452.191667	1066.338867	268.916809
11709.988298	1452.191667	1065.190430	63.005856
11709.988298	1452.191667	1064.041992	61.533546
11709.988298	1452.191667	1062.892578	267.170380
11709.988298	1452.191667	1061.743164	180.218719
11709.988298	1452.191667	1060.593750	43.277737
11709.988298	1452.191667	1059.443359	120.847481
11709.988298	1452.191667	1058.292969	106.140022
11709.988298	1452.191667	1057.142578	-21.833298
11709.988298	1452.191667	1055.992188	111.519440
11709.988298	1452.191667	1054.841797	130.614868
11709.988298	1452.191667	1053.690430	164.212646
11709.988298	1452.191667	1052.539063	54.848244
11709.988298	1452.191667	1051.387695	-25.903015
11709.988298	1452.191667	1050.235352	48.703819
11709.988298	1452.191667	1049.083984	147.783722
11709.988298	1452.191667	1047.931641	126.515396
11709.988298	1452.191667	1046.778320	69.627441
11709.988298	1452.191667	1045.625977	-2.746474
11709.988298	1452.191667	1044.472656	-65.966339
11709.988298	1452.191667	1043.319336	15.606064
11709.988298	1452.191667	1042.166016	135.143738
11709.988298	1452.191667	1041.012695	222.483261
11709.988298	1452.191667	1039.858398	56.713154
11709.988298	1452.191667	1038.704102	163.010788
11709.988298	1452.191667	1037.549805	-10.494270
11709.988298	1452.191667	1036.394531	23.630171
11709.988298	1452.191667	1035.239258	142.740295
11709.988298	1452.191667	1034.083984	81.565750
11709.988298	1452.191667	1032.928711	-44.975311
11709.988298	1452.191667	1031.773438	-85.185448
11709.988298	1452.191667	1030.617188	-25.352308
11709.988298	1452.191667	1029.460938	-55.144970
11709.988298	1452.191667	1028.304688	21.246321
11709.988298	1452.191667	1027.147461	4.486982
11709.988298	1452.191667	1025.991211	71.011345
11709.988298	1452.191667	1024.833984	69.940582
11709.988298	1452.191667	1023.675781	70.790924
11709.988298	1452.191667	1022.518555	50.084740
11709.988298	1452.191667	1021.360352	216.011917
11709.988298	1452.191667	1020.202148	12.713618
11709.988298	1452.191667	1019.043945	36.635853
11709.988298	1452.191667	1017.884766	78.360382
11709.988298	1452.191667	1016.726563	41.251099
11709.988298	1452.191667	1015.567383	47.990856
11709.988298	1452.191667	1014.407227	5.343460
11709.988298	1452.191667	1013.248047	148.013275
11709.988298	1452.191667	1012.087891	77.557526
11709.988298	1452.191667	1010.927734	58.989647
11709.988298	1452.191667	1009.767578	49.990028
11709.988298	1452.191667	1008.606445	-28.030136
11709.988298	1452.191667	1007.446289	38.805599
11709.988298	1452.191667	1006.285156	-123.516525
11709.988298	1452.191667	1005.123047	-110.039314
11709.988298	1452.191667	1003.961914	18.693859
11709.988298	1452.191667	1002.799805	64.959663
11709.988298	1452.191667	1001.637695	59.659382
11709.988298	1452.191667	1000.475586	84.695091
11709.988298	1452.191667	999.312500	109.258606
11709.988298	1452.191667	998.149414	-79.746277
11709.988298	1452.191667	996.986328	-63.018063
11709.988298	1452.191667	995.823242	52.776955
11709.988298	1452.191667	994.659180	109.393517
11709.988298	1452.191667	993.496094	-12.197231
11709.988298	1452.191667	992.332031	143.133591
11709.988298	1452.191667	991.166992	-71.394630
11709.988298	1452.191667	990.002930	-34.536209
11709.988298	1452.191667	988.837891	-110.364532
11709.988298	1452.191667	987.672852	35.835400
11709.988298	1452.191667	986.506836	9.787441
11709.988298	1452.191667	985.341797	59.759865
11709.988298	1452.191667	984.175781	173.620560
11709.988298	1452.191667	983.009766	-26.324102
11709.988298	1452.191667	981.843750	17.972492
11709.988298	1452.191667	980.676758	30.985102
11709.988298	1452.191667	979.509766	3.096811
11709.988298	1452.191667	978.342773	-80.356712
11709.988298	1452.191667	977.175781	151.614517
11709.988298	1452.191667	976.007813	131.167801
11709.988298	1452.191667	974.839844	-46.701412
11709.988298	1452.191667	973.671875	-2.063203
11709.988298	1452.191667	972.503906	14.009411
11709.988298	1452.191667	971.334961	-48.063622
11709.988298	1452.191667	970.166016	3.688306
11709.988298	1452.191667	968.997070	105.177040
11709.988298	1452.191667	967.828125	-27.377964
11709.988298	1452.191667	966.658203	3.217611
11709.988298	1452.191667	965.488281	-54.826321
11709.988298	1452.191667	964.318359	-19.724871
11709.988298	1452.191667	963.148438	45.878628
11709.988298	1452.191667	961.977539	-15.623324
11709.988298	1452.191667	960.806641	194.956284
11709.988298	1452.191667	959.635742	72.618660
11709.988298	1452.191667	958.463867	117.835358
11709.988298	1452.191667	957.292969	80.619949
11709.988298	1452.191667	956.121094	59.625782
11709.988298	1452.191667	954.948242	71.153809
11709.988298	1452.191667	953.776367	50.073631
11709.988298	1452.191667	952.603516	89.716248
11709.988298	1452.191667	951.430664	9.747781
11709.988298	1452.191667	950.257813	54.351051
11709.988298	1452.191667	949.084961	-85.461525
11709.988298	1452.191667	947.911133	-82.774162
11709.988298	1452.191667	946.737305	80.602730
11709.988298	1452.191667	945.563477	69.024338
11709.988298	1452.191667	944.388672	40.740402
11709.988298	1452.191667	943.213867	103.837997
11709.988298	1452.191667	942.039063	85.283142
11709.988298	1452.191667	940.864258	47.862656
11709.988298	1452.191667	939.688477	120.354073
11709.988298	1452.191667	938.513672	241.448029
11709.988298	1452.191667	937.337891	34.078293
11709.988298	1452.191667	936.161133	199.614151
11709.988298	1452.191667	934.985352	-3.442165
11709.988298	1452.191667	933.808594	-33.773182
11709.988298	1452.191667	932.631836	269.209717
11709.988298	1452.191667	931.454102	171.277145
11709.988298	1452.191667	930.277344	126.936752
11709.988298	1452.191667	929.099609	59.274986
11709.988298	1452.191667	927.921875	133.740845
11709.988298	1452.191667	926.743164	152.267487
11709.988298	1452.191667	925.565430	131.195633
11709.988298	1452.191667	924.386719	77.498383
11709.988298	1452.191667	923.208008	0.541254
11709.988298	1452.191667	922.028320	100.537155
11709.988298	1452.191667	920.849609	198.158417
11709.988298	1452.191667	919.669922	199.151962
11709.988298	1452.191667	919.474609	86.445541
11709.988298	1452.191667	918.309570	95.583817
11709.988298	1452.191667	917.143555	-53.476383
11709.988298	1452.191667	915.977539	-93.170296
11709.988298	1452.191667	914.810547	-56.118565
11709.988298	1452.191667	913.644531	-40.014042
11709.988298	1452.191667	912.477539	-93.654808
11709.988298	1452.191667	911.310547	33.985348
11709.988298	1452.191667	910.143555	-87.043152
11709.988298	1452.191667	908.975586	24.269869
11709.988298	1452.191667	907.807617	193.592712
11709.988298	1452.191667	906.639648	23.823479
11709.988298	1452.191667	905.471680	141.990112
11709.988298	1452.191667	904.303711	-127.519089
11709.988298	1452.191667	903.134766	-25.626102
11709.988298	1452.191667	901.965820	-51.388199
11709.988298	1452.191667	900.796875	-33.072842
11709.988298	1452.191667	899.626953	115.104988
11709.988298	1452.191667	898.457031	96.268692
11709.988298	1452.191667	897.287109	-29.205648
11709.988298	1452.191667	896.117188	-61.923393
11709.988298	1452.191667	894.947266	-168.786789
11709.988298	1452.191667	893.776367	-25.393656
11709.988298	1452.191667	892.605469	92.455574
11709.988298	1452.191667	891.434570	99.088638
11709.988298	1452.191667	890.262695	22.359818
11709.988298	1452.191667	889.091797	149.370865
11709.988298	1452.191667	887.919922	128.199890
11709.988298	1452.191667	886.748047	81.578690
11709.988298	1452.191667	885.575195	-32.119896
11709.988298	1452.191667	884.403320	34.640453
11709.988298	1452.191667	883.230469	-44.322937
11709.988298	1452.191667	882.057617	91.766670
11709.988298	1452.191667	880.883789	33.619957
11709.988298	1452.191667	879.710938	123.405594
11709.988298	1452.191667	878.537109	-29.471731
11709.988298	1452.191667	877.362305	-85.261009
11709.988298	1452.191667	876.188477	-122.554779
11709.988298	1452.191667	875.013672	-37.445469
11709.988298	1452.191667	873.839844	52.241482
11709.988298	1452.191667	872.664063	8.005559
11709.988298	1452.191667	871.489258	-43.140930
11709.988298	1452.191667	870.313477	-126.572685
11709.988298	1452.191667	869.138672	18.408314
11709.988298	1452.191667	867.962891	43.391697
11709.988298	1452.191667	866.786133	-76.914513
11709.988298	1452.191667	865.610352	-74.985153
11709.988298	1452.191667	864.433594	81.375839
11709.988298	1452.191667	863.256836	-27.353624
11709.988298	1452.191667	862.079102	101.277260
11709.988298	1452.191667	860.902344	38.651573
11709.988298	1452.191667	859.724609	-0.920897
11709.988298	1452.191667	858.546875	-130.284500
11709.988298	1452.191667	857.368164	16.663399
11709.988298	1452.191667	856.190430	-34.401142
11709.988298	1452.191667	855.011719	-41.724525
11709.988298	1452.191667	853.833008	-76.658432
11709.988298	1452.191667	852.654297	-132.284912
11709.988298	1452.191667	851.474609	14.491802
11709.988298	1452.191667	850.294922	83.026566
11709.988298	1452.191667	849.115234	22.791519
11709.988298	1452.191667	847.935547	-131.658188
11709.988298	1452.191667	846.754883	-35.573040
11709.988298	1452.191667	845.575195	101.821709
11709.988298	1452.191667	844.393555	92.149239
11709.988298	1452.191667	843.212891	-117.321152
11709.988298	1452.191667	842.032227	91.169823
11709.988298	1452.191667	840.850586	-3.444750
11709.988298	1452.191667	839.668945	35.090881
11709.988298	1452.191667	838.486328	52.954914
11709.988298	1452.191667	837.304688	-18.666277
11709.988298	1452.191667	836.122070	-35.213612
11709.988298	1452.191667	834.939453	30.796198
11709.988298	1452.191667	833.756836	-49.961636
11709.988298	1452.191667	832.573242	-71.092163
11709.988298	1452.191667	831.389648	15.495337
11709.988298	1452.191667	830.206055	8.097640
11709.988298	1452.191667	829.022461	55.677544
11709.988298	1452.191667	827.838867	29.940523
11709.988298	1452.191667	826.654297	29.397699
11709.988298	1452.191667	825.469727	97.532364
11709.988298	1452.191667	824.284180	48.896152
11709.988298	1452.191667	823.099609	23.158897
11709.988298	1452.191667	821.914063	59.202782
11709.988298	1452.191667	820.728516	129.538437
11709.988298	1452.191667	819.542969	71.762917
11709.988298	1452.191667	818.356445	-29.440844
11709.988298	1452.191667	817.169922	24.847958
11709.988298	1452.191667	815.983398	10.537392
11709.988298	1452.191667	814.796875	-38.051876
11709.988298	1452.191667	813.609375	36.747440
11709.988298	1452.191667	812.422852	63.538338
11709.988298	1452.191667	811.235352	-71.836197
11709.988298	1452.191667	810.046875	-88.430519
11709.988298	1452.191667	808.859375	-89.046394
11709.988298	1452.191667	807.670898	-2.939507
11709.988298	1452.191667	806.482422	-88.018143
11709.988298	1452.191667	805.293945	-109.189690
11709.988298	1452.191667	804.104492	-68.775215
11709.988298	1452.191667	802.915039	-58.032120
11709.988298	1452.191667	801.725586	41.617554
11709.988298	1452.191667	800.536133	154.894333
11709.988298	1452.191667	799.345703	-30.440374
11709.988298	1452.191667	798.155273	-12.913968
11709.988298	1452.191667	796.964844	18.264387
11709.988298	1452.191667	795.774414	-198.842499
11709.988298	1452.191667	794.583008	16.793322
11709.988298	1452.191667	793.392578	-40.874382
11709.988298	1452.191667	792.200195	140.475922
11709.988298	1452.191667	791.008789	-42.380516
11709.988298	1452.191667	789.816406	-104.581490
11709.988298	1452.191667	788.625000	108.484528
11709.988298	1452.191667	787.432617	64.451202
11709.988298	1452.191667	786.239258	131.844177
11709.988298	1452.191667	785.046875	101.441513
11709.988298	1452.191667	783.853516	61.948608
11709.988298	1452.191667	782.660156	61.091545
11709.988298	1452.191667	781.465820	78.399132
11709.988298	1452.191667	780.272461	18.455187
11709.988298	1452.191667	779.078125	19.841946
11709.988298	1452.191667	777.883789	84.791389
11709.988298	1452.191667	776.688477	61.166756
11709.988298	1452.191667	775.494141	171.446457
11709.988298	1452.191667	774.298828	13.906973
11709.988298	1452.191667	773.103516	24.301811
11709.988298	1452.191667	771.907227	52.823746
11709.988298	1452.191667	770.711914	58.642185
11709.988298	1452.191667	769.515625	-12.643241
11709.988298	1452.191667	768.318359	-79.379967
11709.988298	1452.191667	767.122070	171.181076
11709.988298	1452.191667	765.924805	81.744896
11709.988298	1452.191667	764.727539	12.718886
11709.988298	1452.191667	763.530273	7.123308
11709.988298	1452.191667	762.333008	33.216217
11709.988298	1452.191667	761.134766	-33.540688
11709.988298	1452.191667	759.936523	-16.537350
11709.988298	1452.191667	758.738281	34.388088
11709.988298	1452.191667	757.540039	28.710974
11709.988298	1452.191667	756.340820	-19.960577
11709.988298	1452.191667	755.141602	-73.152199
11709.988298	1452.191667	753.942383	88.468376
11709.988298	1452.191667	752.742188	28.457956
11709.988298	1452.191667	751.541992	-4.423899
11709.988298	1452.191667	750.341797	129.909958
11709.988298	1452.191667	749.141602	169.279587
11709.988298	1452.191667	747.941406	30.169617
11709.988298	1452.191667	746.740234	6.272008
11709.988298	1452.191667	745.539063	99.772675
11709.988298	1452.191667	744.337891	125.493126
11709.988298	1452.191667	743.135742	27.053051
11709.988298	1452.191667	741.933594	5.352252
11709.988298	1452.191667	740.731445	218.259125
11709.988298	1452.191667	739.529297	144.608887
11709.988298	1452.191667	738.326172	194.994263
11709.988298	1452.191667	737.124023	89.773430
11709.988298	1452.191667	735.919922	475.962402
11709.988298	1452.191667	734.716797	492.377167
11709.988298	1452.191667	733.513672	481.724731
11709.988298	1452.191667	732.309570	446.274994
11709.988298	1452.191667	731.105469	507.660858
11709.988298	1452.191667	729.900391	366.342621
11709.988298	1452.191667	728.696289	227.311478
11709.988298	1452.191667	727.491211	387.668488
11709.988298	1452.191667	726.286133	313.902069
11709.988298	1452.191667	725.080078	208.643829
11709.988298	1452.191667	723.874023	123.649811
11709.988298	1452.191667	722.668945	144.364609
11709.988298	1452.191667	721.461914	102.089233
11709.988298	1452.191667	720.255859	-50.343037
11709.988298	1452.191667	719.048828	-2.711809
11709.988298	1452.191667	717.841797	134.754684
11709.988298	1452.191667	716.634766	7.045484
11709.988298	1452.191667	715.427734	-91.437798
11709.988298	1452.191667	714.219727	5.460229
11709.988298	1452.191667	713.011719	75.349800
11709.988298	1452.191667	711.803711	-52.347912
11709.988298	1452.191667	710.594727	-61.077198
11709.988298	1452.191667	709.385742	-81.049034
11709.988298	1452.191667	708.176758	-101.040497
11709.988298	1452.191667	706.967773	20.243629
11709.988298	1452.191667	705.758789	143.690826
11709.988298	1452.191667	704.548828	0.278574
11709.988298	1452.191667	703.338867	49.655407
11709.988298	1452.191667	702.127930	45.200146
11709.988298	1452.191667	700.917969	13.833242
11709.988298	1452.191667	699.707031	-51.149883
11709.988298	1452.191667	698.496094	31.670881
11709.988298	1452.191667	697.285156	-22.152893
11709.988298	1452.191667	696.073242	-4.351858
11709.988298	1452.191667	694.861328	35.793003
11709.988298	1452.191667	693.649414	-29.277075
11709.988298	1452.191667	692.436523	77.907875
11709.988298	1452.191667	691.224609	-38.648273
11709.988298	1452.191667	690.011719	-7.598689
11709.988298	1452.191667	688.798828	90.478416
11709.988298	1452.191667	687.584961	99.071983
11709.988298	1452.191667	686.372070	9.300838
11709.988298	1452.191667	685.158203	33.484776
11709.988298	1452.191667	683.943359	-152.355911
11709.988298	1452.191667	682.729492	86.192703
11709.988298	1452.191667	681.514648	25.397532
11709.988298	1452.191667	680.299805	207.931564
11709.988298	1452.191667	679.084961	138.144272
11709.988298	1452.191667	677.869141	159.843796
11709.988298	1452.191667	676.653320	63.256878
11709.988298	1452.191667	675.437500	53.670059
11709.988298	1452.191667	674.221680	28.443100
11709.988298	1452.191667	673.004883	34.407471
11709.988298	1452.191667	671.789063	234.272980
11709.988298	1452.191667	670.571289	-13.945812
11709.988298	1452.191667	669.354492	56.542049
11709.988298	1452.191667	668.136719	6.667068
11709.988298	1452.191667	666.919922	-18.718616
11709.988298	1452.191667	665.701172	91.703934
11709.988298	1452.191667	664.483398	37.299767
11709.988298	1452.191667	663.264648	63.013836
11709.988298	1452.191667	662.045898	191.051331
11709.988298	1452.191667	660.827148	96.508896
11709.988298	1452.191667	659.608398	135.439240
11709.988298	1452.191667	658.388672	107.598412
11709.988298	1452.191667	657.168945	93.075996
11709.988298	1452.191667	655.949219	34.065350
11709.988298	1452.191667	654.728516	101.729675
11709.988298	1452.191667	653.507813	122.667450
11709.988298	1452.191667	652.287109	136.897736
11709.988298	1452.191667	651.066406	146.645172
11709.988298	1452.191667	649.844727	83.069473
11709.988298	1452.191667	648.623047	-58.220989
11709.988298	1452.191667	647.401367	168.993561
11709.988298	1452.191667	646.179688	218.534958
11709.988298	1452.191667	644.957031	121.577492
11709.988298	1452.191667	643.734375	71.212570
11709.988298	1452.191667	642.511719	98.460800
11709.988298	1452.191667	641.289063	132.315903
11709.988298	1452.191667	640.065430	68.575142
11709.988298	1452.191667	638.841797	157.764175
11709.988298	1452.191667	637.618164	100.625763
11709.988298	1452.191667	636.393555	105.510834
11709.988298	1452.191667	635.168945	117.005676
11709.988298	1452.191667	633.944336	128.461990
11709.988298	1452.191667	632.719727	157.593781
11709.988298	1452.191667	631.494141	284.078064
11709.988298	1452.191667	630.269531	45.302956
11709.988298	1452.191667	629.042969	109.733215
11709.988298	1452.191667	627.817383	127.649040
11709.988298	1452.191667	626.590820	167.640076
11709.988298	1452.191667	625.365234	-4.701759
11709.988298	1452.191667	624.137695	123.667183
11709.988298	1452.191667	622.911133	11.021056
11709.988298	1452.191667	621.683594	-37.523796
11709.988298	1452.191667	620.456055	8.925945
11709.988298	1452.191667	619.228516	77.413979
11709.988298	1452.191667	618.000977	-28.629282
11709.988298	1452.191667	616.772461	28.732767
11709.988298	1452.191667	615.543945	-72.904274
11709.988298	1452.191667	614.314453	-50.933910
11709.988298	1452.191667	613.085938	10.718287
11709.988298	1452.191667	611.856445	182.619522
11709.988298	1452.191667	610.626953	1.508583
11709.988298	1452.191667	609.397461	107.123573
11709.988298	1452.191667	608.166992	16.438595
11709.988298	1452.191667	606.936523	102.106110
11709.988298	1452.191667	605.706055	24.626928
11709.988298	1452.191667	604.474609	-79.290993
11709.988298	1452.191667	603.244141	61.329525
11709.988298	1452.191667	602.012695	-49.214115
11709.988298	1452.191667	600.780273	-14.413312
11709.988298	1452.191667	599.548828	15.946078
11709.988298	1452.191667	598.316406	-32.973408
11709.988298	1452.191667	597.083984	-103.903351
11709.988298	1452.191667	595.851563	-62.625092
11709.988298	1452.191667	594.618164	-71.984001
11709.988298	1452.191667	593.384766	-123.147125
11709.988298	1452.191667	592.151367	-92.962669
11709.988298	1452.191667	590.917969	-115.571823
11709.988298	1452.191667	589.683594	13.444660
11709.988298	1452.191667	588.449219	-24.608477
11709.988298	1452.191667	587.214844	-31.913406
11709.988298	1452.191667	585.979492	59.593620
11709.988298	1452.191667	584.745117	-11.450359
11709.988298	1452.191667	583.509766	22.889807
11709.988298	1452.191667	582.273438	76.945114
11709.988298	1452.191667	581.038086	21.237474
11709.988298	1452.191667	579.801758	29.155586
11709.988298	1452.191667	578.565430	21.696264
11709.988298	1452.191667	577.329102	1.062156
11709.988298	1452.191667	576.091797	96.622131
11709.988298	1452.191667	574.854492	36.482922
11709.988298	1452.191667	573.617188	-10.498500
11709.988298	1452.191667	572.378906	166.019363
11709.988298	1452.191667	571.141602	171.573334
11709.988298	1452.191667	569.903320	10.647180
11709.988298	1452.191667	568.664063	-34.171207
11709.988298	1452.191667	567.425781	129.001755
11709.988298	1452.191667	566.186523	147.623413
11709.988298	1452.191667	564.947266	10.849473
11709.988298	1452.191667	563.708008	176.050598
11709.988298	1452.191667	562.467773	-0.074813
11709.988298	1452.191667	561.227539	90.672440
11709.988298	1452.191667	559.987305	-32.907753
11709.988298	1452.191667	558.747070	197.690552
11709.988298	1452.191667	557.505859	-2.379688
11709.988298	1452.191667	556.264648	16.134983
11709.988298	1452.191667	555.023438	84.879181
11709.988298	1452.191667	553.781250	-47.361801
11709.988298	1452.191667	552.539063	99.958466
11709.988298	1452.191667	551.296875	55.083725
11709.988298	1452.191667	550.054688	95.348557
11709.988298	1452.191667	548.811523	-65.184921
11709.988298	1452.191667	547.569336	73.257767
11709.988298	1452.191667	546.325195	115.649429
11709.988298	1452.191667	545.082031	134.031113
11709.988298	1452.191667	543.837891	52.097778
11709.988298	1452.191667	542.593750	109.713272
11709.988298	1452.191667	541.349609	-96.417732
11709.988298	1452.191667	540.105469	-75.844452
11709.988298	1452.191667	538.860352	101.570900
11709.988298	1452.191667	537.615234	-34.736546
11709.988298	1452.191667	536.369141	55.482822
11709.988298	1452.191667	535.124023	126.072800
11709.988298	1452.191667	533.877930	-31.923536
11709.988298	1452.191667	532.631836	-22.282511
11709.988298	1452.191667	531.384766	-73.568489
11709.988298	1452.191667	530.138672	-57.393272
11709.988298	1452.191667	528.891602	-73.848076
11709.988298	1452.191667	527.643555	129.313736
11709.988298	1452.191667	526.396484	82.397797
11709.988298	1452.191667	525.148438	0.727927
11709.988298	1452.191667	523.900391	82.069252
11709.988298	1452.191667	522.652344	61.273342
11709.988298	1452.191667	521.403320	-65.940514
11709.988298	1452.191667	520.154297	102.238174
11709.988298	1452.191667	518.905273	127.059372
11709.988298	1452.191667	517.656250	-93.404686
11709.988298	1452.191667	516.406250	-9.946941
11709.988298	1452.191667	515.156250	14.900246
11709.988298	1452.191667	513.906250	106.991776
11709.988298	1452.191667	512.655273	-85.059540
11709.988298	1452.191667	511.404297	22.206053
11709.988298	1452.191667	510.153320	-20.145657
11709.988298	1452.191667	508.902344	22.058041
11709.988298	1452.191667	507.650391	29.579828
11709.988298	1452.191667	506.398438	108.601036
11709.988298	1452.191667	505.146484	-44.159798
11709.988298	1452.191667	503.893555	15.372009
11709.988298	1452.191667	502.641602	116.028366
11709.988298	1452.191667	501.388672	19.673649
11709.988298	1452.191667	500.134766	83.512680
11709.988298	1452.191667	498.881836	19.684364
11709.988298	1452.191667	497.627930	1.318699
11709.988298	1452.191667	496.374023	-190.043396
11709.988298	1452.191667	495.119141	-22.381540
11709.988298	1452.191667	493.865234	-118.513565
11709.988298	1452.191667	492.610352	-61.141521
11709.988298	1452.191667	491.355469	-62.125046
11709.988298	1452.191667	490.099609	18.996109
11709.988298	1452.191667	488.843750	11.537527
11709.988298	1452.191667	487.587891	12.732518
11709.988298	1452.191667	486.332031	-5.491792
11709.988298	1452.191667	485.075195	41.056198
11709.988298	1452.191667	483.818359	160.970200
11709.988298	1452.191667	482.561523	250.637680
11709.988298	1452.191667	481.304688	66.322533
11709.988298	1452.191667	480.046875	43.844654
11709.988298	1452.191667	478.789063	55.886436
11709.988298	1452.191667	477.531250	-65.722450
11709.988298	1452.191667	476.272461	51.962814
11709.988298	1452.191667	475.013672	130.820236
11709.988298	1452.191667	473.754883	207.498215
11709.988298	1452.191667	472.496094	131.226151
11709.988298	1452.191667	471.236328	166.969208
11709.988298	1452.191667	469.976563	34.774590
11709.988298	1452.191667	468.716797	135.110321
11709.988298	1452.191667	467.456055	56.788593
11709.988298	1452.191667	466.196289	208.724121
11709.988298	1452.191667	464.935547	201.414032
11709.988298	1452.191667	463.673828	163.998962
11709.988298	1452.191667	462.413086	173.907623
11709.988298	1452.191667	461.151367	278.396729
11709.988298	1452.191667	459.889648	350.601349
11709.988298	1452.191667	458.626953	167.067673
11709.988298	1452.191667	457.364258	168.364227
11709.988298	1452.191667	456.101563	274.899353
11709.988298	1452.191667	454.838867	329.846436
11709.988298	1452.191667	453.575195	215.153671
11709.988298	1452.191667	452.312500	248.609573
11709.988298	1452.191667	451.047852	292.764221
11709.988298	1452.191667	449.784180	491.367889
11709.988298	1452.191667	448.519531	82.819603
11709.988298	1452.191667	447.254883	180.554550
11709.988298	1452.191667	445.990234	336.121063
11709.988298	1452.191667	444.725586	202.206528
11709.988298	1452.191667	443.459961	269.784821
11709.988298	1452.191667	442.194336	240.887009
11709.988298	1452.191667	440.927734	143.419800
11709.988298	1452.191667	439.662109	157.342468
11709.988298	1452.191667	438.395508	119.832420
11709.988298	1452.191667	437.127930	339.206787
11709.988298	1452.191667	435.861328	327.287994
11709.988298	1452.191667	434.593750	225.453659
11709.988298	1452.191667	433.326172	243.432022
11709.988298	1452.191667	432.058594	231.410507
11709.988298	1452.191667	430.790039	80.335831
11709.988298	1452.191667	429.521484	181.569809
11709.988298	1452.191667	428.252930	310.494354
11709.988298	1452.191667	426.984375	261.918488
11709.988298	1452.191667	425.714844	298.765839
11709.988298	1452.191667	424.445313	380.392517
11709.988298	1452.191667	423.174805	378.614410
11709.988298	1452.191667	421.905273	265.729492
11709.988298	1452.191667	420.634766	225.396973
11709.988298	1452.191667	419.364258	234.090302
11709.988298	1452.191667	418.092773	246.957047
11709.988298	1452.191667	416.822266	261.863617
11709.988298	1452.191667	415.550781	344.919708
11709.988298	1452.191667	414.278320	353.195557
11709.988298	1452.191667	413.006836	261.158081
11709.988298	1452.191667	411.734375	260.704712
11709.988298	1452.191667	410.461914	311.282532
11709.988298	1452.191667	409.188477	308.444214
11709.988298	1452.191667	407.916016	409.865356
11709.988298	1452.191667	406.642578	306.646576
11709.988298	1452.191667	405.368164	239.526825
11709.988298	1452.191667	404.094727	302.154388
11709.988298	1452.191667	402.820313	179.429062
11709.988298	1452.191667	401.545898	182.145584
11709.988298	1452.191667	400.270508	284.680878
11709.988298	1452.191667	398.996094	248.749878
11709.988298	1452.191667	397.720703	159.487030
11709.988298	1452.191667	396.444336	401.738342
11709.988298	1452.191667	395.168945	250.458191
11709.988298	1452.191667	393.892578	122.412949
11709.988298	1452.191667	392.616211	253.425201
11709.988298	1452.191667	391.339844	76.151108
11709.988298	1452.191667	390.062500	34.642597
11709.988298	1452.191667	388.785156	249.837341
11709.988298	1452.191667	387.507813	241.797592
11709.988298	1452.191667	386.229492	320.519867
11709.988298	1452.191667	384.951172	248.290375
11709.988298	1452.191667	383.672852	218.250732
11709.988298	1452.191667	382.394531	226.121521
11709.988298	1452.191667	381.115234	187.040085
11709.988298	1452.191667	379.835938	126.474068
11709.988298	1452.191667	378.556641	224.594482
11709.988298	1452.191667	377.277344	157.057465
11709.988298	1452.191667	375.997070	301.077484
11709.988298	1452.191667	374.716797	264.642639
11709.988298	1452.191667	373.435547	145.266159
11709.988298	1452.191667	372.155273	169.560883
11709.988298	1452.191667	370.874023	250.611984
11709.988298	1452.191667	369.591797	242.338272
11709.988298	1452.191667	368.310547	149.038010
11709.988298	1452.191667	367.028320	131.508133
11709.988298	1452.191667	365.746094	202.385605
11709.988298	1452.191667	364.463867	-48.620506
11709.988298	1452.191667	363.180664	236.990463
11709.988298	1452.191667	361.897461	128.872650
11709.988298	1452.191667	360.614258	28.769321
11709.988298	1452.191667	359.330078	198.621506
11709.988298	1452.191667	358.045898	-39.777901
11709.988298	1452.191667	356.761719	-35.749577
11709.988298	1452.191667	355.477539	121.856697
11709.988298	1452.191667	354.192383	-94.804688
11709.988298	1452.191667	352.907227	150.226349
11709.988298	1452.191667	351.622070	141.362183
11709.988298	1452.191667	350.336914	199.391769
11709.988298	1452.191667	349.050781	50.065907
11709.988298	1452.191667	347.764648	-32.370350
11709.988298	1452.191667	346.477539	27.895990
11709.988298	1452.191667	345.191406	79.036774
11709.988298	1452.191667	343.904297	-129.750366
11709.988298	1452.191667	342.616211	75.833870
11709.988298	1452.191667	341.329102	-22.698797
11709.988298	1452.191667	340.041016	48.596790
11709.988298	1452.191667	338.752930	146.445053
11709.988298	1452.191667	337.463867	180.276276
11709.988298	1452.191667	336.175781	135.421127
11709.988298	1452.191667	334.886719	11.866661
11709.988298	1452.191667	333.596680	26.301043
11709.988298	1452.191667	332.307617	23.031538
11709.988298	1452.191667	331.017578	142.872513
11709.988298	1452.191667	329.727539	-43.091492
11709.988298	1452.191667	328.436523	28.536608
11709.988298	1452.191667	327.146484	10.915477
11709.988298	1452.191667	325.855469	76.287468
11709.988298	1452.191667	324.563477	6.138897
11709.988298	1452.191667	323.272461	39.969898
11709.988298	1452.191667	321.980469	49.566002
11709.988298	1452.191667	320.688477	-111.980156
11709.988298	1452.191667	319.395508	-43.810356
11709.988298	1452.191667	318.103516	-58.642525
11709.988298	1452.191667	316.810547	-108.272232
11709.988298	1452.191667	315.516602	6.513765
11709.988298	1452.191667	314.223633	-33.041138
11709.988298	1452.191667	312.929688	24.604052
11709.988298	1452.191667	311.635742	53.646362
11709.988298	1452.191667	310.340820	-52.823818
11709.988298	1452.191667	309.045898	-116.656075
11709.988298	1452.191667	307.750977	172.050171
11709.988298	1452.191667	306.456055	119.957588
11709.988298	1452.191667	305.160156	-9.017589
11709.988298	1452.191667	303.865234	-82.918022
11709.988298	1452.191667	302.568359	80.100296
11709.988298	1452.191667	301.272461	128.514450
11709.988298	1452.191667	299.975586	160.576691
11709.988298	1452.191667	298.678711	186.758591
