#X		#Y		#Wave		#Intensity
11926.897872	1408.121667	1999.980469	-38.566704
11926.897872	1408.121667	1999.016602	-143.886581
11926.897872	1408.121667	1998.052734	12.243764
11926.897872	1408.121667	1997.087891	91.432709
11926.897872	1408.121667	1996.123047	51.603107
11926.897872	1408.121667	1995.158203	-102.223312
11926.897872	1408.121667	1994.193359	-30.666441
11926.897872	1408.121667	1993.228516	-95.388695
11926.897872	1408.121667	1992.262695	174.096756
11926.897872	1408.121667	1991.297852	-24.417746
11926.897872	1408.121667	1990.332031	49.331234
11926.897872	1408.121667	1989.366211	174.965485
11926.897872	1408.121667	1988.399414	-90.385429
11926.897872	1408.121667	1987.433594	84.602867
11926.897872	1408.121667	1986.466797	-15.030828
11926.897872	1408.121667	1985.500977	16.376360
11926.897872	1408.121667	1984.534180	72.450882
11926.897872	1408.121667	1983.567383	46.896194
11926.897872	1408.121667	1982.599609	-10.815303
11926.897872	1408.121667	1981.632813	-117.960938
11926.897872	1408.121667	1980.665039	66.393898
11926.897872	1408.121667	1979.697266	45.644615
11926.897872	1408.121667	1978.729492	-49.215389
11926.897872	1408.121667	1977.761719	85.537743
11926.897872	1408.121667	1976.792969	146.153381
11926.897872	1408.121667	1975.825195	93.184074
11926.897872	1408.121667	1974.856445	-53.564564
11926.897872	1408.121667	1973.887695	31.620310
11926.897872	1408.121667	1972.918945	-16.455549
11926.897872	1408.121667	1971.949219	-2.885805
11926.897872	1408.121667	1970.980469	114.212341
11926.897872	1408.121667	1970.010742	117.837936
11926.897872	1408.121667	1969.041016	8.055420
11926.897872	1408.121667	1968.071289	196.477554
11926.897872	1408.121667	1967.101563	276.394348
11926.897872	1408.121667	1966.130859	-13.258383
11926.897872	1408.121667	1965.161133	64.161118
11926.897872	1408.121667	1964.190430	82.429802
11926.897872	1408.121667	1963.219727	-2.735548
11926.897872	1408.121667	1962.249023	81.964241
11926.897872	1408.121667	1961.277344	46.016548
11926.897872	1408.121667	1960.306641	-66.217056
11926.897872	1408.121667	1959.334961	200.452682
11926.897872	1408.121667	1958.363281	19.325077
11926.897872	1408.121667	1957.391602	113.694778
11926.897872	1408.121667	1956.419922	13.763667
11926.897872	1408.121667	1955.447266	71.194214
11926.897872	1408.121667	1954.474609	25.355532
11926.897872	1408.121667	1953.501953	149.089081
11926.897872	1408.121667	1952.529297	-22.081057
11926.897872	1408.121667	1951.556641	108.961914
11926.897872	1408.121667	1950.583984	-5.668613
11926.897872	1408.121667	1949.610352	81.098831
11926.897872	1408.121667	1948.636719	145.726593
11926.897872	1408.121667	1947.663086	-67.066521
11926.897872	1408.121667	1946.689453	9.818632
11926.897872	1408.121667	1945.715820	8.143298
11926.897872	1408.121667	1944.741211	170.838211
11926.897872	1408.121667	1943.767578	34.207401
11926.897872	1408.121667	1942.792969	-26.352539
11926.897872	1408.121667	1941.818359	-94.252869
11926.897872	1408.121667	1940.842773	56.055229
11926.897872	1408.121667	1939.868164	69.039833
11926.897872	1408.121667	1938.892578	99.168716
11926.897872	1408.121667	1937.916992	256.691711
11926.897872	1408.121667	1936.941406	-68.447426
11926.897872	1408.121667	1935.965820	-57.917316
11926.897872	1408.121667	1934.990234	35.864899
11926.897872	1408.121667	1934.013672	234.888336
11926.897872	1408.121667	1933.037109	29.928185
11926.897872	1408.121667	1932.060547	1.259153
11926.897872	1408.121667	1931.083984	33.773129
11926.897872	1408.121667	1930.107422	-48.715164
11926.897872	1408.121667	1929.129883	-131.175186
11926.897872	1408.121667	1928.153320	26.066141
11926.897872	1408.121667	1927.175781	43.871864
11926.897872	1408.121667	1926.198242	81.227547
11926.897872	1408.121667	1925.219727	-6.090234
11926.897872	1408.121667	1924.242188	-68.937729
11926.897872	1408.121667	1923.263672	83.252159
11926.897872	1408.121667	1922.285156	88.811134
11926.897872	1408.121667	1921.306641	-22.870007
11926.897872	1408.121667	1920.328125	-127.184174
11926.897872	1408.121667	1919.349609	2.928345
11926.897872	1408.121667	1918.370117	-86.705650
11926.897872	1408.121667	1917.391602	-44.511337
11926.897872	1408.121667	1916.412109	51.350277
11926.897872	1408.121667	1915.431641	-38.242279
11926.897872	1408.121667	1914.452148	30.751106
11926.897872	1408.121667	1913.472656	33.872036
11926.897872	1408.121667	1912.492188	-155.637695
11926.897872	1408.121667	1911.511719	23.046169
11926.897872	1408.121667	1910.531250	11.543335
11926.897872	1408.121667	1909.550781	-12.138827
11926.897872	1408.121667	1908.569336	-52.867935
11926.897872	1408.121667	1907.588867	69.636780
11926.897872	1408.121667	1906.607422	-61.208126
11926.897872	1408.121667	1905.625977	-65.374809
11926.897872	1408.121667	1904.644531	49.761242
11926.897872	1408.121667	1903.662109	-10.410775
11926.897872	1408.121667	1902.680664	-58.390427
11926.897872	1408.121667	1901.698242	-137.984802
11926.897872	1408.121667	1900.715820	35.471577
11926.897872	1408.121667	1899.733398	96.972351
11926.897872	1408.121667	1898.750000	-92.043533
11926.897872	1408.121667	1897.767578	76.446793
11926.897872	1408.121667	1896.784180	6.629375
11926.897872	1408.121667	1895.800781	-48.577412
11926.897872	1408.121667	1894.817383	-33.288372
11926.897872	1408.121667	1893.833984	54.887062
11926.897872	1408.121667	1892.850586	-70.744537
11926.897872	1408.121667	1891.866211	46.550678
11926.897872	1408.121667	1890.881836	-13.466177
11926.897872	1408.121667	1889.897461	118.342514
11926.897872	1408.121667	1888.913086	111.738373
11926.897872	1408.121667	1887.927734	112.417152
11926.897872	1408.121667	1886.943359	23.315195
11926.897872	1408.121667	1885.958008	150.165878
11926.897872	1408.121667	1884.972656	143.559875
11926.897872	1408.121667	1883.987305	156.357895
11926.897872	1408.121667	1883.001953	-27.251181
11926.897872	1408.121667	1882.015625	-87.155151
11926.897872	1408.121667	1881.029297	182.598953
11926.897872	1408.121667	1880.042969	-29.994377
11926.897872	1408.121667	1879.056641	40.969517
11926.897872	1408.121667	1878.070313	19.852804
11926.897872	1408.121667	1877.083984	-170.795822
11926.897872	1408.121667	1876.096680	23.648029
11926.897872	1408.121667	1875.109375	48.542587
11926.897872	1408.121667	1874.122070	-37.922848
11926.897872	1408.121667	1873.134766	47.474716
11926.897872	1408.121667	1872.146484	-2.666208
11926.897872	1408.121667	1871.159180	140.750824
11926.897872	1408.121667	1870.170898	-44.847015
11926.897872	1408.121667	1869.182617	50.151875
11926.897872	1408.121667	1868.194336	157.201935
11926.897872	1408.121667	1867.205078	-62.146702
11926.897872	1408.121667	1866.216797	-25.214556
11926.897872	1408.121667	1865.227539	-130.875290
11926.897872	1408.121667	1864.238281	-48.045113
11926.897872	1408.121667	1863.249023	-32.887287
11926.897872	1408.121667	1862.259766	-179.555801
11926.897872	1408.121667	1861.269531	120.550735
11926.897872	1408.121667	1860.279297	63.228527
11926.897872	1408.121667	1859.290039	-37.525055
11926.897872	1408.121667	1858.298828	148.944595
11926.897872	1408.121667	1857.308594	139.894119
11926.897872	1408.121667	1856.318359	126.017204
11926.897872	1408.121667	1855.327148	59.075832
11926.897872	1408.121667	1854.335938	228.486832
11926.897872	1408.121667	1853.344727	118.141617
11926.897872	1408.121667	1852.353516	17.474073
11926.897872	1408.121667	1851.362305	3.606092
11926.897872	1408.121667	1850.370117	-39.179840
11926.897872	1408.121667	1849.377930	60.192287
11926.897872	1408.121667	1848.385742	-59.683964
11926.897872	1408.121667	1847.393555	-1.300483
11926.897872	1408.121667	1846.401367	71.501236
11926.897872	1408.121667	1845.408203	-17.032490
11926.897872	1408.121667	1844.415039	188.117264
11926.897872	1408.121667	1843.421875	51.448822
11926.897872	1408.121667	1842.428711	-41.865135
11926.897872	1408.121667	1841.435547	172.773346
11926.897872	1408.121667	1840.441406	50.592972
11926.897872	1408.121667	1839.448242	2.998544
11926.897872	1408.121667	1838.454102	75.628822
11926.897872	1408.121667	1837.459961	28.030107
11926.897872	1408.121667	1836.464844	-26.769600
11926.897872	1408.121667	1835.470703	-79.154495
11926.897872	1408.121667	1834.475586	12.621045
11926.897872	1408.121667	1833.480469	49.105804
11926.897872	1408.121667	1832.485352	75.960739
11926.897872	1408.121667	1831.490234	225.254501
11926.897872	1408.121667	1830.495117	199.231552
11926.897872	1408.121667	1829.499023	33.994549
11926.897872	1408.121667	1828.502930	12.796407
11926.897872	1408.121667	1827.506836	284.314697
11926.897872	1408.121667	1826.510742	140.713287
11926.897872	1408.121667	1825.513672	107.483002
11926.897872	1408.121667	1824.517578	184.561615
11926.897872	1408.121667	1823.520508	5.064208
11926.897872	1408.121667	1822.523438	118.066521
11926.897872	1408.121667	1821.526367	3.335488
11926.897872	1408.121667	1820.529297	216.911453
11926.897872	1408.121667	1819.531250	183.635284
11926.897872	1408.121667	1818.533203	112.035408
11926.897872	1408.121667	1817.535156	90.742035
11926.897872	1408.121667	1816.537109	76.627068
11926.897872	1408.121667	1815.539063	67.293388
11926.897872	1408.121667	1814.540039	53.162357
11926.897872	1408.121667	1813.541992	141.923981
11926.897872	1408.121667	1812.542969	8.131085
11926.897872	1408.121667	1811.543945	-113.663864
11926.897872	1408.121667	1810.543945	22.871101
11926.897872	1408.121667	1809.544922	-108.471870
11926.897872	1408.121667	1808.544922	97.315544
11926.897872	1408.121667	1807.544922	78.323456
11926.897872	1408.121667	1806.544922	49.765587
11926.897872	1408.121667	1805.544922	100.054405
11926.897872	1408.121667	1804.544922	114.476402
11926.897872	1408.121667	1803.543945	248.301453
11926.897872	1408.121667	1802.542969	23.856579
11926.897872	1408.121667	1801.541992	35.853062
11926.897872	1408.121667	1800.541016	-16.622784
11926.897872	1408.121667	1799.539063	-2.266938
11926.897872	1408.121667	1798.538086	71.724785
11926.897872	1408.121667	1797.536133	-30.874424
11926.897872	1408.121667	1796.534180	112.237633
11926.897872	1408.121667	1795.532227	40.642387
11926.897872	1408.121667	1794.529297	-59.555408
11926.897872	1408.121667	1793.527344	102.506683
11926.897872	1408.121667	1792.524414	-16.763981
11926.897872	1408.121667	1791.521484	23.659962
11926.897872	1408.121667	1790.518555	37.843853
11926.897872	1408.121667	1789.514648	92.502243
11926.897872	1408.121667	1788.511719	139.980164
11926.897872	1408.121667	1787.507813	-67.372803
11926.897872	1408.121667	1786.503906	68.173943
11926.897872	1408.121667	1785.500000	67.971886
11926.897872	1408.121667	1784.496094	53.474560
11926.897872	1408.121667	1783.491211	127.004845
11926.897872	1408.121667	1782.486328	-68.337463
11926.897872	1408.121667	1781.481445	-6.737972
11926.897872	1408.121667	1780.476563	80.980499
11926.897872	1408.121667	1779.471680	71.165054
11926.897872	1408.121667	1778.465820	-38.507473
11926.897872	1408.121667	1777.460938	-34.069633
11926.897872	1408.121667	1776.455078	-100.940681
11926.897872	1408.121667	1775.449219	-51.387386
11926.897872	1408.121667	1774.442383	119.274353
11926.897872	1408.121667	1773.436523	118.859299
11926.897872	1408.121667	1772.429688	23.445639
11926.897872	1408.121667	1771.422852	155.959549
11926.897872	1408.121667	1770.416016	105.638802
11926.897872	1408.121667	1769.409180	-13.501020
11926.897872	1408.121667	1768.402344	-44.823704
11926.897872	1408.121667	1767.394531	94.648216
11926.897872	1408.121667	1766.386719	-19.731749
11926.897872	1408.121667	1765.378906	122.018326
11926.897872	1408.121667	1764.371094	100.106438
11926.897872	1408.121667	1763.362305	33.145256
11926.897872	1408.121667	1762.354492	89.432350
11926.897872	1408.121667	1761.345703	39.050480
11926.897872	1408.121667	1760.336914	24.205816
11926.897872	1408.121667	1759.328125	-135.136795
11926.897872	1408.121667	1758.318359	-7.888170
11926.897872	1408.121667	1757.308594	-8.563287
11926.897872	1408.121667	1756.299805	92.539276
11926.897872	1408.121667	1755.290039	-21.797705
11926.897872	1408.121667	1754.279297	60.299286
11926.897872	1408.121667	1753.269531	61.907921
11926.897872	1408.121667	1752.258789	37.475937
11926.897872	1408.121667	1751.249023	162.034210
11926.897872	1408.121667	1750.238281	85.536751
11926.897872	1408.121667	1749.226563	-50.054031
11926.897872	1408.121667	1748.215820	-79.243301
11926.897872	1408.121667	1747.204102	28.626017
11926.897872	1408.121667	1746.193359	13.574704
11926.897872	1408.121667	1745.181641	-105.432121
11926.897872	1408.121667	1744.168945	-99.233803
11926.897872	1408.121667	1743.157227	-93.053101
11926.897872	1408.121667	1742.144531	80.735664
11926.897872	1408.121667	1741.132813	-17.017931
11926.897872	1408.121667	1740.120117	-10.909947
11926.897872	1408.121667	1739.106445	51.808174
11926.897872	1408.121667	1738.093750	-22.345425
11926.897872	1408.121667	1737.080078	-25.727633
11926.897872	1408.121667	1736.067383	-29.122978
11926.897872	1408.121667	1735.053711	-39.610077
11926.897872	1408.121667	1734.040039	-76.040367
11926.897872	1408.121667	1733.025391	-62.980267
11926.897872	1408.121667	1732.011719	-82.930481
11926.897872	1408.121667	1730.997070	-48.702637
11926.897872	1408.121667	1729.982422	44.384609
11926.897872	1408.121667	1728.967773	7.888484
11926.897872	1408.121667	1727.952148	-42.739899
11926.897872	1408.121667	1726.937500	-6.256943
11926.897872	1408.121667	1725.921875	-56.895313
11926.897872	1408.121667	1724.906250	-6.337831
11926.897872	1408.121667	1723.890625	-33.459866
11926.897872	1408.121667	1722.875000	129.958435
11926.897872	1408.121667	1721.858398	-104.186104
11926.897872	1408.121667	1720.841797	9.768024
11926.897872	1408.121667	1719.825195	-24.453962
11926.897872	1408.121667	1718.808594	-124.495491
11926.897872	1408.121667	1717.791992	-90.554169
11926.897872	1408.121667	1716.774414	-89.538879
11926.897872	1408.121667	1715.756836	-46.251911
11926.897872	1408.121667	1714.739258	34.584213
11926.897872	1408.121667	1713.721680	-67.797447
11926.897872	1408.121667	1712.704102	31.766836
11926.897872	1408.121667	1711.685547	63.199196
11926.897872	1408.121667	1710.667969	-102.541458
11926.897872	1408.121667	1709.649414	39.165352
11926.897872	1408.121667	1708.630859	-67.884422
11926.897872	1408.121667	1707.611328	92.496948
11926.897872	1408.121667	1706.592773	-98.977615
11926.897872	1408.121667	1705.573242	-77.019753
11926.897872	1408.121667	1704.553711	76.197800
11926.897872	1408.121667	1703.534180	-44.889240
11926.897872	1408.121667	1702.513672	-191.722580
11926.897872	1408.121667	1701.494141	78.539230
11926.897872	1408.121667	1700.473633	60.551670
11926.897872	1408.121667	1699.453125	-76.886757
11926.897872	1408.121667	1698.432617	218.915543
11926.897872	1408.121667	1697.412109	-0.466049
11926.897872	1408.121667	1696.390625	-6.771625
11926.897872	1408.121667	1695.369141	-6.065898
11926.897872	1408.121667	1694.347656	-17.070841
11926.897872	1408.121667	1693.326172	39.759155
11926.897872	1408.121667	1692.304688	169.062958
11926.897872	1408.121667	1691.282227	113.563820
11926.897872	1408.121667	1690.260742	-12.063051
11926.897872	1408.121667	1689.238281	-46.489059
11926.897872	1408.121667	1688.214844	180.843597
11926.897872	1408.121667	1687.192383	90.293312
11926.897872	1408.121667	1686.168945	11.445939
11926.897872	1408.121667	1685.146484	168.535873
11926.897872	1408.121667	1684.123047	178.427795
11926.897872	1408.121667	1683.099609	113.590324
11926.897872	1408.121667	1682.075195	11.415099
11926.897872	1408.121667	1681.051758	140.337265
11926.897872	1408.121667	1680.027344	70.848389
11926.897872	1408.121667	1679.002930	-54.616550
11926.897872	1408.121667	1677.978516	81.214157
11926.897872	1408.121667	1676.953125	49.064651
11926.897872	1408.121667	1675.928711	98.533241
11926.897872	1408.121667	1674.903320	178.278915
11926.897872	1408.121667	1673.877930	227.685898
11926.897872	1408.121667	1672.852539	69.662651
11926.897872	1408.121667	1671.826172	86.436218
11926.897872	1408.121667	1670.800781	47.291489
11926.897872	1408.121667	1669.774414	126.933800
11926.897872	1408.121667	1668.748047	162.296249
11926.897872	1408.121667	1667.721680	279.124207
11926.897872	1408.121667	1666.694336	309.774078
11926.897872	1408.121667	1665.667969	165.866776
11926.897872	1408.121667	1664.640625	168.594910
11926.897872	1408.121667	1663.613281	41.041965
11926.897872	1408.121667	1662.585938	301.957733
11926.897872	1408.121667	1661.557617	241.854385
11926.897872	1408.121667	1660.530273	195.722977
11926.897872	1408.121667	1659.501953	98.463097
11926.897872	1408.121667	1658.473633	145.330673
11926.897872	1408.121667	1657.444336	331.593262
11926.897872	1408.121667	1656.416016	187.889343
11926.897872	1408.121667	1655.386719	69.786034
11926.897872	1408.121667	1654.358398	130.545395
11926.897872	1408.121667	1653.328125	56.606285
11926.897872	1408.121667	1652.298828	221.800385
11926.897872	1408.121667	1651.269531	301.053955
11926.897872	1408.121667	1650.239258	431.324005
11926.897872	1408.121667	1649.208984	290.095947
11926.897872	1408.121667	1648.178711	299.695740
11926.897872	1408.121667	1647.148438	348.716949
11926.897872	1408.121667	1646.117188	430.178070
11926.897872	1408.121667	1645.086914	469.881683
11926.897872	1408.121667	1644.055664	583.736755
11926.897872	1408.121667	1643.024414	549.237427
11926.897872	1408.121667	1641.992188	479.995575
11926.897872	1408.121667	1640.960938	457.114014
11926.897872	1408.121667	1639.928711	455.083221
11926.897872	1408.121667	1638.896484	543.362244
11926.897872	1408.121667	1637.864258	365.370850
11926.897872	1408.121667	1636.832031	460.580414
11926.897872	1408.121667	1635.798828	319.702911
11926.897872	1408.121667	1634.766602	373.242065
11926.897872	1408.121667	1633.733398	299.528229
11926.897872	1408.121667	1632.699219	276.726746
11926.897872	1408.121667	1631.666016	249.314896
11926.897872	1408.121667	1630.632813	270.469513
11926.897872	1408.121667	1629.598633	453.423553
11926.897872	1408.121667	1628.564453	340.493439
11926.897872	1408.121667	1627.530273	359.317627
11926.897872	1408.121667	1626.495117	410.479248
11926.897872	1408.121667	1625.460938	491.655243
11926.897872	1408.121667	1624.425781	249.503174
11926.897872	1408.121667	1623.390625	321.452271
11926.897872	1408.121667	1622.355469	192.550186
11926.897872	1408.121667	1621.319336	382.196930
11926.897872	1408.121667	1620.284180	521.014160
11926.897872	1408.121667	1619.248047	415.235840
11926.897872	1408.121667	1618.211914	535.551758
11926.897872	1408.121667	1617.174805	607.396729
11926.897872	1408.121667	1616.138672	561.633972
11926.897872	1408.121667	1615.101563	310.728516
11926.897872	1408.121667	1614.065430	421.783295
11926.897872	1408.121667	1613.027344	518.972656
11926.897872	1408.121667	1611.990234	295.894318
11926.897872	1408.121667	1610.953125	367.753052
11926.897872	1408.121667	1609.915039	425.773254
11926.897872	1408.121667	1608.876953	446.939575
11926.897872	1408.121667	1607.838867	470.409607
11926.897872	1408.121667	1606.800781	459.356415
11926.897872	1408.121667	1605.761719	287.231445
11926.897872	1408.121667	1604.723633	372.870972
11926.897872	1408.121667	1603.684570	518.294250
11926.897872	1408.121667	1602.644531	389.987061
11926.897872	1408.121667	1601.605469	402.008118
11926.897872	1408.121667	1600.566406	351.964203
11926.897872	1408.121667	1599.526367	472.039703
11926.897872	1408.121667	1598.486328	445.005432
11926.897872	1408.121667	1597.446289	420.291748
11926.897872	1408.121667	1596.405273	480.593933
11926.897872	1408.121667	1595.365234	366.337799
11926.897872	1408.121667	1594.324219	536.875427
11926.897872	1408.121667	1593.283203	643.077026
11926.897872	1408.121667	1592.242188	540.373169
11926.897872	1408.121667	1591.200195	297.730988
11926.897872	1408.121667	1590.159180	452.145081
11926.897872	1408.121667	1589.117188	475.752289
11926.897872	1408.121667	1588.075195	655.328613
11926.897872	1408.121667	1587.032227	490.879456
11926.897872	1408.121667	1585.990234	610.804932
11926.897872	1408.121667	1584.947266	487.721130
11926.897872	1408.121667	1583.904297	529.710022
11926.897872	1408.121667	1582.861328	571.699585
11926.897872	1408.121667	1581.818359	540.381592
11926.897872	1408.121667	1580.775391	467.865082
11926.897872	1408.121667	1579.731445	477.832367
11926.897872	1408.121667	1578.687500	366.467926
11926.897872	1408.121667	1577.643555	472.628937
11926.897872	1408.121667	1576.598633	425.425446
11926.897872	1408.121667	1575.554688	536.146973
11926.897872	1408.121667	1574.509766	505.001556
11926.897872	1408.121667	1573.464844	435.003265
11926.897872	1408.121667	1572.419922	586.876953
11926.897872	1408.121667	1571.374023	510.068115
11926.897872	1408.121667	1570.329102	645.905212
11926.897872	1408.121667	1569.283203	480.020782
11926.897872	1408.121667	1568.237305	293.656281
11926.897872	1408.121667	1567.191406	386.107880
11926.897872	1408.121667	1566.144531	416.870514
11926.897872	1408.121667	1565.098633	472.764526
11926.897872	1408.121667	1564.051758	437.325562
11926.897872	1408.121667	1563.004883	536.608948
11926.897872	1408.121667	1561.957031	435.024719
11926.897872	1408.121667	1560.910156	278.738770
11926.897872	1408.121667	1559.862305	419.126282
11926.897872	1408.121667	1558.814453	449.991913
11926.897872	1408.121667	1557.766602	344.034180
11926.897872	1408.121667	1556.718750	301.984741
11926.897872	1408.121667	1555.669922	136.871460
11926.897872	1408.121667	1554.621094	195.210892
11926.897872	1408.121667	1553.573242	157.844147
11926.897872	1408.121667	1552.523438	243.542648
11926.897872	1408.121667	1551.474609	258.619873
11926.897872	1408.121667	1550.424805	257.771729
11926.897872	1408.121667	1549.375000	250.117599
11926.897872	1408.121667	1548.325195	219.726563
11926.897872	1408.121667	1547.275391	364.631531
11926.897872	1408.121667	1546.225586	320.626648
11926.897872	1408.121667	1545.174805	224.334274
11926.897872	1408.121667	1544.124023	144.028488
11926.897872	1408.121667	1543.073242	204.787598
11926.897872	1408.121667	1542.022461	336.038086
11926.897872	1408.121667	1540.970703	312.670959
11926.897872	1408.121667	1539.919922	339.345673
11926.897872	1408.121667	1538.868164	231.958359
11926.897872	1408.121667	1537.815430	65.565445
11926.897872	1408.121667	1536.763672	276.354065
11926.897872	1408.121667	1535.710938	187.292770
11926.897872	1408.121667	1534.659180	214.102264
11926.897872	1408.121667	1533.606445	166.008530
11926.897872	1408.121667	1532.552734	170.167572
11926.897872	1408.121667	1531.500000	172.084610
11926.897872	1408.121667	1530.446289	58.313416
11926.897872	1408.121667	1529.393555	76.188187
11926.897872	1408.121667	1528.338867	239.236465
11926.897872	1408.121667	1527.285156	193.633667
11926.897872	1408.121667	1526.231445	-76.367599
11926.897872	1408.121667	1525.176758	-26.631800
11926.897872	1408.121667	1524.122070	66.172684
11926.897872	1408.121667	1523.067383	113.654411
11926.897872	1408.121667	1522.012695	147.555695
11926.897872	1408.121667	1520.957031	86.347153
11926.897872	1408.121667	1519.901367	235.786545
11926.897872	1408.121667	1518.845703	36.542465
11926.897872	1408.121667	1517.790039	-155.801941
11926.897872	1408.121667	1516.734375	23.108936
11926.897872	1408.121667	1515.677734	91.109093
11926.897872	1408.121667	1514.621094	215.669052
11926.897872	1408.121667	1513.564453	-5.837553
11926.897872	1408.121667	1512.507813	89.357491
11926.897872	1408.121667	1511.450195	198.111237
11926.897872	1408.121667	1510.393555	49.167461
11926.897872	1408.121667	1509.335938	47.211391
11926.897872	1408.121667	1508.278320	-146.770538
11926.897872	1408.121667	1507.219727	-171.214142
11926.897872	1408.121667	1506.162109	-139.149307
11926.897872	1408.121667	1505.103516	-120.614716
11926.897872	1408.121667	1504.044922	125.975052
11926.897872	1408.121667	1502.986328	-83.469749
11926.897872	1408.121667	1501.926758	-6.181649
11926.897872	1408.121667	1500.868164	-75.556114
11926.897872	1408.121667	1499.808594	-9.514332
11926.897872	1408.121667	1498.749023	-44.962261
11926.897872	1408.121667	1497.688477	-39.772453
11926.897872	1408.121667	1496.628906	-32.296696
11926.897872	1408.121667	1495.568359	-119.464233
11926.897872	1408.121667	1494.507813	-17.253916
11926.897872	1408.121667	1493.447266	-23.205709
11926.897872	1408.121667	1492.386719	-123.739471
11926.897872	1408.121667	1491.325195	-64.282265
11926.897872	1408.121667	1490.263672	-29.586035
11926.897872	1408.121667	1489.202148	-69.167313
11926.897872	1408.121667	1488.140625	51.122875
11926.897872	1408.121667	1487.079102	70.123940
11926.897872	1408.121667	1486.016602	17.148226
11926.897872	1408.121667	1484.954102	-188.749252
11926.897872	1408.121667	1483.891602	71.057510
11926.897872	1408.121667	1482.829102	-51.495876
11926.897872	1408.121667	1481.765625	64.354691
11926.897872	1408.121667	1480.702148	-15.376925
11926.897872	1408.121667	1479.638672	-128.742935
11926.897872	1408.121667	1478.575195	-48.798969
11926.897872	1408.121667	1477.511719	51.360268
11926.897872	1408.121667	1476.447266	48.185074
11926.897872	1408.121667	1475.382813	-4.323560
11926.897872	1408.121667	1474.318359	-74.672943
11926.897872	1408.121667	1473.253906	-23.908461
11926.897872	1408.121667	1472.189453	27.001631
11926.897872	1408.121667	1471.124023	26.229456
11926.897872	1408.121667	1470.058594	63.697701
11926.897872	1408.121667	1468.993164	-10.992062
11926.897872	1408.121667	1467.927734	-60.726063
11926.897872	1408.121667	1466.861328	126.821251
11926.897872	1408.121667	1465.794922	5.290209
11926.897872	1408.121667	1464.728516	42.913223
11926.897872	1408.121667	1463.662109	37.948093
11926.897872	1408.121667	1462.594727	113.743446
11926.897872	1408.121667	1461.528320	-16.383810
11926.897872	1408.121667	1460.460938	177.186447
11926.897872	1408.121667	1459.393555	60.928341
11926.897872	1408.121667	1458.326172	-78.007301
11926.897872	1408.121667	1457.257813	-42.300014
11926.897872	1408.121667	1456.189453	35.254654
11926.897872	1408.121667	1455.121094	131.173279
11926.897872	1408.121667	1454.052734	-45.365967
11926.897872	1408.121667	1452.984375	-118.687820
11926.897872	1408.121667	1451.915039	121.423340
11926.897872	1408.121667	1450.845703	79.407631
11926.897872	1408.121667	1449.776367	31.903187
11926.897872	1408.121667	1448.707031	172.279099
11926.897872	1408.121667	1447.636719	7.940556
11926.897872	1408.121667	1446.567383	207.733307
11926.897872	1408.121667	1445.497070	-5.291493
11926.897872	1408.121667	1444.425781	74.075195
11926.897872	1408.121667	1443.355469	132.271683
11926.897872	1408.121667	1442.285156	-21.023355
11926.897872	1408.121667	1441.213867	2.015362
11926.897872	1408.121667	1440.142578	82.385223
11926.897872	1408.121667	1439.070313	95.781693
11926.897872	1408.121667	1437.999023	53.623703
11926.897872	1408.121667	1436.926758	128.535675
11926.897872	1408.121667	1435.854492	123.022675
11926.897872	1408.121667	1434.782227	20.578270
11926.897872	1408.121667	1433.709961	73.756561
11926.897872	1408.121667	1432.636719	117.750740
11926.897872	1408.121667	1431.563477	138.196594
11926.897872	1408.121667	1430.490234	230.097427
11926.897872	1408.121667	1429.416992	260.873077
11926.897872	1408.121667	1428.343750	106.133324
11926.897872	1408.121667	1427.269531	209.869308
11926.897872	1408.121667	1426.195313	84.311867
11926.897872	1408.121667	1425.121094	51.157684
11926.897872	1408.121667	1424.046875	80.240623
11926.897872	1408.121667	1422.971680	186.395721
11926.897872	1408.121667	1421.896484	60.763336
11926.897872	1408.121667	1420.821289	114.922951
11926.897872	1408.121667	1419.746094	70.026779
11926.897872	1408.121667	1418.669922	143.581848
11926.897872	1408.121667	1417.594727	373.759277
11926.897872	1408.121667	1416.518555	290.494202
11926.897872	1408.121667	1415.442383	193.795410
11926.897872	1408.121667	1414.365234	179.019180
11926.897872	1408.121667	1413.289063	172.205048
11926.897872	1408.121667	1412.211914	315.378693
11926.897872	1408.121667	1411.134766	200.928162
11926.897872	1408.121667	1410.057617	202.900208
11926.897872	1408.121667	1408.979492	423.795746
11926.897872	1408.121667	1407.902344	239.643265
11926.897872	1408.121667	1406.824219	383.062958
11926.897872	1408.121667	1405.746094	497.194214
11926.897872	1408.121667	1404.666992	420.057098
11926.897872	1408.121667	1403.588867	542.003113
11926.897872	1408.121667	1402.509766	579.000793
11926.897872	1408.121667	1401.430664	492.046814
11926.897872	1408.121667	1400.351563	463.909607
11926.897872	1408.121667	1399.271484	636.073181
11926.897872	1408.121667	1398.192383	623.789185
11926.897872	1408.121667	1397.112305	630.646484
11926.897872	1408.121667	1396.031250	734.899902
11926.897872	1408.121667	1394.951172	472.017181
11926.897872	1408.121667	1393.871094	596.481445
11926.897872	1408.121667	1392.790039	467.098175
11926.897872	1408.121667	1391.708984	603.291504
11926.897872	1408.121667	1390.626953	325.801636
11926.897872	1408.121667	1389.545898	493.210205
11926.897872	1408.121667	1388.463867	372.292145
11926.897872	1408.121667	1387.381836	276.339142
11926.897872	1408.121667	1386.299805	367.086853
11926.897872	1408.121667	1385.217773	402.112213
11926.897872	1408.121667	1384.134766	274.103241
11926.897872	1408.121667	1383.051758	367.779266
11926.897872	1408.121667	1381.968750	473.854462
11926.897872	1408.121667	1380.885742	432.307129
11926.897872	1408.121667	1379.802734	276.448090
11926.897872	1408.121667	1378.718750	287.761841
11926.897872	1408.121667	1377.634766	220.597488
11926.897872	1408.121667	1376.550781	254.348358
11926.897872	1408.121667	1375.465820	258.809082
11926.897872	1408.121667	1374.381836	173.951797
11926.897872	1408.121667	1373.296875	264.305450
11926.897872	1408.121667	1372.211914	224.874725
11926.897872	1408.121667	1371.126953	318.793243
11926.897872	1408.121667	1370.041016	82.480721
11926.897872	1408.121667	1368.955078	322.524811
11926.897872	1408.121667	1367.869141	211.114243
11926.897872	1408.121667	1366.783203	169.536407
11926.897872	1408.121667	1365.697266	258.703156
11926.897872	1408.121667	1364.610352	61.550430
11926.897872	1408.121667	1363.523438	237.519806
11926.897872	1408.121667	1362.436523	161.053894
11926.897872	1408.121667	1361.349609	97.622177
11926.897872	1408.121667	1360.261719	110.960022
11926.897872	1408.121667	1359.174805	182.214645
11926.897872	1408.121667	1358.086914	78.728622
11926.897872	1408.121667	1356.998047	152.359650
11926.897872	1408.121667	1355.910156	131.911087
11926.897872	1408.121667	1354.821289	196.767120
11926.897872	1408.121667	1353.732422	118.880318
11926.897872	1408.121667	1352.643555	145.755783
11926.897872	1408.121667	1351.554688	147.641312
11926.897872	1408.121667	1350.464844	80.613235
11926.897872	1408.121667	1349.375000	213.499542
11926.897872	1408.121667	1348.285156	274.875153
11926.897872	1408.121667	1347.195313	61.349194
11926.897872	1408.121667	1346.105469	210.421402
11926.897872	1408.121667	1345.014648	285.681854
11926.897872	1408.121667	1343.923828	211.108841
11926.897872	1408.121667	1342.833008	238.257736
11926.897872	1408.121667	1341.741211	211.344666
11926.897872	1408.121667	1340.650391	187.622665
11926.897872	1408.121667	1339.558594	184.714172
11926.897872	1408.121667	1338.466797	59.976761
11926.897872	1408.121667	1337.374023	78.470840
11926.897872	1408.121667	1336.282227	34.808189
11926.897872	1408.121667	1335.189453	115.354546
11926.897872	1408.121667	1334.096680	144.447388
11926.897872	1408.121667	1333.003906	86.466339
11926.897872	1408.121667	1331.910156	230.045120
11926.897872	1408.121667	1330.817383	134.571701
11926.897872	1408.121667	1329.723633	35.139526
11926.897872	1408.121667	1328.629883	140.969284
11926.897872	1408.121667	1327.535156	19.800243
11926.897872	1408.121667	1326.441406	-63.319592
11926.897872	1408.121667	1325.346680	44.968460
11926.897872	1408.121667	1324.251953	100.026642
11926.897872	1408.121667	1323.156250	195.959976
11926.897872	1408.121667	1322.061523	216.626923
11926.897872	1408.121667	1320.965820	187.384293
11926.897872	1408.121667	1319.870117	105.948792
11926.897872	1408.121667	1318.774414	149.852829
11926.897872	1408.121667	1317.678711	52.897888
11926.897872	1408.121667	1316.582031	179.240814
11926.897872	1408.121667	1315.485352	112.577736
11926.897872	1408.121667	1314.388672	142.354172
11926.897872	1408.121667	1313.291016	-6.505434
11926.897872	1408.121667	1312.194336	66.092041
11926.897872	1408.121667	1311.096680	92.477249
11926.897872	1408.121667	1309.999023	61.679749
11926.897872	1408.121667	1308.901367	116.835976
11926.897872	1408.121667	1307.802734	176.721024
11926.897872	1408.121667	1306.705078	144.798508
11926.897872	1408.121667	1305.606445	12.728268
11926.897872	1408.121667	1304.506836	-19.646677
11926.897872	1408.121667	1303.408203	142.445816
11926.897872	1408.121667	1302.308594	42.220844
11926.897872	1408.121667	1301.208984	68.779167
11926.897872	1408.121667	1300.109375	204.139542
11926.897872	1408.121667	1299.009766	-59.368240
11926.897872	1408.121667	1297.909180	82.536362
11926.897872	1408.121667	1296.808594	170.694794
11926.897872	1408.121667	1295.708008	24.662464
11926.897872	1408.121667	1294.607422	-8.071193
11926.897872	1408.121667	1293.506836	45.703018
11926.897872	1408.121667	1292.405273	-129.931610
11926.897872	1408.121667	1291.303711	13.367833
11926.897872	1408.121667	1290.202148	13.076149
11926.897872	1408.121667	1289.099609	-124.078812
11926.897872	1408.121667	1287.998047	-37.995979
11926.897872	1408.121667	1286.895508	33.835323
11926.897872	1408.121667	1285.792969	79.329254
11926.897872	1408.121667	1284.689453	-16.394238
11926.897872	1408.121667	1283.586914	-103.421608
11926.897872	1408.121667	1282.483398	-12.178667
11926.897872	1408.121667	1281.379883	-67.405579
11926.897872	1408.121667	1280.276367	15.844651
11926.897872	1408.121667	1279.171875	-41.245998
11926.897872	1408.121667	1278.067383	35.617470
11926.897872	1408.121667	1276.962891	42.741905
11926.897872	1408.121667	1275.858398	15.194407
11926.897872	1408.121667	1274.753906	84.898529
11926.897872	1408.121667	1273.648438	15.205698
11926.897872	1408.121667	1272.542969	22.885027
11926.897872	1408.121667	1271.437500	-7.914351
11926.897872	1408.121667	1270.331055	43.037422
11926.897872	1408.121667	1269.225586	-37.704571
11926.897872	1408.121667	1268.119141	-28.769695
11926.897872	1408.121667	1267.012695	6.567211
11926.897872	1408.121667	1265.906250	-97.970497
11926.897872	1408.121667	1264.798828	11.613164
11926.897872	1408.121667	1263.691406	-19.007923
11926.897872	1408.121667	1262.583984	-90.601608
11926.897872	1408.121667	1261.476563	-59.841003
11926.897872	1408.121667	1260.368164	-58.728191
11926.897872	1408.121667	1259.260742	6.560487
11926.897872	1408.121667	1258.152344	-98.778168
11926.897872	1408.121667	1257.043945	8.950750
11926.897872	1408.121667	1255.934570	10.594768
11926.897872	1408.121667	1254.825195	-58.447109
11926.897872	1408.121667	1253.716797	-134.734360
11926.897872	1408.121667	1252.606445	-62.937244
11926.897872	1408.121667	1251.497070	-60.349407
11926.897872	1408.121667	1250.387695	-0.048110
11926.897872	1408.121667	1249.277344	-124.996872
11926.897872	1408.121667	1248.166992	-223.960236
11926.897872	1408.121667	1247.055664	-61.891468
11926.897872	1408.121667	1245.945313	-15.232950
11926.897872	1408.121667	1244.833984	-28.708342
11926.897872	1408.121667	1243.722656	-8.190077
11926.897872	1408.121667	1242.611328	-14.665223
11926.897872	1408.121667	1241.499023	57.341648
11926.897872	1408.121667	1240.387695	67.085480
11926.897872	1408.121667	1239.275391	-54.389366
11926.897872	1408.121667	1238.162109	158.594574
11926.897872	1408.121667	1237.049805	37.997379
11926.897872	1408.121667	1235.936523	23.214926
11926.897872	1408.121667	1234.823242	53.258137
11926.897872	1408.121667	1233.709961	25.045723
11926.897872	1408.121667	1232.596680	33.013481
11926.897872	1408.121667	1231.482422	-27.603920
11926.897872	1408.121667	1230.369141	31.267916
11926.897872	1408.121667	1229.253906	-62.590893
11926.897872	1408.121667	1228.139648	-2.819315
11926.897872	1408.121667	1227.025391	59.913498
11926.897872	1408.121667	1225.910156	31.645399
11926.897872	1408.121667	1224.794922	-26.077944
11926.897872	1408.121667	1223.679688	-53.222572
11926.897872	1408.121667	1222.563477	135.915848
11926.897872	1408.121667	1221.447266	-88.075478
11926.897872	1408.121667	1220.331055	-45.786121
11926.897872	1408.121667	1219.214844	60.546391
11926.897872	1408.121667	1218.098633	-68.337425
11926.897872	1408.121667	1216.981445	29.129528
11926.897872	1408.121667	1215.864258	133.708817
11926.897872	1408.121667	1214.747070	105.924644
11926.897872	1408.121667	1213.629883	-28.231491
11926.897872	1408.121667	1212.511719	-53.783344
11926.897872	1408.121667	1211.393555	34.453548
11926.897872	1408.121667	1210.275391	-39.771496
11926.897872	1408.121667	1209.157227	-6.337583
11926.897872	1408.121667	1208.038086	51.057178
11926.897872	1408.121667	1206.918945	23.983047
11926.897872	1408.121667	1205.799805	-17.995222
11926.897872	1408.121667	1204.680664	-13.142955
11926.897872	1408.121667	1203.560547	-52.898048
11926.897872	1408.121667	1202.441406	26.867168
11926.897872	1408.121667	1201.321289	-64.221947
11926.897872	1408.121667	1200.200195	-28.908281
11926.897872	1408.121667	1199.080078	101.739616
11926.897872	1408.121667	1197.958984	16.947147
11926.897872	1408.121667	1196.837891	-30.367649
11926.897872	1408.121667	1195.716797	70.488899
11926.897872	1408.121667	1194.594727	28.926971
11926.897872	1408.121667	1193.473633	64.301003
11926.897872	1408.121667	1192.351563	45.264984
11926.897872	1408.121667	1191.229492	35.648167
11926.897872	1408.121667	1190.106445	110.978348
11926.897872	1408.121667	1188.984375	-40.579357
11926.897872	1408.121667	1187.861328	-15.161596
11926.897872	1408.121667	1186.738281	54.210365
11926.897872	1408.121667	1185.614258	-25.299492
11926.897872	1408.121667	1184.491211	86.604431
11926.897872	1408.121667	1183.367188	59.158932
11926.897872	1408.121667	1182.243164	6.171415
11926.897872	1408.121667	1181.119141	88.615372
11926.897872	1408.121667	1179.994141	-10.062062
11926.897872	1408.121667	1178.869141	30.895288
11926.897872	1408.121667	1177.744141	76.014641
11926.897872	1408.121667	1176.619141	-60.571323
11926.897872	1408.121667	1175.493164	-131.024414
11926.897872	1408.121667	1174.368164	-22.745043
11926.897872	1408.121667	1173.242188	-79.810120
11926.897872	1408.121667	1172.115234	39.448635
11926.897872	1408.121667	1170.989258	-9.296325
11926.897872	1408.121667	1169.862305	-138.501404
11926.897872	1408.121667	1168.735352	-52.922459
11926.897872	1408.121667	1167.608398	-116.026894
11926.897872	1408.121667	1166.481445	21.305799
11926.897872	1408.121667	1165.353516	-29.007702
11926.897872	1408.121667	1164.225586	-24.742716
11926.897872	1408.121667	1163.097656	-159.972580
11926.897872	1408.121667	1161.968750	-123.395409
11926.897872	1408.121667	1160.840820	45.823189
11926.897872	1408.121667	1159.711914	-34.147972
11926.897872	1408.121667	1158.583008	47.142933
11926.897872	1408.121667	1157.453125	10.882515
11926.897872	1408.121667	1156.324219	-2.878400
11926.897872	1408.121667	1155.194336	35.044514
11926.897872	1408.121667	1154.064453	-20.367064
11926.897872	1408.121667	1152.933594	23.861023
11926.897872	1408.121667	1151.803711	-79.156776
11926.897872	1408.121667	1150.672852	-132.501892
11926.897872	1408.121667	1149.541992	12.090647
11926.897872	1408.121667	1148.411133	-228.131180
11926.897872	1408.121667	1147.279297	2.547427
11926.897872	1408.121667	1146.147461	-100.067001
11926.897872	1408.121667	1145.015625	-45.154705
11926.897872	1408.121667	1143.883789	-162.642487
11926.897872	1408.121667	1142.750977	-116.522644
11926.897872	1408.121667	1141.619141	-150.941620
11926.897872	1408.121667	1140.486328	-107.374199
11926.897872	1408.121667	1139.352539	71.985680
11926.897872	1408.121667	1138.219727	-78.965843
11926.897872	1408.121667	1137.085938	-78.176773
11926.897872	1408.121667	1135.952148	-5.393640
11926.897872	1408.121667	1134.818359	5.973378
11926.897872	1408.121667	1133.683594	27.525124
11926.897872	1408.121667	1132.549805	113.405502
11926.897872	1408.121667	1131.415039	140.192200
11926.897872	1408.121667	1130.279297	213.838745
11926.897872	1408.121667	1129.144531	155.744049
11926.897872	1408.121667	1128.008789	60.129742
11926.897872	1408.121667	1126.873047	130.042923
11926.897872	1408.121667	1125.737305	152.743378
11926.897872	1408.121667	1124.601563	43.780369
11926.897872	1408.121667	1123.464844	257.618408
11926.897872	1408.121667	1122.328125	71.172829
11926.897872	1408.121667	1121.191406	78.784950
11926.897872	1408.121667	1120.054688	105.686218
11926.897872	1408.121667	1118.916992	46.596420
11926.897872	1408.121667	1117.779297	147.738113
11926.897872	1408.121667	1116.641602	253.979492
11926.897872	1408.121667	1115.503906	75.718498
11926.897872	1408.121667	1114.365234	-6.662538
11926.897872	1408.121667	1113.226563	13.472606
11926.897872	1408.121667	1112.087891	-2.297440
11926.897872	1408.121667	1110.949219	152.252441
11926.897872	1408.121667	1109.809570	21.168587
11926.897872	1408.121667	1108.669922	79.341194
11926.897872	1408.121667	1107.530273	121.888466
11926.897872	1408.121667	1106.390625	127.492058
11926.897872	1408.121667	1105.250000	171.613785
11926.897872	1408.121667	1104.109375	42.142456
11926.897872	1408.121667	1102.968750	51.881828
11926.897872	1408.121667	1101.828125	24.192289
11926.897872	1408.121667	1100.686523	64.533623
11926.897872	1408.121667	1099.544922	107.357231
11926.897872	1408.121667	1098.403320	30.029379
11926.897872	1408.121667	1097.261719	87.394348
11926.897872	1408.121667	1096.120117	212.546921
11926.897872	1408.121667	1094.977539	187.317902
11926.897872	1408.121667	1093.834961	159.634857
11926.897872	1408.121667	1092.691406	81.914490
11926.897872	1408.121667	1091.548828	-4.707675
11926.897872	1408.121667	1090.405273	64.959106
11926.897872	1408.121667	1089.261719	-30.994909
11926.897872	1408.121667	1088.118164	28.324884
11926.897872	1408.121667	1086.973633	-93.576508
11926.897872	1408.121667	1085.829102	36.964470
11926.897872	1408.121667	1084.684570	-21.401222
11926.897872	1408.121667	1083.540039	2.779128
11926.897872	1408.121667	1082.395508	28.592512
11926.897872	1408.121667	1081.250000	93.442795
11926.897872	1408.121667	1080.104492	82.763153
11926.897872	1408.121667	1078.958984	-47.616238
11926.897872	1408.121667	1077.812500	87.186455
11926.897872	1408.121667	1076.666016	53.752434
11926.897872	1408.121667	1075.519531	-49.894287
11926.897872	1408.121667	1074.373047	15.360152
11926.897872	1408.121667	1073.226563	56.239487
11926.897872	1408.121667	1072.079102	136.247070
11926.897872	1408.121667	1070.931641	-6.823908
11926.897872	1408.121667	1069.784180	127.761040
11926.897872	1408.121667	1068.635742	137.579437
11926.897872	1408.121667	1067.487305	160.855209
11926.897872	1408.121667	1066.338867	63.127041
11926.897872	1408.121667	1065.190430	140.423355
11926.897872	1408.121667	1064.041992	217.683701
11926.897872	1408.121667	1062.892578	191.516327
11926.897872	1408.121667	1061.743164	289.123260
11926.897872	1408.121667	1060.593750	133.486557
11926.897872	1408.121667	1059.443359	194.989273
11926.897872	1408.121667	1058.292969	182.866241
11926.897872	1408.121667	1057.142578	220.619522
11926.897872	1408.121667	1055.992188	8.955295
11926.897872	1408.121667	1054.841797	72.852692
11926.897872	1408.121667	1053.690430	243.839264
11926.897872	1408.121667	1052.539063	110.989243
11926.897872	1408.121667	1051.387695	185.116730
11926.897872	1408.121667	1050.235352	95.143768
11926.897872	1408.121667	1049.083984	28.529879
11926.897872	1408.121667	1047.931641	217.219101
11926.897872	1408.121667	1046.778320	132.916595
11926.897872	1408.121667	1045.625977	89.965286
11926.897872	1408.121667	1044.472656	279.950745
11926.897872	1408.121667	1043.319336	16.806181
11926.897872	1408.121667	1042.166016	97.514206
11926.897872	1408.121667	1041.012695	116.008530
11926.897872	1408.121667	1039.858398	78.353676
11926.897872	1408.121667	1038.704102	-51.434044
11926.897872	1408.121667	1037.549805	-37.418446
11926.897872	1408.121667	1036.394531	-1.176167
11926.897872	1408.121667	1035.239258	170.241287
11926.897872	1408.121667	1034.083984	107.472733
11926.897872	1408.121667	1032.928711	157.417740
11926.897872	1408.121667	1031.773438	49.799118
11926.897872	1408.121667	1030.617188	122.737434
11926.897872	1408.121667	1029.460938	116.274521
11926.897872	1408.121667	1028.304688	-31.572882
11926.897872	1408.121667	1027.147461	117.351418
11926.897872	1408.121667	1025.991211	64.960136
11926.897872	1408.121667	1024.833984	129.101089
11926.897872	1408.121667	1023.675781	109.978523
11926.897872	1408.121667	1022.518555	235.825043
11926.897872	1408.121667	1021.360352	29.260370
11926.897872	1408.121667	1020.202148	64.136024
11926.897872	1408.121667	1019.043945	121.206070
11926.897872	1408.121667	1017.884766	165.815567
11926.897872	1408.121667	1016.726563	113.316376
11926.897872	1408.121667	1015.567383	133.535660
11926.897872	1408.121667	1014.407227	210.978912
11926.897872	1408.121667	1013.248047	132.040543
11926.897872	1408.121667	1012.087891	154.677048
11926.897872	1408.121667	1010.927734	-37.701878
11926.897872	1408.121667	1009.767578	146.650024
11926.897872	1408.121667	1008.606445	6.003027
11926.897872	1408.121667	1007.446289	61.918644
11926.897872	1408.121667	1006.285156	-1.954848
11926.897872	1408.121667	1005.123047	225.692749
11926.897872	1408.121667	1003.961914	45.297527
11926.897872	1408.121667	1002.799805	23.909067
11926.897872	1408.121667	1001.637695	203.118301
11926.897872	1408.121667	1000.475586	179.704697
11926.897872	1408.121667	999.312500	153.334457
11926.897872	1408.121667	998.149414	279.805573
11926.897872	1408.121667	996.986328	230.379944
11926.897872	1408.121667	995.823242	194.984467
11926.897872	1408.121667	994.659180	144.672546
11926.897872	1408.121667	993.496094	153.662643
11926.897872	1408.121667	992.332031	-36.731663
11926.897872	1408.121667	991.166992	107.154343
11926.897872	1408.121667	990.002930	65.743263
11926.897872	1408.121667	988.837891	119.323761
11926.897872	1408.121667	987.672852	123.694374
11926.897872	1408.121667	986.506836	224.372787
11926.897872	1408.121667	985.341797	23.958435
11926.897872	1408.121667	984.175781	86.398102
11926.897872	1408.121667	983.009766	136.664200
11926.897872	1408.121667	981.843750	165.027405
11926.897872	1408.121667	980.676758	75.851555
11926.897872	1408.121667	979.509766	48.043644
11926.897872	1408.121667	978.342773	34.496906
11926.897872	1408.121667	977.175781	213.956619
11926.897872	1408.121667	976.007813	36.777821
11926.897872	1408.121667	974.839844	-17.884443
11926.897872	1408.121667	973.671875	66.754189
11926.897872	1408.121667	972.503906	144.934586
11926.897872	1408.121667	971.334961	22.733442
11926.897872	1408.121667	970.166016	74.319016
11926.897872	1408.121667	968.997070	157.625076
11926.897872	1408.121667	967.828125	111.622955
11926.897872	1408.121667	966.658203	39.042645
11926.897872	1408.121667	965.488281	84.378105
11926.897872	1408.121667	964.318359	51.711536
11926.897872	1408.121667	963.148438	-8.311890
11926.897872	1408.121667	961.977539	60.854671
11926.897872	1408.121667	960.806641	43.639294
11926.897872	1408.121667	959.635742	-35.274769
11926.897872	1408.121667	958.463867	147.348282
11926.897872	1408.121667	957.292969	-41.530060
11926.897872	1408.121667	956.121094	18.813578
11926.897872	1408.121667	954.948242	149.790955
11926.897872	1408.121667	953.776367	-29.599304
11926.897872	1408.121667	952.603516	-37.941956
11926.897872	1408.121667	951.430664	27.698908
11926.897872	1408.121667	950.257813	49.257515
11926.897872	1408.121667	949.084961	8.621703
11926.897872	1408.121667	947.911133	79.717659
11926.897872	1408.121667	946.737305	-120.413727
11926.897872	1408.121667	945.563477	-28.618990
11926.897872	1408.121667	944.388672	53.260952
11926.897872	1408.121667	943.213867	-91.955177
11926.897872	1408.121667	942.039063	-95.986481
11926.897872	1408.121667	940.864258	2.354200
11926.897872	1408.121667	939.688477	184.338715
11926.897872	1408.121667	938.513672	157.294342
11926.897872	1408.121667	937.337891	189.475128
11926.897872	1408.121667	936.161133	80.757156
11926.897872	1408.121667	934.985352	68.165962
11926.897872	1408.121667	933.808594	15.013180
11926.897872	1408.121667	932.631836	53.749374
11926.897872	1408.121667	931.454102	77.624420
11926.897872	1408.121667	930.277344	248.795181
11926.897872	1408.121667	929.099609	112.284233
11926.897872	1408.121667	927.921875	71.962044
11926.897872	1408.121667	926.743164	-6.826793
11926.897872	1408.121667	925.565430	42.576061
11926.897872	1408.121667	924.386719	70.585243
11926.897872	1408.121667	923.208008	85.785095
11926.897872	1408.121667	922.028320	9.185231
11926.897872	1408.121667	920.849609	-90.865089
11926.897872	1408.121667	919.669922	-89.412186
11926.897872	1408.121667	919.474609	50.506065
11926.897872	1408.121667	918.309570	84.883926
11926.897872	1408.121667	917.143555	-59.933010
11926.897872	1408.121667	915.977539	57.628845
11926.897872	1408.121667	914.810547	89.853989
11926.897872	1408.121667	913.644531	-37.820934
11926.897872	1408.121667	912.477539	-78.055534
11926.897872	1408.121667	911.310547	-90.571159
11926.897872	1408.121667	910.143555	-94.559608
11926.897872	1408.121667	908.975586	-28.251539
11926.897872	1408.121667	907.807617	8.214715
11926.897872	1408.121667	906.639648	-53.276981
11926.897872	1408.121667	905.471680	-25.333981
11926.897872	1408.121667	904.303711	-108.075348
11926.897872	1408.121667	903.134766	87.975281
11926.897872	1408.121667	901.965820	3.119994
11926.897872	1408.121667	900.796875	-181.670929
11926.897872	1408.121667	899.626953	-153.722885
11926.897872	1408.121667	898.457031	69.822838
11926.897872	1408.121667	897.287109	-4.325194
11926.897872	1408.121667	896.117188	-38.060982
11926.897872	1408.121667	894.947266	-144.027542
11926.897872	1408.121667	893.776367	43.225128
11926.897872	1408.121667	892.605469	1.009333
11926.897872	1408.121667	891.434570	130.822189
11926.897872	1408.121667	890.262695	-76.995209
11926.897872	1408.121667	889.091797	161.042053
11926.897872	1408.121667	887.919922	93.376396
11926.897872	1408.121667	886.748047	-82.473839
11926.897872	1408.121667	885.575195	2.684491
11926.897872	1408.121667	884.403320	43.267437
11926.897872	1408.121667	883.230469	-24.310911
11926.897872	1408.121667	882.057617	71.388680
11926.897872	1408.121667	880.883789	65.307877
11926.897872	1408.121667	879.710938	27.440842
11926.897872	1408.121667	878.537109	4.424315
11926.897872	1408.121667	877.362305	146.653824
11926.897872	1408.121667	876.188477	9.256799
11926.897872	1408.121667	875.013672	-81.495735
11926.897872	1408.121667	873.839844	-53.654083
11926.897872	1408.121667	872.664063	-6.769721
11926.897872	1408.121667	871.489258	-74.179848
11926.897872	1408.121667	870.313477	57.324551
11926.897872	1408.121667	869.138672	51.278103
11926.897872	1408.121667	867.962891	-170.484207
11926.897872	1408.121667	866.786133	-87.667450
11926.897872	1408.121667	865.610352	-119.042694
11926.897872	1408.121667	864.433594	-34.153358
11926.897872	1408.121667	863.256836	-12.692113
11926.897872	1408.121667	862.079102	44.679672
11926.897872	1408.121667	860.902344	-123.988770
11926.897872	1408.121667	859.724609	-123.634903
11926.897872	1408.121667	858.546875	49.859135
11926.897872	1408.121667	857.368164	71.291924
11926.897872	1408.121667	856.190430	46.283482
11926.897872	1408.121667	855.011719	-164.405411
11926.897872	1408.121667	853.833008	-64.877625
11926.897872	1408.121667	852.654297	-94.055565
11926.897872	1408.121667	851.474609	-106.347672
11926.897872	1408.121667	850.294922	3.654404
11926.897872	1408.121667	849.115234	16.645441
11926.897872	1408.121667	847.935547	-42.024521
11926.897872	1408.121667	846.754883	-5.846948
11926.897872	1408.121667	845.575195	-245.660858
11926.897872	1408.121667	844.393555	-161.009369
11926.897872	1408.121667	843.212891	-118.509171
11926.897872	1408.121667	842.032227	-94.973984
11926.897872	1408.121667	840.850586	-25.136988
11926.897872	1408.121667	839.668945	-14.254894
11926.897872	1408.121667	838.486328	-43.352879
11926.897872	1408.121667	837.304688	81.127480
11926.897872	1408.121667	836.122070	58.332687
11926.897872	1408.121667	834.939453	-61.180016
11926.897872	1408.121667	833.756836	-52.399979
11926.897872	1408.121667	832.573242	-60.436855
11926.897872	1408.121667	831.389648	-68.470230
11926.897872	1408.121667	830.206055	1.239071
11926.897872	1408.121667	829.022461	104.529808
11926.897872	1408.121667	827.838867	25.061071
11926.897872	1408.121667	826.654297	17.017616
11926.897872	1408.121667	825.469727	13.176397
11926.897872	1408.121667	824.284180	-53.628906
11926.897872	1408.121667	823.099609	-0.796447
11926.897872	1408.121667	821.914063	26.838800
11926.897872	1408.121667	820.728516	-67.198669
11926.897872	1408.121667	819.542969	27.546606
11926.897872	1408.121667	818.356445	-106.290451
11926.897872	1408.121667	817.169922	59.696991
11926.897872	1408.121667	815.983398	41.179211
11926.897872	1408.121667	814.796875	-38.100262
11926.897872	1408.121667	813.609375	-69.161774
11926.897872	1408.121667	812.422852	58.973961
11926.897872	1408.121667	811.235352	-34.922119
11926.897872	1408.121667	810.046875	-30.376032
11926.897872	1408.121667	808.859375	-27.928013
11926.897872	1408.121667	807.670898	10.096178
11926.897872	1408.121667	806.482422	-58.610027
11926.897872	1408.121667	805.293945	-3.863660
11926.897872	1408.121667	804.104492	44.583935
11926.897872	1408.121667	802.915039	139.013596
11926.897872	1408.121667	801.725586	107.960815
11926.897872	1408.121667	800.536133	124.993324
11926.897872	1408.121667	799.345703	175.453995
11926.897872	1408.121667	798.155273	163.209122
11926.897872	1408.121667	796.964844	196.922592
11926.897872	1408.121667	795.774414	69.803757
11926.897872	1408.121667	794.583008	145.277969
11926.897872	1408.121667	793.392578	149.736191
11926.897872	1408.121667	792.200195	189.673615
11926.897872	1408.121667	791.008789	200.374512
11926.897872	1408.121667	789.816406	140.131653
11926.897872	1408.121667	788.625000	31.931749
11926.897872	1408.121667	787.432617	121.894203
11926.897872	1408.121667	786.239258	95.053024
11926.897872	1408.121667	785.046875	51.539436
11926.897872	1408.121667	783.853516	176.859070
11926.897872	1408.121667	782.660156	125.002762
11926.897872	1408.121667	781.465820	75.246399
11926.897872	1408.121667	780.272461	150.477097
11926.897872	1408.121667	779.078125	-3.398167
11926.897872	1408.121667	777.883789	92.627052
11926.897872	1408.121667	776.688477	157.383331
11926.897872	1408.121667	775.494141	113.884758
11926.897872	1408.121667	774.298828	218.130554
11926.897872	1408.121667	773.103516	76.851303
11926.897872	1408.121667	771.907227	62.496204
11926.897872	1408.121667	770.711914	68.933403
11926.897872	1408.121667	769.515625	123.178658
11926.897872	1408.121667	768.318359	85.937332
11926.897872	1408.121667	767.122070	135.984833
11926.897872	1408.121667	765.924805	92.507759
11926.897872	1408.121667	764.727539	117.590775
11926.897872	1408.121667	763.530273	142.655060
11926.897872	1408.121667	762.333008	-6.718019
11926.897872	1408.121667	761.134766	86.852303
11926.897872	1408.121667	759.936523	70.371109
11926.897872	1408.121667	758.738281	-134.947449
11926.897872	1408.121667	757.540039	10.431128
11926.897872	1408.121667	756.340820	-124.282845
11926.897872	1408.121667	755.141602	-167.702911
11926.897872	1408.121667	753.942383	56.351898
11926.897872	1408.121667	752.742188	-24.419350
11926.897872	1408.121667	751.541992	-7.759088
11926.897872	1408.121667	750.341797	-1.476583
11926.897872	1408.121667	749.141602	29.652588
11926.897872	1408.121667	747.941406	100.110664
11926.897872	1408.121667	746.740234	44.211411
11926.897872	1408.121667	745.539063	133.249069
11926.897872	1408.121667	744.337891	77.343582
11926.897872	1408.121667	743.135742	232.539154
11926.897872	1408.121667	741.933594	46.262363
11926.897872	1408.121667	740.731445	97.944199
11926.897872	1408.121667	739.529297	149.591782
11926.897872	1408.121667	738.326172	248.765442
11926.897872	1408.121667	737.124023	393.364990
11926.897872	1408.121667	735.919922	504.823120
11926.897872	1408.121667	734.716797	508.763947
11926.897872	1408.121667	733.513672	483.765320
11926.897872	1408.121667	732.309570	498.011017
11926.897872	1408.121667	731.105469	452.347656
11926.897872	1408.121667	729.900391	406.689941
11926.897872	1408.121667	728.696289	422.966187
11926.897872	1408.121667	727.491211	280.303406
11926.897872	1408.121667	726.286133	207.843155
11926.897872	1408.121667	725.080078	178.722763
11926.897872	1408.121667	723.874023	244.478867
11926.897872	1408.121667	722.668945	219.457214
11926.897872	1408.121667	721.461914	212.988037
11926.897872	1408.121667	720.255859	202.382874
11926.897872	1408.121667	719.048828	92.846169
11926.897872	1408.121667	717.841797	164.657776
11926.897872	1408.121667	716.634766	189.043610
11926.897872	1408.121667	715.427734	108.365356
11926.897872	1408.121667	714.219727	-15.535669
11926.897872	1408.121667	713.011719	8.825051
11926.897872	1408.121667	711.803711	61.975201
11926.897872	1408.121667	710.594727	55.409901
11926.897872	1408.121667	709.385742	131.126877
11926.897872	1408.121667	708.176758	161.542023
11926.897872	1408.121667	706.967773	249.510162
11926.897872	1408.121667	705.758789	51.624912
11926.897872	1408.121667	704.548828	84.042488
11926.897872	1408.121667	703.338867	25.997990
11926.897872	1408.121667	702.127930	54.263325
11926.897872	1408.121667	700.917969	6.486203
11926.897872	1408.121667	699.707031	-43.342201
11926.897872	1408.121667	698.496094	3.348264
11926.897872	1408.121667	697.285156	15.098497
11926.897872	1408.121667	696.073242	98.669106
11926.897872	1408.121667	694.861328	-92.812576
11926.897872	1408.121667	693.649414	9.174829
11926.897872	1408.121667	692.436523	-73.521683
11926.897872	1408.121667	691.224609	114.521263
11926.897872	1408.121667	690.011719	3.092963
11926.897872	1408.121667	688.798828	-32.454552
11926.897872	1408.121667	687.584961	75.469330
11926.897872	1408.121667	686.372070	201.771500
11926.897872	1408.121667	685.158203	225.562454
11926.897872	1408.121667	683.943359	-29.251692
11926.897872	1408.121667	682.729492	158.373276
11926.897872	1408.121667	681.514648	55.156181
11926.897872	1408.121667	680.299805	181.233826
11926.897872	1408.121667	679.084961	143.508026
11926.897872	1408.121667	677.869141	185.581009
11926.897872	1408.121667	676.653320	178.517883
11926.897872	1408.121667	675.437500	63.035404
11926.897872	1408.121667	674.221680	207.284393
11926.897872	1408.121667	673.004883	214.473022
11926.897872	1408.121667	671.789063	101.040306
11926.897872	1408.121667	670.571289	230.825104
11926.897872	1408.121667	669.354492	111.267334
11926.897872	1408.121667	668.136719	189.886780
11926.897872	1408.121667	666.919922	127.532776
11926.897872	1408.121667	665.701172	126.441460
11926.897872	1408.121667	664.483398	17.133530
11926.897872	1408.121667	663.264648	158.897690
11926.897872	1408.121667	662.045898	174.064941
11926.897872	1408.121667	660.827148	60.675297
11926.897872	1408.121667	659.608398	16.664337
11926.897872	1408.121667	658.388672	139.874344
11926.897872	1408.121667	657.168945	185.535294
11926.897872	1408.121667	655.949219	55.850353
11926.897872	1408.121667	654.728516	72.937149
11926.897872	1408.121667	653.507813	145.011093
11926.897872	1408.121667	652.287109	153.882767
11926.897872	1408.121667	651.066406	22.196749
11926.897872	1408.121667	649.844727	114.538414
11926.897872	1408.121667	648.623047	13.414249
11926.897872	1408.121667	647.401367	60.899033
11926.897872	1408.121667	646.179688	53.399075
11926.897872	1408.121667	644.957031	76.400589
11926.897872	1408.121667	643.734375	-4.368660
11926.897872	1408.121667	642.511719	32.832134
11926.897872	1408.121667	641.289063	11.031867
11926.897872	1408.121667	640.065430	56.305084
11926.897872	1408.121667	638.841797	93.410393
11926.897872	1408.121667	637.618164	130.480225
11926.897872	1408.121667	636.393555	86.252190
11926.897872	1408.121667	635.168945	56.241787
11926.897872	1408.121667	633.944336	-71.249107
11926.897872	1408.121667	632.719727	12.443192
11926.897872	1408.121667	631.494141	41.275013
11926.897872	1408.121667	630.269531	-45.600002
11926.897872	1408.121667	629.042969	23.773724
11926.897872	1408.121667	627.817383	200.612762
11926.897872	1408.121667	626.590820	56.915508
11926.897872	1408.121667	625.365234	61.282032
11926.897872	1408.121667	624.137695	-149.261444
11926.897872	1408.121667	622.911133	25.364149
11926.897872	1408.121667	621.683594	56.022827
11926.897872	1408.121667	620.456055	23.846056
11926.897872	1408.121667	619.228516	-30.616192
11926.897872	1408.121667	618.000977	-0.017548
11926.897872	1408.121667	616.772461	133.808640
11926.897872	1408.121667	615.543945	142.057388
11926.897872	1408.121667	614.314453	-23.763378
11926.897872	1408.121667	613.085938	128.142548
11926.897872	1408.121667	611.856445	16.981785
11926.897872	1408.121667	610.626953	45.406429
11926.897872	1408.121667	609.397461	-15.169733
11926.897872	1408.121667	608.166992	-49.454624
11926.897872	1408.121667	606.936523	-23.104189
11926.897872	1408.121667	605.706055	-63.466846
11926.897872	1408.121667	604.474609	13.353464
11926.897872	1408.121667	603.244141	-12.890789
11926.897872	1408.121667	602.012695	-41.158684
11926.897872	1408.121667	600.780273	-73.468582
11926.897872	1408.121667	599.548828	-117.890694
11926.897872	1408.121667	598.316406	73.824348
11926.897872	1408.121667	597.083984	-130.045700
11926.897872	1408.121667	595.851563	-41.323357
11926.897872	1408.121667	594.618164	7.007990
11926.897872	1408.121667	593.384766	55.304752
11926.897872	1408.121667	592.151367	-75.863487
11926.897872	1408.121667	590.917969	63.108982
11926.897872	1408.121667	589.683594	-126.473183
11926.897872	1408.121667	588.449219	88.987694
11926.897872	1408.121667	587.214844	-17.954914
11926.897872	1408.121667	585.979492	-108.753212
11926.897872	1408.121667	584.745117	-86.767181
11926.897872	1408.121667	583.509766	148.584335
11926.897872	1408.121667	582.273438	-93.175941
11926.897872	1408.121667	581.038086	-87.339615
11926.897872	1408.121667	579.801758	-35.245964
11926.897872	1408.121667	578.565430	16.814585
11926.897872	1408.121667	577.329102	32.645988
11926.897872	1408.121667	576.091797	-5.823645
11926.897872	1408.121667	574.854492	-40.267056
11926.897872	1408.121667	573.617188	82.047455
11926.897872	1408.121667	572.378906	39.543560
11926.897872	1408.121667	571.141602	-91.337288
11926.897872	1408.121667	569.903320	26.865309
11926.897872	1408.121667	568.664063	-43.738571
11926.897872	1408.121667	567.425781	-17.958920
11926.897872	1408.121667	566.186523	21.849676
11926.897872	1408.121667	564.947266	-74.818497
11926.897872	1408.121667	563.708008	57.256020
11926.897872	1408.121667	562.467773	84.964134
11926.897872	1408.121667	561.227539	-25.716471
11926.897872	1408.121667	559.987305	-14.056088
11926.897872	1408.121667	558.747070	-174.795242
11926.897872	1408.121667	557.505859	19.248447
11926.897872	1408.121667	556.264648	14.841228
11926.897872	1408.121667	555.023438	-101.750595
11926.897872	1408.121667	553.781250	-110.148895
11926.897872	1408.121667	552.539063	-76.500008
11926.897872	1408.121667	551.296875	-94.921448
11926.897872	1408.121667	550.054688	-59.300266
11926.897872	1408.121667	548.811523	0.311936
11926.897872	1408.121667	547.569336	-88.153580
11926.897872	1408.121667	546.325195	-30.572147
11926.897872	1408.121667	545.082031	-43.012520
11926.897872	1408.121667	543.837891	-13.467265
11926.897872	1408.121667	542.593750	12.062735
11926.897872	1408.121667	541.349609	-44.361889
11926.897872	1408.121667	540.105469	-26.838238
11926.897872	1408.121667	538.860352	42.611271
11926.897872	1408.121667	537.615234	32.137085
11926.897872	1408.121667	536.369141	31.645458
11926.897872	1408.121667	535.124023	65.089088
11926.897872	1408.121667	533.877930	10.690579
11926.897872	1408.121667	532.631836	-77.612556
11926.897872	1408.121667	531.384766	-76.105064
11926.897872	1408.121667	530.138672	53.056343
11926.897872	1408.121667	528.891602	28.601013
11926.897872	1408.121667	527.643555	-5.819293
11926.897872	1408.121667	526.396484	-18.301765
11926.897872	1408.121667	525.148438	11.066954
11926.897872	1408.121667	523.900391	54.365372
11926.897872	1408.121667	522.652344	215.172913
11926.897872	1408.121667	521.403320	-8.486745
11926.897872	1408.121667	520.154297	14.857423
11926.897872	1408.121667	518.905273	109.854599
11926.897872	1408.121667	517.656250	57.515739
11926.897872	1408.121667	516.406250	-108.235680
11926.897872	1408.121667	515.156250	-96.854980
11926.897872	1408.121667	513.906250	119.390884
11926.897872	1408.121667	512.655273	84.962395
11926.897872	1408.121667	511.404297	-86.649063
11926.897872	1408.121667	510.153320	-113.084541
11926.897872	1408.121667	508.902344	55.246803
11926.897872	1408.121667	507.650391	-150.054062
11926.897872	1408.121667	506.398438	36.071022
11926.897872	1408.121667	505.146484	-22.186590
11926.897872	1408.121667	503.893555	16.867188
11926.897872	1408.121667	502.641602	28.100170
11926.897872	1408.121667	501.388672	114.737473
11926.897872	1408.121667	500.134766	94.166069
11926.897872	1408.121667	498.881836	107.317680
11926.897872	1408.121667	497.627930	74.825935
11926.897872	1408.121667	496.374023	66.130127
11926.897872	1408.121667	495.119141	39.576359
11926.897872	1408.121667	493.865234	36.804268
11926.897872	1408.121667	492.610352	196.525360
11926.897872	1408.121667	491.355469	74.796959
11926.897872	1408.121667	490.099609	93.749588
11926.897872	1408.121667	488.843750	79.003006
11926.897872	1408.121667	487.587891	121.663986
11926.897872	1408.121667	486.332031	170.221573
11926.897872	1408.121667	485.075195	187.062851
11926.897872	1408.121667	483.818359	186.060867
11926.897872	1408.121667	482.561523	240.427658
11926.897872	1408.121667	481.304688	363.971863
11926.897872	1408.121667	480.046875	232.322922
11926.897872	1408.121667	478.789063	252.938736
11926.897872	1408.121667	477.531250	392.115540
11926.897872	1408.121667	476.272461	380.996216
11926.897872	1408.121667	475.013672	271.051208
11926.897872	1408.121667	473.754883	329.026764
11926.897872	1408.121667	472.496094	363.236023
11926.897872	1408.121667	471.236328	377.640289
11926.897872	1408.121667	469.976563	243.931061
11926.897872	1408.121667	468.716797	347.080902
11926.897872	1408.121667	467.456055	278.457062
11926.897872	1408.121667	466.196289	121.033401
11926.897872	1408.121667	464.935547	296.967773
11926.897872	1408.121667	463.673828	244.012619
11926.897872	1408.121667	462.413086	283.689148
11926.897872	1408.121667	461.151367	270.062897
11926.897872	1408.121667	459.889648	140.104843
11926.897872	1408.121667	458.626953	321.446472
11926.897872	1408.121667	457.364258	325.348724
11926.897872	1408.121667	456.101563	167.679825
11926.897872	1408.121667	454.838867	356.557434
11926.897872	1408.121667	453.575195	344.472870
11926.897872	1408.121667	452.312500	300.822998
11926.897872	1408.121667	451.047852	353.523346
11926.897872	1408.121667	449.784180	384.474640
11926.897872	1408.121667	448.519531	366.145111
11926.897872	1408.121667	447.254883	320.196747
11926.897872	1408.121667	445.990234	287.932037
11926.897872	1408.121667	444.725586	296.857574
11926.897872	1408.121667	443.459961	301.739105
11926.897872	1408.121667	442.194336	434.220398
11926.897872	1408.121667	440.927734	150.078033
11926.897872	1408.121667	439.662109	380.497894
11926.897872	1408.121667	438.395508	306.344574
11926.897872	1408.121667	437.127930	302.764191
11926.897872	1408.121667	435.861328	202.884247
11926.897872	1408.121667	434.593750	271.660645
11926.897872	1408.121667	433.326172	328.493713
11926.897872	1408.121667	432.058594	330.235535
11926.897872	1408.121667	430.790039	343.585632
11926.897872	1408.121667	429.521484	454.799805
11926.897872	1408.121667	428.252930	269.823364
11926.897872	1408.121667	426.984375	306.204071
11926.897872	1408.121667	425.714844	367.860687
11926.897872	1408.121667	424.445313	323.531799
11926.897872	1408.121667	423.174805	408.287354
11926.897872	1408.121667	421.905273	302.890747
11926.897872	1408.121667	420.634766	467.482056
11926.897872	1408.121667	419.364258	410.637177
11926.897872	1408.121667	418.092773	539.488892
11926.897872	1408.121667	416.822266	513.522217
11926.897872	1408.121667	415.550781	538.187500
11926.897872	1408.121667	414.278320	525.448730
11926.897872	1408.121667	413.006836	676.703186
11926.897872	1408.121667	411.734375	649.767761
11926.897872	1408.121667	410.461914	433.030701
11926.897872	1408.121667	409.188477	462.291199
11926.897872	1408.121667	407.916016	448.298889
11926.897872	1408.121667	406.642578	383.249573
11926.897872	1408.121667	405.368164	417.508331
11926.897872	1408.121667	404.094727	334.337189
11926.897872	1408.121667	402.820313	391.405182
11926.897872	1408.121667	401.545898	428.620239
11926.897872	1408.121667	400.270508	449.878174
11926.897872	1408.121667	398.996094	365.479675
11926.897872	1408.121667	397.720703	364.611511
11926.897872	1408.121667	396.444336	472.553101
11926.897872	1408.121667	395.168945	295.521667
11926.897872	1408.121667	393.892578	277.973083
11926.897872	1408.121667	392.616211	343.820465
11926.897872	1408.121667	391.339844	364.440796
11926.897872	1408.121667	390.062500	448.896759
11926.897872	1408.121667	388.785156	369.348572
11926.897872	1408.121667	387.507813	375.050964
11926.897872	1408.121667	386.229492	456.194763
11926.897872	1408.121667	384.951172	270.282166
11926.897872	1408.121667	383.672852	261.002686
11926.897872	1408.121667	382.394531	383.496735
11926.897872	1408.121667	381.115234	254.595184
11926.897872	1408.121667	379.835938	395.459778
11926.897872	1408.121667	378.556641	147.020645
11926.897872	1408.121667	377.277344	253.754974
11926.897872	1408.121667	375.997070	208.342957
11926.897872	1408.121667	374.716797	276.982910
11926.897872	1408.121667	373.435547	255.668961
11926.897872	1408.121667	372.155273	235.726318
11926.897872	1408.121667	370.874023	234.576035
11926.897872	1408.121667	369.591797	217.257568
11926.897872	1408.121667	368.310547	242.005157
11926.897872	1408.121667	367.028320	287.402588
11926.897872	1408.121667	365.746094	266.165192
11926.897872	1408.121667	364.463867	108.517090
11926.897872	1408.121667	363.180664	68.457680
11926.897872	1408.121667	361.897461	76.139297
11926.897872	1408.121667	360.614258	238.085327
11926.897872	1408.121667	359.330078	164.765060
11926.897872	1408.121667	358.045898	94.565292
11926.897872	1408.121667	356.761719	139.776398
11926.897872	1408.121667	355.477539	95.088280
11926.897872	1408.121667	354.192383	-68.517563
11926.897872	1408.121667	352.907227	45.744961
11926.897872	1408.121667	351.622070	2.358567
11926.897872	1408.121667	350.336914	-30.309637
11926.897872	1408.121667	349.050781	-50.380577
11926.897872	1408.121667	347.764648	100.684319
11926.897872	1408.121667	346.477539	-50.872932
11926.897872	1408.121667	345.191406	-50.655685
11926.897872	1408.121667	343.904297	4.546854
11926.897872	1408.121667	342.616211	184.216599
11926.897872	1408.121667	341.329102	-31.227957
11926.897872	1408.121667	340.041016	11.042476
11926.897872	1408.121667	338.752930	-15.392315
11926.897872	1408.121667	337.463867	-0.531926
11926.897872	1408.121667	336.175781	1.606482
11926.897872	1408.121667	334.886719	85.470100
11926.897872	1408.121667	333.596680	-229.303558
11926.897872	1408.121667	332.307617	-66.911331
11926.897872	1408.121667	331.017578	22.756460
11926.897872	1408.121667	329.727539	-41.204018
11926.897872	1408.121667	328.436523	-66.045044
11926.897872	1408.121667	327.146484	-47.890835
11926.897872	1408.121667	325.855469	-4.216340
11926.897872	1408.121667	324.563477	20.631493
11926.897872	1408.121667	323.272461	-59.926380
11926.897872	1408.121667	321.980469	96.717911
11926.897872	1408.121667	320.688477	163.232742
11926.897872	1408.121667	319.395508	-18.188116
11926.897872	1408.121667	318.103516	97.109650
11926.897872	1408.121667	316.810547	81.814262
11926.897872	1408.121667	315.516602	68.654930
11926.897872	1408.121667	314.223633	99.993080
11926.897872	1408.121667	312.929688	33.422798
11926.897872	1408.121667	311.635742	-136.741837
11926.897872	1408.121667	310.340820	-151.156052
11926.897872	1408.121667	309.045898	-171.256912
11926.897872	1408.121667	307.750977	-64.570160
11926.897872	1408.121667	306.456055	45.901279
11926.897872	1408.121667	305.160156	44.877701
11926.897872	1408.121667	303.865234	86.047310
11926.897872	1408.121667	302.568359	96.238251
11926.897872	1408.121667	301.272461	60.272991
11926.897872	1408.121667	299.975586	100.753265
11926.897872	1408.121667	298.678711	298.184631
