#X		#Y		#Wave		#Intensity
11876.285638	1498.710000	1999.980469	-170.159988
11876.285638	1498.710000	1999.016602	-121.219246
11876.285638	1498.710000	1998.052734	104.256523
11876.285638	1498.710000	1997.087891	-79.467178
11876.285638	1498.710000	1996.123047	-92.384949
11876.285638	1498.710000	1995.158203	-107.992134
11876.285638	1498.710000	1994.193359	116.442345
11876.285638	1498.710000	1993.228516	28.577187
11876.285638	1498.710000	1992.262695	160.899872
11876.285638	1498.710000	1991.297852	38.016308
11876.285638	1498.710000	1990.332031	48.640900
11876.285638	1498.710000	1989.366211	106.096138
11876.285638	1498.710000	1988.399414	69.346825
11876.285638	1498.710000	1987.433594	101.699112
11876.285638	1498.710000	1986.466797	-54.074902
11876.285638	1498.710000	1985.500977	-34.395184
11876.285638	1498.710000	1984.534180	-27.234661
11876.285638	1498.710000	1983.567383	-99.318306
11876.285638	1498.710000	1982.599609	-141.860626
11876.285638	1498.710000	1981.632813	60.080517
11876.285638	1498.710000	1980.665039	279.107758
11876.285638	1498.710000	1979.697266	21.241455
11876.285638	1498.710000	1978.729492	242.413025
11876.285638	1498.710000	1977.761719	-20.531130
11876.285638	1498.710000	1976.792969	30.006601
11876.285638	1498.710000	1975.825195	114.968307
11876.285638	1498.710000	1974.856445	54.205532
11876.285638	1498.710000	1973.887695	-105.321785
11876.285638	1498.710000	1972.918945	-50.287270
11876.285638	1498.710000	1971.949219	100.813911
11876.285638	1498.710000	1970.980469	-12.064855
11876.285638	1498.710000	1970.010742	-38.703346
11876.285638	1498.710000	1969.041016	23.319347
11876.285638	1498.710000	1968.071289	16.237360
11876.285638	1498.710000	1967.101563	107.639221
11876.285638	1498.710000	1966.130859	201.398880
11876.285638	1498.710000	1965.161133	21.662554
11876.285638	1498.710000	1964.190430	-57.108803
11876.285638	1498.710000	1963.219727	179.233215
11876.285638	1498.710000	1962.249023	88.032600
11876.285638	1498.710000	1961.277344	41.109837
11876.285638	1498.710000	1960.306641	104.884796
11876.285638	1498.710000	1959.334961	20.969786
11876.285638	1498.710000	1958.363281	178.098083
11876.285638	1498.710000	1957.391602	-1.805650
11876.285638	1498.710000	1956.419922	7.648954
11876.285638	1498.710000	1955.447266	216.191833
11876.285638	1498.710000	1954.474609	223.066879
11876.285638	1498.710000	1953.501953	52.965069
11876.285638	1498.710000	1952.529297	8.204222
11876.285638	1498.710000	1951.556641	12.562064
11876.285638	1498.710000	1950.583984	120.047691
11876.285638	1498.710000	1949.610352	274.125793
11876.285638	1498.710000	1948.636719	77.025414
11876.285638	1498.710000	1947.663086	-26.740641
11876.285638	1498.710000	1946.689453	46.222206
11876.285638	1498.710000	1945.715820	6.264521
11876.285638	1498.710000	1944.741211	-102.390633
11876.285638	1498.710000	1943.767578	31.822990
11876.285638	1498.710000	1942.792969	-42.487400
11876.285638	1498.710000	1941.818359	125.969429
11876.285638	1498.710000	1940.842773	-132.217514
11876.285638	1498.710000	1939.868164	82.749290
11876.285638	1498.710000	1938.892578	10.902541
11876.285638	1498.710000	1937.916992	100.792068
11876.285638	1498.710000	1936.941406	-12.683266
11876.285638	1498.710000	1935.965820	40.433945
11876.285638	1498.710000	1934.990234	17.617643
11876.285638	1498.710000	1934.013672	-24.776968
11876.285638	1498.710000	1933.037109	-10.851677
11876.285638	1498.710000	1932.060547	-114.406128
11876.285638	1498.710000	1931.083984	-44.179474
11876.285638	1498.710000	1930.107422	4.007061
11876.285638	1498.710000	1929.129883	-48.108734
11876.285638	1498.710000	1928.153320	129.693848
11876.285638	1498.710000	1927.175781	-125.359726
11876.285638	1498.710000	1926.198242	-6.265153
11876.285638	1498.710000	1925.219727	29.687853
11876.285638	1498.710000	1924.242188	-32.112297
11876.285638	1498.710000	1923.263672	216.426971
11876.285638	1498.710000	1922.285156	125.322433
11876.285638	1498.710000	1921.306641	-36.564953
11876.285638	1498.710000	1920.328125	14.073997
11876.285638	1498.710000	1919.349609	-54.927162
11876.285638	1498.710000	1918.370117	-128.770432
11876.285638	1498.710000	1917.391602	24.407688
11876.285638	1498.710000	1916.412109	18.932121
11876.285638	1498.710000	1915.431641	11.032799
11876.285638	1498.710000	1914.452148	-231.013901
11876.285638	1498.710000	1913.472656	39.195332
11876.285638	1498.710000	1912.492188	197.154663
11876.285638	1498.710000	1911.511719	-5.734986
11876.285638	1498.710000	1910.531250	115.646721
11876.285638	1498.710000	1909.550781	-43.250824
11876.285638	1498.710000	1908.569336	-128.977463
11876.285638	1498.710000	1907.588867	7.029802
11876.285638	1498.710000	1906.607422	-0.698047
11876.285638	1498.710000	1905.625977	-20.581675
11876.285638	1498.710000	1904.644531	-20.960905
11876.285638	1498.710000	1903.662109	-14.020407
11876.285638	1498.710000	1902.680664	109.758530
11876.285638	1498.710000	1901.698242	70.474319
11876.285638	1498.710000	1900.715820	196.659164
11876.285638	1498.710000	1899.733398	89.301247
11876.285638	1498.710000	1898.750000	320.044952
11876.285638	1498.710000	1897.767578	13.354937
11876.285638	1498.710000	1896.784180	52.007416
11876.285638	1498.710000	1895.800781	-140.245895
11876.285638	1498.710000	1894.817383	-133.136673
11876.285638	1498.710000	1893.833984	119.385574
11876.285638	1498.710000	1892.850586	107.042236
11876.285638	1498.710000	1891.866211	-34.006718
11876.285638	1498.710000	1890.881836	43.562500
11876.285638	1498.710000	1889.897461	-141.093246
11876.285638	1498.710000	1888.913086	-158.172562
11876.285638	1498.710000	1887.927734	57.758892
11876.285638	1498.710000	1886.943359	-63.661964
11876.285638	1498.710000	1885.958008	81.843147
11876.285638	1498.710000	1884.972656	25.980612
11876.285638	1498.710000	1883.987305	11.379834
11876.285638	1498.710000	1883.001953	-78.368851
11876.285638	1498.710000	1882.015625	103.444275
11876.285638	1498.710000	1881.029297	42.820396
11876.285638	1498.710000	1880.042969	-17.770321
11876.285638	1498.710000	1879.056641	-155.860672
11876.285638	1498.710000	1878.070313	-226.060577
11876.285638	1498.710000	1877.083984	-54.026897
11876.285638	1498.710000	1876.096680	-37.027462
11876.285638	1498.710000	1875.109375	-174.975311
11876.285638	1498.710000	1874.122070	-44.175755
11876.285638	1498.710000	1873.134766	202.750443
11876.285638	1498.710000	1872.146484	76.953407
11876.285638	1498.710000	1871.159180	-94.755760
11876.285638	1498.710000	1870.170898	-278.491241
11876.285638	1498.710000	1869.182617	81.976357
11876.285638	1498.710000	1868.194336	2.253790
11876.285638	1498.710000	1867.205078	-169.299881
11876.285638	1498.710000	1866.216797	159.531616
11876.285638	1498.710000	1865.227539	50.846977
11876.285638	1498.710000	1864.238281	89.584549
11876.285638	1498.710000	1863.249023	-60.111889
11876.285638	1498.710000	1862.259766	-60.012600
11876.285638	1498.710000	1861.269531	-178.236115
11876.285638	1498.710000	1860.279297	56.065041
11876.285638	1498.710000	1859.290039	-45.244068
11876.285638	1498.710000	1858.298828	-16.199186
11876.285638	1498.710000	1857.308594	-25.776863
11876.285638	1498.710000	1856.318359	49.081104
11876.285638	1498.710000	1855.327148	58.779564
11876.285638	1498.710000	1854.335938	-68.992226
11876.285638	1498.710000	1853.344727	104.664360
11876.285638	1498.710000	1852.353516	-153.259293
11876.285638	1498.710000	1851.362305	119.147133
11876.285638	1498.710000	1850.370117	186.612656
11876.285638	1498.710000	1849.377930	70.935936
11876.285638	1498.710000	1848.385742	75.731384
11876.285638	1498.710000	1847.393555	99.780411
11876.285638	1498.710000	1846.401367	-39.933426
11876.285638	1498.710000	1845.408203	46.692844
11876.285638	1498.710000	1844.415039	-32.812599
11876.285638	1498.710000	1843.421875	-112.305069
11876.285638	1498.710000	1842.428711	262.972443
11876.285638	1498.710000	1841.435547	154.551300
11876.285638	1498.710000	1840.441406	17.289310
11876.285638	1498.710000	1839.448242	151.798523
11876.285638	1498.710000	1838.454102	14.549181
11876.285638	1498.710000	1837.459961	64.830315
11876.285638	1498.710000	1836.464844	-122.866600
11876.285638	1498.710000	1835.470703	-2.937145
11876.285638	1498.710000	1834.475586	64.067276
11876.285638	1498.710000	1833.480469	-99.573990
11876.285638	1498.710000	1832.485352	173.910721
11876.285638	1498.710000	1831.490234	31.869215
11876.285638	1498.710000	1830.495117	17.090740
11876.285638	1498.710000	1829.499023	83.896690
11876.285638	1498.710000	1828.502930	-14.936382
11876.285638	1498.710000	1827.506836	157.363190
11876.285638	1498.710000	1826.510742	192.831726
11876.285638	1498.710000	1825.513672	257.035645
11876.285638	1498.710000	1824.517578	11.845586
11876.285638	1498.710000	1823.520508	155.112915
11876.285638	1498.710000	1822.523438	96.938583
11876.285638	1498.710000	1821.526367	137.013260
11876.285638	1498.710000	1820.529297	155.472870
11876.285638	1498.710000	1819.531250	145.139526
11876.285638	1498.710000	1818.533203	115.610451
11876.285638	1498.710000	1817.535156	71.686646
11876.285638	1498.710000	1816.537109	123.515808
11876.285638	1498.710000	1815.539063	187.256378
11876.285638	1498.710000	1814.540039	241.357254
11876.285638	1498.710000	1813.541992	-89.874550
11876.285638	1498.710000	1812.542969	76.627441
11876.285638	1498.710000	1811.543945	111.457809
11876.285638	1498.710000	1810.543945	-11.617302
11876.285638	1498.710000	1809.544922	113.996574
11876.285638	1498.710000	1808.544922	64.992569
11876.285638	1498.710000	1807.544922	56.597286
11876.285638	1498.710000	1806.544922	165.262207
11876.285638	1498.710000	1805.544922	226.052078
11876.285638	1498.710000	1804.544922	200.769974
11876.285638	1498.710000	1803.543945	-65.789886
11876.285638	1498.710000	1802.542969	95.161842
11876.285638	1498.710000	1801.541992	-56.769993
11876.285638	1498.710000	1800.541016	161.311432
11876.285638	1498.710000	1799.539063	-19.318348
11876.285638	1498.710000	1798.538086	141.303360
11876.285638	1498.710000	1797.536133	115.718407
11876.285638	1498.710000	1796.534180	123.486992
11876.285638	1498.710000	1795.532227	66.807747
11876.285638	1498.710000	1794.529297	167.465759
11876.285638	1498.710000	1793.527344	74.932091
11876.285638	1498.710000	1792.524414	75.334068
11876.285638	1498.710000	1791.521484	-31.557859
11876.285638	1498.710000	1790.518555	9.257736
11876.285638	1498.710000	1789.514648	52.381145
11876.285638	1498.710000	1788.511719	-52.232597
11876.285638	1498.710000	1787.507813	69.352928
11876.285638	1498.710000	1786.503906	114.647751
11876.285638	1498.710000	1785.500000	114.641617
11876.285638	1498.710000	1784.496094	-87.716721
11876.285638	1498.710000	1783.491211	-6.905367
11876.285638	1498.710000	1782.486328	97.605492
11876.285638	1498.710000	1781.481445	73.574211
11876.285638	1498.710000	1780.476563	66.138046
11876.285638	1498.710000	1779.471680	-62.617474
11876.285638	1498.710000	1778.465820	-89.169716
11876.285638	1498.710000	1777.460938	24.458223
11876.285638	1498.710000	1776.455078	78.568817
11876.285638	1498.710000	1775.449219	-104.989281
11876.285638	1498.710000	1774.442383	98.645241
11876.285638	1498.710000	1773.436523	24.273031
11876.285638	1498.710000	1772.429688	127.948097
11876.285638	1498.710000	1771.422852	288.495941
11876.285638	1498.710000	1770.416016	31.166239
11876.285638	1498.710000	1769.409180	-19.668270
11876.285638	1498.710000	1768.402344	57.575127
11876.285638	1498.710000	1767.394531	54.064037
11876.285638	1498.710000	1766.386719	254.461227
11876.285638	1498.710000	1765.378906	70.558434
11876.285638	1498.710000	1764.371094	81.071228
11876.285638	1498.710000	1763.362305	-91.014633
11876.285638	1498.710000	1762.354492	82.918411
11876.285638	1498.710000	1761.345703	237.758102
11876.285638	1498.710000	1760.336914	127.132477
11876.285638	1498.710000	1759.328125	21.218124
11876.285638	1498.710000	1758.318359	107.093300
11876.285638	1498.710000	1757.308594	-95.996506
11876.285638	1498.710000	1756.299805	-78.915916
11876.285638	1498.710000	1755.290039	63.525818
11876.285638	1498.710000	1754.279297	-35.531010
11876.285638	1498.710000	1753.269531	-210.324997
11876.285638	1498.710000	1752.258789	109.258080
11876.285638	1498.710000	1751.249023	-37.256420
11876.285638	1498.710000	1750.238281	-82.112930
11876.285638	1498.710000	1749.226563	-207.408386
11876.285638	1498.710000	1748.215820	-136.535950
11876.285638	1498.710000	1747.204102	50.032055
11876.285638	1498.710000	1746.193359	89.971123
11876.285638	1498.710000	1745.181641	-7.195208
11876.285638	1498.710000	1744.168945	221.537735
11876.285638	1498.710000	1743.157227	36.869297
11876.285638	1498.710000	1742.144531	156.760162
11876.285638	1498.710000	1741.132813	31.045721
11876.285638	1498.710000	1740.120117	-118.297974
11876.285638	1498.710000	1739.106445	32.011162
11876.285638	1498.710000	1738.093750	-79.670563
11876.285638	1498.710000	1737.080078	-0.329344
11876.285638	1498.710000	1736.067383	-119.178902
11876.285638	1498.710000	1735.053711	-275.784760
11876.285638	1498.710000	1734.040039	-85.867493
11876.285638	1498.710000	1733.025391	-103.508331
11876.285638	1498.710000	1732.011719	-189.545425
11876.285638	1498.710000	1730.997070	-51.803600
11876.285638	1498.710000	1729.982422	-62.586071
11876.285638	1498.710000	1728.967773	-111.116310
11876.285638	1498.710000	1727.952148	66.343468
11876.285638	1498.710000	1726.937500	5.896272
11876.285638	1498.710000	1725.921875	6.592668
11876.285638	1498.710000	1724.906250	-56.319408
11876.285638	1498.710000	1723.890625	59.540138
11876.285638	1498.710000	1722.875000	17.674471
11876.285638	1498.710000	1721.858398	83.939232
11876.285638	1498.710000	1720.841797	-23.902689
11876.285638	1498.710000	1719.825195	251.451691
11876.285638	1498.710000	1718.808594	89.417694
11876.285638	1498.710000	1717.791992	-107.876480
11876.285638	1498.710000	1716.774414	190.621841
11876.285638	1498.710000	1715.756836	103.657333
11876.285638	1498.710000	1714.739258	-121.922989
11876.285638	1498.710000	1713.721680	-206.580734
11876.285638	1498.710000	1712.704102	-143.354614
11876.285638	1498.710000	1711.685547	-178.820160
11876.285638	1498.710000	1710.667969	142.415894
11876.285638	1498.710000	1709.649414	-97.375061
11876.285638	1498.710000	1708.630859	153.198669
11876.285638	1498.710000	1707.611328	-65.530426
11876.285638	1498.710000	1706.592773	91.002304
11876.285638	1498.710000	1705.573242	-17.556173
11876.285638	1498.710000	1704.553711	16.865791
11876.285638	1498.710000	1703.534180	65.273506
11876.285638	1498.710000	1702.513672	-36.387505
11876.285638	1498.710000	1701.494141	-16.230650
11876.285638	1498.710000	1700.473633	158.454956
11876.285638	1498.710000	1699.453125	91.776443
11876.285638	1498.710000	1698.432617	102.335861
11876.285638	1498.710000	1697.412109	61.324127
11876.285638	1498.710000	1696.390625	144.317352
11876.285638	1498.710000	1695.369141	75.099686
11876.285638	1498.710000	1694.347656	-99.443588
11876.285638	1498.710000	1693.326172	97.981033
11876.285638	1498.710000	1692.304688	-15.805616
11876.285638	1498.710000	1691.282227	-36.077248
11876.285638	1498.710000	1690.260742	182.088211
11876.285638	1498.710000	1689.238281	187.383942
11876.285638	1498.710000	1688.214844	43.035950
11876.285638	1498.710000	1687.192383	-80.274559
11876.285638	1498.710000	1686.168945	144.495911
11876.285638	1498.710000	1685.146484	271.029755
11876.285638	1498.710000	1684.123047	65.835114
11876.285638	1498.710000	1683.099609	115.166626
11876.285638	1498.710000	1682.075195	89.715050
11876.285638	1498.710000	1681.051758	-29.130758
11876.285638	1498.710000	1680.027344	13.021781
11876.285638	1498.710000	1679.002930	197.423615
11876.285638	1498.710000	1677.978516	92.457207
11876.285638	1498.710000	1676.953125	148.391281
11876.285638	1498.710000	1675.928711	29.383722
11876.285638	1498.710000	1674.903320	264.717346
11876.285638	1498.710000	1673.877930	126.979279
11876.285638	1498.710000	1672.852539	224.613571
11876.285638	1498.710000	1671.826172	228.957123
11876.285638	1498.710000	1670.800781	216.954407
11876.285638	1498.710000	1669.774414	176.952316
11876.285638	1498.710000	1668.748047	246.363403
11876.285638	1498.710000	1667.721680	252.843689
11876.285638	1498.710000	1666.694336	156.849045
11876.285638	1498.710000	1665.667969	312.200348
11876.285638	1498.710000	1664.640625	232.432587
11876.285638	1498.710000	1663.613281	96.821884
11876.285638	1498.710000	1662.585938	270.566254
11876.285638	1498.710000	1661.557617	211.647751
11876.285638	1498.710000	1660.530273	480.547852
11876.285638	1498.710000	1659.501953	423.857880
11876.285638	1498.710000	1658.473633	209.112885
11876.285638	1498.710000	1657.444336	233.739212
11876.285638	1498.710000	1656.416016	360.549652
11876.285638	1498.710000	1655.386719	268.927246
11876.285638	1498.710000	1654.358398	263.239624
11876.285638	1498.710000	1653.328125	431.638947
11876.285638	1498.710000	1652.298828	342.273499
11876.285638	1498.710000	1651.269531	531.424011
11876.285638	1498.710000	1650.239258	465.204193
11876.285638	1498.710000	1649.208984	582.262695
11876.285638	1498.710000	1648.178711	492.800537
11876.285638	1498.710000	1647.148438	602.791260
11876.285638	1498.710000	1646.117188	508.653076
11876.285638	1498.710000	1645.086914	523.492432
11876.285638	1498.710000	1644.055664	582.326599
11876.285638	1498.710000	1643.024414	743.075989
11876.285638	1498.710000	1641.992188	933.847229
11876.285638	1498.710000	1640.960938	862.769348
11876.285638	1498.710000	1639.928711	919.065674
11876.285638	1498.710000	1638.896484	961.424133
11876.285638	1498.710000	1637.864258	725.930603
11876.285638	1498.710000	1636.832031	1242.772461
11876.285638	1498.710000	1635.798828	974.864990
11876.285638	1498.710000	1634.766602	887.524780
11876.285638	1498.710000	1633.733398	1084.728027
11876.285638	1498.710000	1632.699219	930.271362
11876.285638	1498.710000	1631.666016	1136.604492
11876.285638	1498.710000	1630.632813	836.520447
11876.285638	1498.710000	1629.598633	982.650330
11876.285638	1498.710000	1628.564453	964.623657
11876.285638	1498.710000	1627.530273	946.590759
11876.285638	1498.710000	1626.495117	921.611389
11876.285638	1498.710000	1625.460938	1289.294434
11876.285638	1498.710000	1624.425781	783.905701
11876.285638	1498.710000	1623.390625	987.514465
11876.285638	1498.710000	1622.355469	914.029724
11876.285638	1498.710000	1621.319336	976.723145
11876.285638	1498.710000	1620.284180	1039.395996
11876.285638	1498.710000	1619.248047	1060.500854
11876.285638	1498.710000	1618.211914	1000.861633
11876.285638	1498.710000	1617.174805	1104.967651
11876.285638	1498.710000	1616.138672	1183.677002
11876.285638	1498.710000	1615.101563	1349.942017
11876.285638	1498.710000	1614.065430	1301.805420
11876.285638	1498.710000	1613.027344	1249.057617
11876.285638	1498.710000	1611.990234	1244.723511
11876.285638	1498.710000	1610.953125	1125.219116
11876.285638	1498.710000	1609.915039	1215.326050
11876.285638	1498.710000	1608.876953	1337.637573
11876.285638	1498.710000	1607.838867	1234.299316
11876.285638	1498.710000	1606.800781	1414.109131
11876.285638	1498.710000	1605.761719	1264.772095
11876.285638	1498.710000	1604.723633	1580.263428
11876.285638	1498.710000	1603.684570	1490.776001
11876.285638	1498.710000	1602.644531	1440.418945
11876.285638	1498.710000	1601.605469	1272.831665
11876.285638	1498.710000	1600.566406	1245.557007
11876.285638	1498.710000	1599.526367	1429.757568
11876.285638	1498.710000	1598.486328	1632.282593
11876.285638	1498.710000	1597.446289	1485.505981
11876.285638	1498.710000	1596.405273	1550.128418
11876.285638	1498.710000	1595.365234	1660.687012
11876.285638	1498.710000	1594.324219	1638.024292
11876.285638	1498.710000	1593.283203	1739.361694
11876.285638	1498.710000	1592.242188	1358.650269
11876.285638	1498.710000	1591.200195	1414.131470
11876.285638	1498.710000	1590.159180	1437.498901
11876.285638	1498.710000	1589.117188	1557.217285
11876.285638	1498.710000	1588.075195	1736.542725
11876.285638	1498.710000	1587.032227	1619.998413
11876.285638	1498.710000	1585.990234	1753.435669
11876.285638	1498.710000	1584.947266	1522.370239
11876.285638	1498.710000	1583.904297	1639.771240
11876.285638	1498.710000	1582.861328	1690.704956
11876.285638	1498.710000	1581.818359	1718.737671
11876.285638	1498.710000	1580.775391	1545.228760
11876.285638	1498.710000	1579.731445	1816.064697
11876.285638	1498.710000	1578.687500	1647.233887
11876.285638	1498.710000	1577.643555	1627.291992
11876.285638	1498.710000	1576.598633	1733.254395
11876.285638	1498.710000	1575.554688	1489.125244
11876.285638	1498.710000	1574.509766	1574.550537
11876.285638	1498.710000	1573.464844	1653.116455
11876.285638	1498.710000	1572.419922	1720.252563
11876.285638	1498.710000	1571.374023	1881.131592
11876.285638	1498.710000	1570.329102	1607.663574
11876.285638	1498.710000	1569.283203	1631.448120
11876.285638	1498.710000	1568.237305	1531.868896
11876.285638	1498.710000	1567.191406	1295.293945
11876.285638	1498.710000	1566.144531	1490.548584
11876.285638	1498.710000	1565.098633	1441.421265
11876.285638	1498.710000	1564.051758	1565.874512
11876.285638	1498.710000	1563.004883	1409.537598
11876.285638	1498.710000	1561.957031	1102.661011
11876.285638	1498.710000	1560.910156	1170.193848
11876.285638	1498.710000	1559.862305	1096.287354
11876.285638	1498.710000	1558.814453	1177.565918
11876.285638	1498.710000	1557.766602	1065.012817
11876.285638	1498.710000	1556.718750	1230.727417
11876.285638	1498.710000	1555.669922	790.024963
11876.285638	1498.710000	1554.621094	746.132019
11876.285638	1498.710000	1553.573242	971.212524
11876.285638	1498.710000	1552.523438	1011.694946
11876.285638	1498.710000	1551.474609	831.269592
11876.285638	1498.710000	1550.424805	662.346558
11876.285638	1498.710000	1549.375000	709.860229
11876.285638	1498.710000	1548.325195	928.151245
11876.285638	1498.710000	1547.275391	832.312134
11876.285638	1498.710000	1546.225586	661.472656
11876.285638	1498.710000	1545.174805	934.413147
11876.285638	1498.710000	1544.124023	624.970154
11876.285638	1498.710000	1543.073242	559.058411
11876.285638	1498.710000	1542.022461	620.570313
11876.285638	1498.710000	1540.970703	504.785583
11876.285638	1498.710000	1539.919922	498.218384
11876.285638	1498.710000	1538.868164	696.235046
11876.285638	1498.710000	1537.815430	589.773926
11876.285638	1498.710000	1536.763672	551.575439
11876.285638	1498.710000	1535.710938	799.615662
11876.285638	1498.710000	1534.659180	636.633667
11876.285638	1498.710000	1533.606445	585.018860
11876.285638	1498.710000	1532.552734	612.927368
11876.285638	1498.710000	1531.500000	770.255188
11876.285638	1498.710000	1530.446289	471.528748
11876.285638	1498.710000	1529.393555	431.604675
11876.285638	1498.710000	1528.338867	820.409546
11876.285638	1498.710000	1527.285156	492.584473
11876.285638	1498.710000	1526.231445	278.317078
11876.285638	1498.710000	1525.176758	578.737549
11876.285638	1498.710000	1524.122070	632.093079
11876.285638	1498.710000	1523.067383	463.455597
11876.285638	1498.710000	1522.012695	417.287689
11876.285638	1498.710000	1520.957031	391.590851
11876.285638	1498.710000	1519.901367	191.617905
11876.285638	1498.710000	1518.845703	209.145798
11876.285638	1498.710000	1517.790039	244.851898
11876.285638	1498.710000	1516.734375	348.516083
11876.285638	1498.710000	1515.677734	277.986969
11876.285638	1498.710000	1514.621094	139.699509
11876.285638	1498.710000	1513.564453	241.292938
11876.285638	1498.710000	1512.507813	247.952408
11876.285638	1498.710000	1511.450195	-75.399971
11876.285638	1498.710000	1510.393555	46.764423
11876.285638	1498.710000	1509.335938	150.877197
11876.285638	1498.710000	1508.278320	-54.520725
11876.285638	1498.710000	1507.219727	-38.371220
11876.285638	1498.710000	1506.162109	-62.791836
11876.285638	1498.710000	1505.103516	98.046143
11876.285638	1498.710000	1504.044922	-102.329437
11876.285638	1498.710000	1502.986328	-178.389740
11876.285638	1498.710000	1501.926758	-30.911230
11876.285638	1498.710000	1500.868164	-106.780869
11876.285638	1498.710000	1499.808594	-2.062701
11876.285638	1498.710000	1498.749023	23.760899
11876.285638	1498.710000	1497.688477	-65.349876
11876.285638	1498.710000	1496.628906	-16.799307
11876.285638	1498.710000	1495.568359	-80.891029
11876.285638	1498.710000	1494.507813	-75.001343
11876.285638	1498.710000	1493.447266	-73.529221
11876.285638	1498.710000	1492.386719	-148.561172
11876.285638	1498.710000	1491.325195	-221.224426
11876.285638	1498.710000	1490.263672	32.760616
11876.285638	1498.710000	1489.202148	90.861122
11876.285638	1498.710000	1488.140625	-96.327782
11876.285638	1498.710000	1487.079102	60.986267
11876.285638	1498.710000	1486.016602	-6.681961
11876.285638	1498.710000	1484.954102	107.994492
11876.285638	1498.710000	1483.891602	90.015968
11876.285638	1498.710000	1482.829102	218.309586
11876.285638	1498.710000	1481.765625	184.766388
11876.285638	1498.710000	1480.702148	54.684654
11876.285638	1498.710000	1479.638672	196.679901
11876.285638	1498.710000	1478.575195	84.807152
11876.285638	1498.710000	1477.511719	92.162384
11876.285638	1498.710000	1476.447266	229.838272
11876.285638	1498.710000	1475.382813	104.921631
11876.285638	1498.710000	1474.318359	152.942017
11876.285638	1498.710000	1473.253906	373.788361
11876.285638	1498.710000	1472.189453	444.521454
11876.285638	1498.710000	1471.124023	270.572327
11876.285638	1498.710000	1470.058594	182.351425
11876.285638	1498.710000	1468.993164	387.791626
11876.285638	1498.710000	1467.927734	357.660736
11876.285638	1498.710000	1466.861328	343.694763
11876.285638	1498.710000	1465.794922	181.781326
11876.285638	1498.710000	1464.728516	295.432343
11876.285638	1498.710000	1463.662109	147.512283
11876.285638	1498.710000	1462.594727	205.079742
11876.285638	1498.710000	1461.528320	249.661636
11876.285638	1498.710000	1460.460938	200.373184
11876.285638	1498.710000	1459.393555	390.843567
11876.285638	1498.710000	1458.326172	379.870789
11876.285638	1498.710000	1457.257813	357.384979
11876.285638	1498.710000	1456.189453	306.541412
11876.285638	1498.710000	1455.121094	447.695679
11876.285638	1498.710000	1454.052734	479.076385
11876.285638	1498.710000	1452.984375	511.065460
11876.285638	1498.710000	1451.915039	259.848358
11876.285638	1498.710000	1450.845703	474.158936
11876.285638	1498.710000	1449.776367	252.931854
11876.285638	1498.710000	1448.707031	346.474731
11876.285638	1498.710000	1447.636719	-14.723842
11876.285638	1498.710000	1446.567383	109.620979
11876.285638	1498.710000	1445.497070	363.748047
11876.285638	1498.710000	1444.425781	471.926208
11876.285638	1498.710000	1443.355469	194.688782
11876.285638	1498.710000	1442.285156	363.477539
11876.285638	1498.710000	1441.213867	368.062866
11876.285638	1498.710000	1440.142578	110.947021
11876.285638	1498.710000	1439.070313	52.839008
11876.285638	1498.710000	1437.999023	237.848236
11876.285638	1498.710000	1436.926758	324.230652
11876.285638	1498.710000	1435.854492	380.606293
11876.285638	1498.710000	1434.782227	521.337463
11876.285638	1498.710000	1433.709961	482.775574
11876.285638	1498.710000	1432.636719	412.857727
11876.285638	1498.710000	1431.563477	376.567810
11876.285638	1498.710000	1430.490234	511.772919
11876.285638	1498.710000	1429.416992	417.322540
11876.285638	1498.710000	1428.343750	498.638458
11876.285638	1498.710000	1427.269531	422.980438
11876.285638	1498.710000	1426.195313	205.801514
11876.285638	1498.710000	1425.121094	239.082077
11876.285638	1498.710000	1424.046875	284.365906
11876.285638	1498.710000	1422.971680	263.410156
11876.285638	1498.710000	1421.896484	187.324738
11876.285638	1498.710000	1420.821289	242.935654
11876.285638	1498.710000	1419.746094	328.715393
11876.285638	1498.710000	1418.669922	100.928276
11876.285638	1498.710000	1417.594727	283.855682
11876.285638	1498.710000	1416.518555	371.643799
11876.285638	1498.710000	1415.442383	158.925308
11876.285638	1498.710000	1414.365234	-51.436455
11876.285638	1498.710000	1413.289063	278.497284
11876.285638	1498.710000	1412.211914	163.007202
11876.285638	1498.710000	1411.134766	180.994141
11876.285638	1498.710000	1410.057617	15.149254
11876.285638	1498.710000	1408.979492	155.705460
11876.285638	1498.710000	1407.902344	248.734314
11876.285638	1498.710000	1406.824219	202.551575
11876.285638	1498.710000	1405.746094	170.892563
11876.285638	1498.710000	1404.666992	249.552017
11876.285638	1498.710000	1403.588867	279.597809
11876.285638	1498.710000	1402.509766	396.031982
11876.285638	1498.710000	1401.430664	166.102081
11876.285638	1498.710000	1400.351563	223.518738
11876.285638	1498.710000	1399.271484	302.970673
11876.285638	1498.710000	1398.192383	388.476990
11876.285638	1498.710000	1397.112305	216.574722
11876.285638	1498.710000	1396.031250	480.758911
11876.285638	1498.710000	1394.951172	260.653503
11876.285638	1498.710000	1393.871094	226.645615
11876.285638	1498.710000	1392.790039	387.055389
11876.285638	1498.710000	1391.708984	282.619690
11876.285638	1498.710000	1390.626953	306.014313
11876.285638	1498.710000	1389.545898	337.816315
11876.285638	1498.710000	1388.463867	513.795593
11876.285638	1498.710000	1387.381836	471.180969
11876.285638	1498.710000	1386.299805	610.791260
11876.285638	1498.710000	1385.217773	449.647522
11876.285638	1498.710000	1384.134766	537.313660
11876.285638	1498.710000	1383.051758	634.905762
11876.285638	1498.710000	1381.968750	477.688934
11876.285638	1498.710000	1380.885742	587.817078
11876.285638	1498.710000	1379.802734	602.404907
11876.285638	1498.710000	1378.718750	556.926819
11876.285638	1498.710000	1377.634766	654.122559
11876.285638	1498.710000	1376.550781	605.572571
11876.285638	1498.710000	1375.465820	581.127563
11876.285638	1498.710000	1374.381836	637.772278
11876.285638	1498.710000	1373.296875	461.277954
11876.285638	1498.710000	1372.211914	550.450134
11876.285638	1498.710000	1371.126953	548.113464
11876.285638	1498.710000	1370.041016	657.173706
11876.285638	1498.710000	1368.955078	617.886292
11876.285638	1498.710000	1367.869141	534.083740
11876.285638	1498.710000	1366.783203	523.732239
11876.285638	1498.710000	1365.697266	373.146729
11876.285638	1498.710000	1364.610352	488.512512
11876.285638	1498.710000	1363.523438	370.246796
11876.285638	1498.710000	1362.436523	373.854828
11876.285638	1498.710000	1361.349609	467.321411
11876.285638	1498.710000	1360.261719	522.839050
11876.285638	1498.710000	1359.174805	312.768036
11876.285638	1498.710000	1358.086914	320.534180
11876.285638	1498.710000	1356.998047	330.971985
11876.285638	1498.710000	1355.910156	362.962860
11876.285638	1498.710000	1354.821289	378.299164
11876.285638	1498.710000	1353.732422	549.082825
11876.285638	1498.710000	1352.643555	419.877625
11876.285638	1498.710000	1351.554688	413.829498
11876.285638	1498.710000	1350.464844	432.233063
11876.285638	1498.710000	1349.375000	366.935120
11876.285638	1498.710000	1348.285156	436.895905
11876.285638	1498.710000	1347.195313	530.482971
11876.285638	1498.710000	1346.105469	659.438782
11876.285638	1498.710000	1345.014648	466.052490
11876.285638	1498.710000	1343.923828	478.825775
11876.285638	1498.710000	1342.833008	560.960083
11876.285638	1498.710000	1341.741211	558.951721
11876.285638	1498.710000	1340.650391	354.339294
11876.285638	1498.710000	1339.558594	636.450195
11876.285638	1498.710000	1338.466797	411.963440
11876.285638	1498.710000	1337.374023	647.975220
11876.285638	1498.710000	1336.282227	493.491302
11876.285638	1498.710000	1335.189453	547.178467
11876.285638	1498.710000	1334.096680	553.479126
11876.285638	1498.710000	1333.003906	681.453125
11876.285638	1498.710000	1331.910156	645.173584
11876.285638	1498.710000	1330.817383	634.274353
11876.285638	1498.710000	1329.723633	403.073334
11876.285638	1498.710000	1328.629883	474.933502
11876.285638	1498.710000	1327.535156	305.825562
11876.285638	1498.710000	1326.441406	521.892761
11876.285638	1498.710000	1325.346680	623.996399
11876.285638	1498.710000	1324.251953	469.975708
11876.285638	1498.710000	1323.156250	321.869049
11876.285638	1498.710000	1322.061523	402.254730
11876.285638	1498.710000	1320.965820	382.457336
11876.285638	1498.710000	1319.870117	520.222168
11876.285638	1498.710000	1318.774414	391.364807
11876.285638	1498.710000	1317.678711	400.737061
11876.285638	1498.710000	1316.582031	493.676422
11876.285638	1498.710000	1315.485352	331.749207
11876.285638	1498.710000	1314.388672	294.059143
11876.285638	1498.710000	1313.291016	251.959473
11876.285638	1498.710000	1312.194336	319.750183
11876.285638	1498.710000	1311.096680	246.797791
11876.285638	1498.710000	1309.999023	108.630257
11876.285638	1498.710000	1308.901367	72.931374
11876.285638	1498.710000	1307.802734	244.435486
11876.285638	1498.710000	1306.705078	281.492828
11876.285638	1498.710000	1305.606445	301.555389
11876.285638	1498.710000	1304.506836	115.663460
11876.285638	1498.710000	1303.408203	257.098694
11876.285638	1498.710000	1302.308594	206.485153
11876.285638	1498.710000	1301.208984	188.433456
11876.285638	1498.710000	1300.109375	297.727905
11876.285638	1498.710000	1299.009766	159.943909
11876.285638	1498.710000	1297.909180	267.449921
11876.285638	1498.710000	1296.808594	120.943291
11876.285638	1498.710000	1295.708008	182.261078
11876.285638	1498.710000	1294.607422	328.156372
11876.285638	1498.710000	1293.506836	244.906693
11876.285638	1498.710000	1292.405273	159.407059
11876.285638	1498.710000	1291.303711	235.869247
11876.285638	1498.710000	1290.202148	223.707489
11876.285638	1498.710000	1289.099609	280.612793
11876.285638	1498.710000	1287.998047	91.692848
11876.285638	1498.710000	1286.895508	56.819832
11876.285638	1498.710000	1285.792969	250.343048
11876.285638	1498.710000	1284.689453	25.027870
11876.285638	1498.710000	1283.586914	105.684814
11876.285638	1498.710000	1282.483398	322.294739
11876.285638	1498.710000	1281.379883	175.350342
11876.285638	1498.710000	1280.276367	278.373260
11876.285638	1498.710000	1279.171875	360.776489
11876.285638	1498.710000	1278.067383	303.569275
11876.285638	1498.710000	1276.962891	229.514374
11876.285638	1498.710000	1275.858398	73.993835
11876.285638	1498.710000	1274.753906	261.936493
11876.285638	1498.710000	1273.648438	52.022038
11876.285638	1498.710000	1272.542969	224.800613
11876.285638	1498.710000	1271.437500	178.844589
11876.285638	1498.710000	1270.331055	114.619919
11876.285638	1498.710000	1269.225586	290.464722
11876.285638	1498.710000	1268.119141	232.046051
11876.285638	1498.710000	1267.012695	363.159058
11876.285638	1498.710000	1265.906250	366.969849
11876.285638	1498.710000	1264.798828	328.440582
11876.285638	1498.710000	1263.691406	359.031311
11876.285638	1498.710000	1262.583984	189.427734
11876.285638	1498.710000	1261.476563	303.627075
11876.285638	1498.710000	1260.368164	228.641327
11876.285638	1498.710000	1259.260742	312.055328
11876.285638	1498.710000	1258.152344	179.452560
11876.285638	1498.710000	1257.043945	230.635742
11876.285638	1498.710000	1255.934570	149.715561
11876.285638	1498.710000	1254.825195	120.280884
11876.285638	1498.710000	1253.716797	229.960556
11876.285638	1498.710000	1252.606445	79.949707
11876.285638	1498.710000	1251.497070	12.514448
11876.285638	1498.710000	1250.387695	151.400284
11876.285638	1498.710000	1249.277344	195.532410
11876.285638	1498.710000	1248.166992	219.245728
11876.285638	1498.710000	1247.055664	21.629539
11876.285638	1498.710000	1245.945313	62.255745
11876.285638	1498.710000	1244.833984	140.299850
11876.285638	1498.710000	1243.722656	121.489311
11876.285638	1498.710000	1242.611328	176.974670
11876.285638	1498.710000	1241.499023	127.836487
11876.285638	1498.710000	1240.387695	96.009903
11876.285638	1498.710000	1239.275391	66.591385
11876.285638	1498.710000	1238.162109	116.007874
11876.285638	1498.710000	1237.049805	114.509941
11876.285638	1498.710000	1235.936523	9.926492
11876.285638	1498.710000	1234.823242	97.981049
11876.285638	1498.710000	1233.709961	86.969711
11876.285638	1498.710000	1232.596680	-10.929596
11876.285638	1498.710000	1231.482422	-23.354088
11876.285638	1498.710000	1230.369141	-39.220146
11876.285638	1498.710000	1229.253906	-38.087273
11876.285638	1498.710000	1228.139648	16.739212
11876.285638	1498.710000	1227.025391	54.543980
11876.285638	1498.710000	1225.910156	103.556015
11876.285638	1498.710000	1224.794922	-67.997185
11876.285638	1498.710000	1223.679688	-33.505062
11876.285638	1498.710000	1222.563477	75.475235
11876.285638	1498.710000	1221.447266	114.345047
11876.285638	1498.710000	1220.331055	-93.159065
11876.285638	1498.710000	1219.214844	165.358643
11876.285638	1498.710000	1218.098633	-35.903358
11876.285638	1498.710000	1216.981445	-78.925095
11876.285638	1498.710000	1215.864258	-24.760246
11876.285638	1498.710000	1214.747070	25.901012
11876.285638	1498.710000	1213.629883	124.850929
11876.285638	1498.710000	1212.511719	255.667038
11876.285638	1498.710000	1211.393555	-7.947428
11876.285638	1498.710000	1210.275391	171.508774
11876.285638	1498.710000	1209.157227	111.553497
11876.285638	1498.710000	1208.038086	18.748602
11876.285638	1498.710000	1206.918945	53.597206
11876.285638	1498.710000	1205.799805	37.118145
11876.285638	1498.710000	1204.680664	-21.923643
11876.285638	1498.710000	1203.560547	61.506313
11876.285638	1498.710000	1202.441406	14.081154
11876.285638	1498.710000	1201.321289	-85.565056
11876.285638	1498.710000	1200.200195	-96.888123
11876.285638	1498.710000	1199.080078	-196.249939
11876.285638	1498.710000	1197.958984	-169.703049
11876.285638	1498.710000	1196.837891	-228.092789
11876.285638	1498.710000	1195.716797	40.272591
11876.285638	1498.710000	1194.594727	-174.363602
11876.285638	1498.710000	1193.473633	-92.100304
11876.285638	1498.710000	1192.351563	-16.094772
11876.285638	1498.710000	1191.229492	-105.652145
11876.285638	1498.710000	1190.106445	-116.009651
11876.285638	1498.710000	1188.984375	-179.002350
11876.285638	1498.710000	1187.861328	-160.297424
11876.285638	1498.710000	1186.738281	-135.070038
11876.285638	1498.710000	1185.614258	-10.525249
11876.285638	1498.710000	1184.491211	-204.495941
11876.285638	1498.710000	1183.367188	-144.518646
11876.285638	1498.710000	1182.243164	-269.003723
11876.285638	1498.710000	1181.119141	-128.652908
11876.285638	1498.710000	1179.994141	-96.908730
11876.285638	1498.710000	1178.869141	-37.909954
11876.285638	1498.710000	1177.744141	0.013765
11876.285638	1498.710000	1176.619141	-22.285591
11876.285638	1498.710000	1175.493164	-77.291649
11876.285638	1498.710000	1174.368164	-126.410896
11876.285638	1498.710000	1173.242188	-65.824905
11876.285638	1498.710000	1172.115234	-124.655403
11876.285638	1498.710000	1170.989258	-140.727600
11876.285638	1498.710000	1169.862305	-110.203720
11876.285638	1498.710000	1168.735352	31.993633
11876.285638	1498.710000	1167.608398	-96.211243
11876.285638	1498.710000	1166.481445	-50.427254
11876.285638	1498.710000	1165.353516	-75.145119
11876.285638	1498.710000	1164.225586	-12.643710
11876.285638	1498.710000	1163.097656	-88.470398
11876.285638	1498.710000	1161.968750	14.873267
11876.285638	1498.710000	1160.840820	-95.538788
11876.285638	1498.710000	1159.711914	48.753662
11876.285638	1498.710000	1158.583008	-9.678446
11876.285638	1498.710000	1157.453125	2.787229
11876.285638	1498.710000	1156.324219	-18.661768
11876.285638	1498.710000	1155.194336	-73.006905
11876.285638	1498.710000	1154.064453	-24.108706
11876.285638	1498.710000	1152.933594	-101.259026
11876.285638	1498.710000	1151.803711	-23.108835
11876.285638	1498.710000	1150.672852	53.002670
11876.285638	1498.710000	1149.541992	-158.651047
11876.285638	1498.710000	1148.411133	-107.372131
11876.285638	1498.710000	1147.279297	-96.226067
11876.285638	1498.710000	1146.147461	-98.049599
11876.285638	1498.710000	1145.015625	-33.710278
11876.285638	1498.710000	1143.883789	-35.274887
11876.285638	1498.710000	1142.750977	-24.297329
11876.285638	1498.710000	1141.619141	-79.838875
11876.285638	1498.710000	1140.486328	69.548653
11876.285638	1498.710000	1139.352539	97.762245
11876.285638	1498.710000	1138.219727	2.881546
11876.285638	1498.710000	1137.085938	-62.205086
11876.285638	1498.710000	1135.952148	42.042038
11876.285638	1498.710000	1134.818359	0.012257
11876.285638	1498.710000	1133.683594	40.920895
11876.285638	1498.710000	1132.549805	109.131271
11876.285638	1498.710000	1131.415039	89.830177
11876.285638	1498.710000	1130.279297	170.614822
11876.285638	1498.710000	1129.144531	125.243393
11876.285638	1498.710000	1128.008789	288.974670
11876.285638	1498.710000	1126.873047	293.392670
11876.285638	1498.710000	1125.737305	264.067505
11876.285638	1498.710000	1124.601563	194.931488
11876.285638	1498.710000	1123.464844	281.674255
11876.285638	1498.710000	1122.328125	352.300934
11876.285638	1498.710000	1121.191406	485.352325
11876.285638	1498.710000	1120.054688	390.910248
11876.285638	1498.710000	1118.916992	420.861359
11876.285638	1498.710000	1117.779297	566.226685
11876.285638	1498.710000	1116.641602	560.570496
11876.285638	1498.710000	1115.503906	419.189484
11876.285638	1498.710000	1114.365234	298.429108
11876.285638	1498.710000	1113.226563	412.836975
11876.285638	1498.710000	1112.087891	181.480331
11876.285638	1498.710000	1110.949219	377.930298
11876.285638	1498.710000	1109.809570	439.915955
11876.285638	1498.710000	1108.669922	220.215637
11876.285638	1498.710000	1107.530273	405.533295
11876.285638	1498.710000	1106.390625	323.618805
11876.285638	1498.710000	1105.250000	152.943283
11876.285638	1498.710000	1104.109375	271.703247
11876.285638	1498.710000	1102.968750	230.717880
11876.285638	1498.710000	1101.828125	373.185364
11876.285638	1498.710000	1100.686523	349.971161
11876.285638	1498.710000	1099.544922	241.828629
11876.285638	1498.710000	1098.403320	267.834869
11876.285638	1498.710000	1097.261719	165.388229
11876.285638	1498.710000	1096.120117	232.828491
11876.285638	1498.710000	1094.977539	152.186905
11876.285638	1498.710000	1093.834961	64.299194
11876.285638	1498.710000	1092.691406	165.104721
11876.285638	1498.710000	1091.548828	270.459930
11876.285638	1498.710000	1090.405273	204.589233
11876.285638	1498.710000	1089.261719	245.437027
11876.285638	1498.710000	1088.118164	300.091156
11876.285638	1498.710000	1086.973633	190.605011
11876.285638	1498.710000	1085.829102	230.087204
11876.285638	1498.710000	1084.684570	241.435196
11876.285638	1498.710000	1083.540039	251.410706
11876.285638	1498.710000	1082.395508	110.854568
11876.285638	1498.710000	1081.250000	98.987938
11876.285638	1498.710000	1080.104492	101.941177
11876.285638	1498.710000	1078.958984	218.007278
11876.285638	1498.710000	1077.812500	230.290100
11876.285638	1498.710000	1076.666016	266.982635
11876.285638	1498.710000	1075.519531	374.697296
11876.285638	1498.710000	1074.373047	305.380402
11876.285638	1498.710000	1073.226563	153.212677
11876.285638	1498.710000	1072.079102	115.049706
11876.285638	1498.710000	1070.931641	347.787933
11876.285638	1498.710000	1069.784180	240.116882
11876.285638	1498.710000	1068.635742	315.652740
11876.285638	1498.710000	1067.487305	219.217896
11876.285638	1498.710000	1066.338867	222.229477
11876.285638	1498.710000	1065.190430	288.702240
11876.285638	1498.710000	1064.041992	404.713440
11876.285638	1498.710000	1062.892578	213.719833
11876.285638	1498.710000	1061.743164	194.809753
11876.285638	1498.710000	1060.593750	418.811462
11876.285638	1498.710000	1059.443359	368.361298
11876.285638	1498.710000	1058.292969	294.275269
11876.285638	1498.710000	1057.142578	330.179474
11876.285638	1498.710000	1055.992188	285.098572
11876.285638	1498.710000	1054.841797	140.571747
11876.285638	1498.710000	1053.690430	249.714584
11876.285638	1498.710000	1052.539063	309.100250
11876.285638	1498.710000	1051.387695	112.902748
11876.285638	1498.710000	1050.235352	105.323471
11876.285638	1498.710000	1049.083984	281.066620
11876.285638	1498.710000	1047.931641	222.704681
11876.285638	1498.710000	1046.778320	237.681061
11876.285638	1498.710000	1045.625977	357.229584
11876.285638	1498.710000	1044.472656	16.639235
11876.285638	1498.710000	1043.319336	166.450394
11876.285638	1498.710000	1042.166016	64.347885
11876.285638	1498.710000	1041.012695	245.042877
11876.285638	1498.710000	1039.858398	30.016624
11876.285638	1498.710000	1038.704102	170.733582
11876.285638	1498.710000	1037.549805	41.361980
11876.285638	1498.710000	1036.394531	104.693497
11876.285638	1498.710000	1035.239258	265.708344
11876.285638	1498.710000	1034.083984	167.863861
11876.285638	1498.710000	1032.928711	27.922009
11876.285638	1498.710000	1031.773438	4.717062
11876.285638	1498.710000	1030.617188	84.703583
11876.285638	1498.710000	1029.460938	185.739014
11876.285638	1498.710000	1028.304688	245.907639
11876.285638	1498.710000	1027.147461	280.945129
11876.285638	1498.710000	1025.991211	9.909312
11876.285638	1498.710000	1024.833984	121.233116
11876.285638	1498.710000	1023.675781	100.858147
11876.285638	1498.710000	1022.518555	173.293640
11876.285638	1498.710000	1021.360352	43.863899
11876.285638	1498.710000	1020.202148	14.795920
11876.285638	1498.710000	1019.043945	-100.005676
11876.285638	1498.710000	1017.884766	123.645653
11876.285638	1498.710000	1016.726563	27.776217
11876.285638	1498.710000	1015.567383	184.129837
11876.285638	1498.710000	1014.407227	6.933276
11876.285638	1498.710000	1013.248047	-23.053473
11876.285638	1498.710000	1012.087891	122.666084
11876.285638	1498.710000	1010.927734	53.550758
11876.285638	1498.710000	1009.767578	58.829418
11876.285638	1498.710000	1008.606445	65.132645
11876.285638	1498.710000	1007.446289	90.939590
11876.285638	1498.710000	1006.285156	92.377228
11876.285638	1498.710000	1005.123047	27.664557
11876.285638	1498.710000	1003.961914	167.982162
11876.285638	1498.710000	1002.799805	175.535889
11876.285638	1498.710000	1001.637695	51.410851
11876.285638	1498.710000	1000.475586	319.633820
11876.285638	1498.710000	999.312500	84.356560
11876.285638	1498.710000	998.149414	148.959259
11876.285638	1498.710000	996.986328	262.022400
11876.285638	1498.710000	995.823242	118.592255
11876.285638	1498.710000	994.659180	159.742340
11876.285638	1498.710000	993.496094	59.413742
11876.285638	1498.710000	992.332031	108.937584
11876.285638	1498.710000	991.166992	-16.654572
11876.285638	1498.710000	990.002930	268.848114
11876.285638	1498.710000	988.837891	312.698425
11876.285638	1498.710000	987.672852	-53.307068
11876.285638	1498.710000	986.506836	275.220337
11876.285638	1498.710000	985.341797	144.068939
11876.285638	1498.710000	984.175781	271.136749
11876.285638	1498.710000	983.009766	257.016357
11876.285638	1498.710000	981.843750	21.198477
11876.285638	1498.710000	980.676758	23.665359
11876.285638	1498.710000	979.509766	9.051725
11876.285638	1498.710000	978.342773	236.364838
11876.285638	1498.710000	977.175781	34.014305
11876.285638	1498.710000	976.007813	231.861191
11876.285638	1498.710000	974.839844	-14.839521
11876.285638	1498.710000	973.671875	86.728012
11876.285638	1498.710000	972.503906	21.855255
11876.285638	1498.710000	971.334961	229.320145
11876.285638	1498.710000	970.166016	-169.945480
11876.285638	1498.710000	968.997070	126.392830
11876.285638	1498.710000	967.828125	222.324753
11876.285638	1498.710000	966.658203	66.806831
11876.285638	1498.710000	965.488281	95.360886
11876.285638	1498.710000	964.318359	144.913132
11876.285638	1498.710000	963.148438	-102.414886
11876.285638	1498.710000	961.977539	-34.044685
11876.285638	1498.710000	960.806641	-26.297091
11876.285638	1498.710000	959.635742	168.978729
11876.285638	1498.710000	958.463867	123.731293
11876.285638	1498.710000	957.292969	124.038483
11876.285638	1498.710000	956.121094	66.781258
11876.285638	1498.710000	954.948242	54.868187
11876.285638	1498.710000	953.776367	76.969086
11876.285638	1498.710000	952.603516	341.623962
11876.285638	1498.710000	951.430664	63.509232
11876.285638	1498.710000	950.257813	124.067749
11876.285638	1498.710000	949.084961	145.232544
11876.285638	1498.710000	947.911133	214.278122
11876.285638	1498.710000	946.737305	171.545059
11876.285638	1498.710000	945.563477	188.843384
11876.285638	1498.710000	944.388672	121.978729
11876.285638	1498.710000	943.213867	319.952911
11876.285638	1498.710000	942.039063	62.298599
11876.285638	1498.710000	940.864258	200.930267
11876.285638	1498.710000	939.688477	372.655457
11876.285638	1498.710000	938.513672	239.128891
11876.285638	1498.710000	937.337891	196.066788
11876.285638	1498.710000	936.161133	217.474350
11876.285638	1498.710000	934.985352	117.311180
11876.285638	1498.710000	933.808594	174.436844
11876.285638	1498.710000	932.631836	274.324036
11876.285638	1498.710000	931.454102	140.613129
11876.285638	1498.710000	930.277344	145.281433
11876.285638	1498.710000	929.099609	118.889526
11876.285638	1498.710000	927.921875	144.903336
11876.285638	1498.710000	926.743164	-3.048555
11876.285638	1498.710000	925.565430	80.066940
11876.285638	1498.710000	924.386719	203.630600
11876.285638	1498.710000	923.208008	53.306618
11876.285638	1498.710000	922.028320	33.960819
11876.285638	1498.710000	920.849609	31.261185
11876.285638	1498.710000	919.669922	32.635208
11876.285638	1498.710000	919.474609	-75.929085
11876.285638	1498.710000	918.309570	75.976723
11876.285638	1498.710000	917.143555	213.532578
11876.285638	1498.710000	915.977539	151.258240
11876.285638	1498.710000	914.810547	98.504761
11876.285638	1498.710000	913.644531	14.853332
11876.285638	1498.710000	912.477539	85.700012
11876.285638	1498.710000	911.310547	61.458138
11876.285638	1498.710000	910.143555	-110.079941
11876.285638	1498.710000	908.975586	-231.682404
11876.285638	1498.710000	907.807617	10.075834
11876.285638	1498.710000	906.639648	-61.673035
11876.285638	1498.710000	905.471680	-74.063454
11876.285638	1498.710000	904.303711	-60.355820
11876.285638	1498.710000	903.134766	0.788056
11876.285638	1498.710000	901.965820	-123.142242
11876.285638	1498.710000	900.796875	-88.124908
11876.285638	1498.710000	899.626953	-8.079597
11876.285638	1498.710000	898.457031	-79.809677
11876.285638	1498.710000	897.287109	-61.449600
11876.285638	1498.710000	896.117188	-78.657272
11876.285638	1498.710000	894.947266	3.645743
11876.285638	1498.710000	893.776367	197.241852
11876.285638	1498.710000	892.605469	-16.615616
11876.285638	1498.710000	891.434570	-154.622681
11876.285638	1498.710000	890.262695	19.919050
11876.285638	1498.710000	889.091797	-25.747700
11876.285638	1498.710000	887.919922	-28.808468
11876.285638	1498.710000	886.748047	39.103352
11876.285638	1498.710000	885.575195	114.074776
11876.285638	1498.710000	884.403320	-23.843817
11876.285638	1498.710000	883.230469	-93.143707
11876.285638	1498.710000	882.057617	-134.053986
11876.285638	1498.710000	880.883789	-127.682991
11876.285638	1498.710000	879.710938	183.513824
11876.285638	1498.710000	878.537109	-3.930465
11876.285638	1498.710000	877.362305	-110.993202
11876.285638	1498.710000	876.188477	37.036201
11876.285638	1498.710000	875.013672	-228.202301
11876.285638	1498.710000	873.839844	-56.615818
11876.285638	1498.710000	872.664063	-45.596855
11876.285638	1498.710000	871.489258	33.841267
11876.285638	1498.710000	870.313477	-49.542912
11876.285638	1498.710000	869.138672	60.515903
11876.285638	1498.710000	867.962891	17.238136
11876.285638	1498.710000	866.786133	70.642509
11876.285638	1498.710000	865.610352	6.154481
11876.285638	1498.710000	864.433594	-4.105175
11876.285638	1498.710000	863.256836	-96.836250
11876.285638	1498.710000	862.079102	38.982643
11876.285638	1498.710000	860.902344	-65.506241
11876.285638	1498.710000	859.724609	-73.405807
11876.285638	1498.710000	858.546875	-234.341141
11876.285638	1498.710000	857.368164	-148.054581
11876.285638	1498.710000	856.190430	-57.101124
11876.285638	1498.710000	855.011719	-107.364975
11876.285638	1498.710000	853.833008	70.576607
11876.285638	1498.710000	852.654297	-0.868060
11876.285638	1498.710000	851.474609	-222.781677
11876.285638	1498.710000	850.294922	-61.392879
11876.285638	1498.710000	849.115234	45.863369
11876.285638	1498.710000	847.935547	131.921234
11876.285638	1498.710000	846.754883	-66.354263
11876.285638	1498.710000	845.575195	-71.928284
11876.285638	1498.710000	844.393555	-117.428619
11876.285638	1498.710000	843.212891	20.239449
11876.285638	1498.710000	842.032227	35.770977
11876.285638	1498.710000	840.850586	2.003597
11876.285638	1498.710000	839.668945	36.299957
11876.285638	1498.710000	838.486328	49.464470
11876.285638	1498.710000	837.304688	144.719467
11876.285638	1498.710000	836.122070	-8.659307
11876.285638	1498.710000	834.939453	-56.465454
11876.285638	1498.710000	833.756836	-15.173578
11876.285638	1498.710000	832.573242	-39.525211
11876.285638	1498.710000	831.389648	88.442848
11876.285638	1498.710000	830.206055	5.503048
11876.285638	1498.710000	829.022461	-91.459862
11876.285638	1498.710000	827.838867	17.696682
11876.285638	1498.710000	826.654297	26.127577
11876.285638	1498.710000	825.469727	205.435654
11876.285638	1498.710000	824.284180	0.843204
11876.285638	1498.710000	823.099609	91.159431
11876.285638	1498.710000	821.914063	71.483208
11876.285638	1498.710000	820.728516	14.389033
11876.285638	1498.710000	819.542969	106.975471
11876.285638	1498.710000	818.356445	-1.544033
11876.285638	1498.710000	817.169922	30.227262
11876.285638	1498.710000	815.983398	97.037315
11876.285638	1498.710000	814.796875	-172.644730
11876.285638	1498.710000	813.609375	-124.516098
11876.285638	1498.710000	812.422852	-127.793968
11876.285638	1498.710000	811.235352	41.721992
11876.285638	1498.710000	810.046875	-120.349190
11876.285638	1498.710000	808.859375	46.752846
11876.285638	1498.710000	807.670898	-49.918568
11876.285638	1498.710000	806.482422	-74.226974
11876.285638	1498.710000	805.293945	90.415382
11876.285638	1498.710000	804.104492	-50.530136
11876.285638	1498.710000	802.915039	32.421078
11876.285638	1498.710000	801.725586	185.268860
11876.285638	1498.710000	800.536133	214.519867
11876.285638	1498.710000	799.345703	-47.528610
11876.285638	1498.710000	798.155273	-188.326080
11876.285638	1498.710000	796.964844	-35.581219
11876.285638	1498.710000	795.774414	-118.114044
11876.285638	1498.710000	794.583008	-44.620983
11876.285638	1498.710000	793.392578	19.522625
11876.285638	1498.710000	792.200195	-172.375626
11876.285638	1498.710000	791.008789	-129.186752
11876.285638	1498.710000	789.816406	-158.140350
11876.285638	1498.710000	788.625000	-68.469162
11876.285638	1498.710000	787.432617	2.555657
11876.285638	1498.710000	786.239258	24.719009
11876.285638	1498.710000	785.046875	-108.875404
11876.285638	1498.710000	783.853516	-30.939215
11876.285638	1498.710000	782.660156	14.426713
11876.285638	1498.710000	781.465820	-135.367722
11876.285638	1498.710000	780.272461	60.948681
11876.285638	1498.710000	779.078125	43.544601
11876.285638	1498.710000	777.883789	40.067707
11876.285638	1498.710000	776.688477	-7.517954
11876.285638	1498.710000	775.494141	2.921170
11876.285638	1498.710000	774.298828	20.305620
11876.285638	1498.710000	773.103516	12.155151
11876.285638	1498.710000	771.907227	-16.874840
11876.285638	1498.710000	770.711914	97.854134
11876.285638	1498.710000	769.515625	40.977367
11876.285638	1498.710000	768.318359	-62.242786
11876.285638	1498.710000	767.122070	177.518723
11876.285638	1498.710000	765.924805	14.051428
11876.285638	1498.710000	764.727539	140.173935
11876.285638	1498.710000	763.530273	-44.085777
11876.285638	1498.710000	762.333008	160.689941
11876.285638	1498.710000	761.134766	-23.525295
11876.285638	1498.710000	759.936523	44.586185
11876.285638	1498.710000	758.738281	54.807236
11876.285638	1498.710000	757.540039	-217.224808
11876.285638	1498.710000	756.340820	10.428487
11876.285638	1498.710000	755.141602	157.036942
11876.285638	1498.710000	753.942383	46.941017
11876.285638	1498.710000	752.742188	103.300758
11876.285638	1498.710000	751.541992	-64.545616
11876.285638	1498.710000	750.341797	70.336113
11876.285638	1498.710000	749.141602	66.542229
11876.285638	1498.710000	747.941406	4.993275
11876.285638	1498.710000	746.740234	84.303291
11876.285638	1498.710000	745.539063	108.156273
11876.285638	1498.710000	744.337891	175.832108
11876.285638	1498.710000	743.135742	218.077606
11876.285638	1498.710000	741.933594	75.714485
11876.285638	1498.710000	740.731445	-68.916824
11876.285638	1498.710000	739.529297	169.314148
11876.285638	1498.710000	738.326172	153.799652
11876.285638	1498.710000	737.124023	69.113365
11876.285638	1498.710000	735.919922	101.981583
11876.285638	1498.710000	734.716797	61.076637
11876.285638	1498.710000	733.513672	-23.605745
11876.285638	1498.710000	732.309570	237.215256
11876.285638	1498.710000	731.105469	108.730644
11876.285638	1498.710000	729.900391	83.879402
11876.285638	1498.710000	728.696289	-76.793846
11876.285638	1498.710000	727.491211	31.832422
11876.285638	1498.710000	726.286133	-41.381786
11876.285638	1498.710000	725.080078	94.743637
11876.285638	1498.710000	723.874023	-104.999611
11876.285638	1498.710000	722.668945	120.705650
11876.285638	1498.710000	721.461914	-37.633774
11876.285638	1498.710000	720.255859	167.222549
11876.285638	1498.710000	719.048828	-99.121773
11876.285638	1498.710000	717.841797	-103.468178
11876.285638	1498.710000	716.634766	75.918770
11876.285638	1498.710000	715.427734	34.733479
11876.285638	1498.710000	714.219727	-247.549210
11876.285638	1498.710000	713.011719	-52.265823
11876.285638	1498.710000	711.803711	-47.588142
11876.285638	1498.710000	710.594727	-70.479401
11876.285638	1498.710000	709.385742	30.491053
11876.285638	1498.710000	708.176758	-63.573666
11876.285638	1498.710000	706.967773	-15.455199
11876.285638	1498.710000	705.758789	-43.048466
11876.285638	1498.710000	704.548828	115.004959
11876.285638	1498.710000	703.338867	32.326290
11876.285638	1498.710000	702.127930	192.520004
11876.285638	1498.710000	700.917969	132.699203
11876.285638	1498.710000	699.707031	8.740220
11876.285638	1498.710000	698.496094	168.732132
11876.285638	1498.710000	697.285156	49.324966
11876.285638	1498.710000	696.073242	64.971703
11876.285638	1498.710000	694.861328	27.944159
11876.285638	1498.710000	693.649414	32.075954
11876.285638	1498.710000	692.436523	132.238937
11876.285638	1498.710000	691.224609	225.461746
11876.285638	1498.710000	690.011719	55.666168
11876.285638	1498.710000	688.798828	212.795059
11876.285638	1498.710000	687.584961	173.267059
11876.285638	1498.710000	686.372070	44.603226
11876.285638	1498.710000	685.158203	-33.788540
11876.285638	1498.710000	683.943359	-61.938934
11876.285638	1498.710000	682.729492	28.627420
11876.285638	1498.710000	681.514648	80.301636
11876.285638	1498.710000	680.299805	143.325653
11876.285638	1498.710000	679.084961	85.330048
11876.285638	1498.710000	677.869141	88.920715
11876.285638	1498.710000	676.653320	215.649292
11876.285638	1498.710000	675.437500	-47.712029
11876.285638	1498.710000	674.221680	277.282745
11876.285638	1498.710000	673.004883	253.300949
11876.285638	1498.710000	671.789063	288.548096
11876.285638	1498.710000	670.571289	326.011993
11876.285638	1498.710000	669.354492	256.340057
11876.285638	1498.710000	668.136719	403.040924
11876.285638	1498.710000	666.919922	283.192474
11876.285638	1498.710000	665.701172	165.622925
11876.285638	1498.710000	664.483398	262.036804
11876.285638	1498.710000	663.264648	103.465950
11876.285638	1498.710000	662.045898	197.483932
11876.285638	1498.710000	660.827148	250.468521
11876.285638	1498.710000	659.608398	446.674377
11876.285638	1498.710000	658.388672	306.205048
11876.285638	1498.710000	657.168945	181.662628
11876.285638	1498.710000	655.949219	59.399502
11876.285638	1498.710000	654.728516	78.034744
11876.285638	1498.710000	653.507813	162.504578
11876.285638	1498.710000	652.287109	83.339142
11876.285638	1498.710000	651.066406	158.593002
11876.285638	1498.710000	649.844727	61.201530
11876.285638	1498.710000	648.623047	206.704651
11876.285638	1498.710000	647.401367	327.132538
11876.285638	1498.710000	646.179688	14.055415
11876.285638	1498.710000	644.957031	202.434921
11876.285638	1498.710000	643.734375	218.304352
11876.285638	1498.710000	642.511719	125.270065
11876.285638	1498.710000	641.289063	125.183609
11876.285638	1498.710000	640.065430	115.978172
11876.285638	1498.710000	638.841797	13.813214
11876.285638	1498.710000	637.618164	86.107666
11876.285638	1498.710000	636.393555	113.014374
11876.285638	1498.710000	635.168945	318.782776
11876.285638	1498.710000	633.944336	207.407059
11876.285638	1498.710000	632.719727	182.057159
11876.285638	1498.710000	631.494141	190.617279
11876.285638	1498.710000	630.269531	110.874825
11876.285638	1498.710000	629.042969	80.886490
11876.285638	1498.710000	627.817383	206.939484
11876.285638	1498.710000	626.590820	-1.809312
11876.285638	1498.710000	625.365234	74.369255
11876.285638	1498.710000	624.137695	143.680893
11876.285638	1498.710000	622.911133	90.875237
11876.285638	1498.710000	621.683594	1.889190
11876.285638	1498.710000	620.456055	64.251099
11876.285638	1498.710000	619.228516	149.125198
11876.285638	1498.710000	618.000977	161.655228
11876.285638	1498.710000	616.772461	185.418472
11876.285638	1498.710000	615.543945	105.295021
11876.285638	1498.710000	614.314453	9.359183
11876.285638	1498.710000	613.085938	44.279430
11876.285638	1498.710000	611.856445	182.898453
11876.285638	1498.710000	610.626953	7.933467
11876.285638	1498.710000	609.397461	-76.811531
11876.285638	1498.710000	608.166992	217.148773
11876.285638	1498.710000	606.936523	148.076675
11876.285638	1498.710000	605.706055	117.294762
11876.285638	1498.710000	604.474609	-3.635541
11876.285638	1498.710000	603.244141	78.157051
11876.285638	1498.710000	602.012695	-29.291840
11876.285638	1498.710000	600.780273	59.130363
11876.285638	1498.710000	599.548828	102.456314
11876.285638	1498.710000	598.316406	-50.071491
11876.285638	1498.710000	597.083984	116.918007
11876.285638	1498.710000	595.851563	-40.132385
11876.285638	1498.710000	594.618164	-5.996334
11876.285638	1498.710000	593.384766	41.575287
11876.285638	1498.710000	592.151367	93.581978
11876.285638	1498.710000	590.917969	62.365036
11876.285638	1498.710000	589.683594	44.599949
11876.285638	1498.710000	588.449219	-24.869253
11876.285638	1498.710000	587.214844	-11.241263
11876.285638	1498.710000	585.979492	137.078293
11876.285638	1498.710000	584.745117	262.847595
11876.285638	1498.710000	583.509766	177.520462
11876.285638	1498.710000	582.273438	164.003647
11876.285638	1498.710000	581.038086	136.997925
11876.285638	1498.710000	579.801758	69.583931
11876.285638	1498.710000	578.565430	55.990814
11876.285638	1498.710000	577.329102	26.672329
11876.285638	1498.710000	576.091797	60.099697
11876.285638	1498.710000	574.854492	313.131073
11876.285638	1498.710000	573.617188	-7.642050
11876.285638	1498.710000	572.378906	-59.467236
11876.285638	1498.710000	571.141602	-84.418625
11876.285638	1498.710000	569.903320	-75.802551
11876.285638	1498.710000	568.664063	69.352325
11876.285638	1498.710000	567.425781	-7.190071
11876.285638	1498.710000	566.186523	-9.878753
11876.285638	1498.710000	564.947266	-166.984207
11876.285638	1498.710000	563.708008	-53.366982
11876.285638	1498.710000	562.467773	57.935234
11876.285638	1498.710000	561.227539	-9.723917
11876.285638	1498.710000	559.987305	72.406357
11876.285638	1498.710000	558.747070	91.894241
11876.285638	1498.710000	557.505859	-27.203245
11876.285638	1498.710000	556.264648	-68.076294
11876.285638	1498.710000	555.023438	29.535686
11876.285638	1498.710000	553.781250	-49.343498
11876.285638	1498.710000	552.539063	-146.071945
11876.285638	1498.710000	551.296875	214.837540
11876.285638	1498.710000	550.054688	-69.414993
11876.285638	1498.710000	548.811523	-36.720779
11876.285638	1498.710000	547.569336	129.798050
11876.285638	1498.710000	546.325195	-20.492035
11876.285638	1498.710000	545.082031	-184.107117
11876.285638	1498.710000	543.837891	-55.617702
11876.285638	1498.710000	542.593750	1.476657
11876.285638	1498.710000	541.349609	22.879005
11876.285638	1498.710000	540.105469	-149.572845
11876.285638	1498.710000	538.860352	-43.528957
11876.285638	1498.710000	537.615234	-211.464432
11876.285638	1498.710000	536.369141	-192.311569
11876.285638	1498.710000	535.124023	18.271578
11876.285638	1498.710000	533.877930	135.278854
11876.285638	1498.710000	532.631836	-90.438622
11876.285638	1498.710000	531.384766	-91.380547
11876.285638	1498.710000	530.138672	-76.752815
11876.285638	1498.710000	528.891602	22.360285
11876.285638	1498.710000	527.643555	-23.084282
11876.285638	1498.710000	526.396484	-39.610783
11876.285638	1498.710000	525.148438	19.421104
11876.285638	1498.710000	523.900391	5.108578
11876.285638	1498.710000	522.652344	10.795297
11876.285638	1498.710000	521.403320	67.555779
11876.285638	1498.710000	520.154297	33.260620
11876.285638	1498.710000	518.905273	-131.988708
11876.285638	1498.710000	517.656250	-13.081016
11876.285638	1498.710000	516.406250	-16.263073
11876.285638	1498.710000	515.156250	-68.243431
11876.285638	1498.710000	513.906250	-98.014427
11876.285638	1498.710000	512.655273	-78.984955
11876.285638	1498.710000	511.404297	-90.992538
11876.285638	1498.710000	510.153320	-129.584229
11876.285638	1498.710000	508.902344	131.018082
11876.285638	1498.710000	507.650391	-133.576935
11876.285638	1498.710000	506.398438	-87.932480
11876.285638	1498.710000	505.146484	77.295921
11876.285638	1498.710000	503.893555	-32.093636
11876.285638	1498.710000	502.641602	-134.776291
11876.285638	1498.710000	501.388672	-82.481789
11876.285638	1498.710000	500.134766	-72.239716
11876.285638	1498.710000	498.881836	-250.022232
11876.285638	1498.710000	497.627930	-197.692856
11876.285638	1498.710000	496.374023	-37.015251
11876.285638	1498.710000	495.119141	-276.551727
11876.285638	1498.710000	493.865234	-104.838181
11876.285638	1498.710000	492.610352	-56.937309
11876.285638	1498.710000	491.355469	-148.230148
11876.285638	1498.710000	490.099609	-18.575947
11876.285638	1498.710000	488.843750	-171.638062
11876.285638	1498.710000	487.587891	35.284035
11876.285638	1498.710000	486.332031	-210.397232
11876.285638	1498.710000	485.075195	-3.518717
11876.285638	1498.710000	483.818359	212.118301
11876.285638	1498.710000	482.561523	10.737621
11876.285638	1498.710000	481.304688	56.491753
11876.285638	1498.710000	480.046875	-100.627167
11876.285638	1498.710000	478.789063	128.155502
11876.285638	1498.710000	477.531250	19.623959
11876.285638	1498.710000	476.272461	43.377666
11876.285638	1498.710000	475.013672	142.052383
11876.285638	1498.710000	473.754883	143.785675
11876.285638	1498.710000	472.496094	209.405426
11876.285638	1498.710000	471.236328	217.767853
11876.285638	1498.710000	469.976563	87.464424
11876.285638	1498.710000	468.716797	161.914688
11876.285638	1498.710000	467.456055	-58.498917
11876.285638	1498.710000	466.196289	84.186852
11876.285638	1498.710000	464.935547	61.870945
11876.285638	1498.710000	463.673828	96.751007
11876.285638	1498.710000	462.413086	-48.636753
11876.285638	1498.710000	461.151367	80.799843
11876.285638	1498.710000	459.889648	104.716080
11876.285638	1498.710000	458.626953	128.633621
11876.285638	1498.710000	457.364258	123.998573
11876.285638	1498.710000	456.101563	125.967033
11876.285638	1498.710000	454.838867	167.467499
11876.285638	1498.710000	453.575195	48.711773
11876.285638	1498.710000	452.312500	0.248860
11876.285638	1498.710000	451.047852	6.661909
11876.285638	1498.710000	449.784180	107.411606
11876.285638	1498.710000	448.519531	-52.877289
11876.285638	1498.710000	447.254883	-31.094463
11876.285638	1498.710000	445.990234	185.793365
11876.285638	1498.710000	444.725586	32.169987
11876.285638	1498.710000	443.459961	-16.210611
11876.285638	1498.710000	442.194336	62.494854
11876.285638	1498.710000	440.927734	42.587029
11876.285638	1498.710000	439.662109	-67.104942
11876.285638	1498.710000	438.395508	35.609230
11876.285638	1498.710000	437.127930	120.749298
11876.285638	1498.710000	435.861328	131.428268
11876.285638	1498.710000	434.593750	26.112339
11876.285638	1498.710000	433.326172	102.384193
11876.285638	1498.710000	432.058594	-16.054291
11876.285638	1498.710000	430.790039	-29.519815
11876.285638	1498.710000	429.521484	37.873631
11876.285638	1498.710000	428.252930	162.026718
11876.285638	1498.710000	426.984375	299.195435
11876.285638	1498.710000	425.714844	119.471542
11876.285638	1498.710000	424.445313	-3.434254
11876.285638	1498.710000	423.174805	116.052811
11876.285638	1498.710000	421.905273	132.819077
11876.285638	1498.710000	420.634766	64.380272
11876.285638	1498.710000	419.364258	181.402603
11876.285638	1498.710000	418.092773	56.109379
11876.285638	1498.710000	416.822266	170.749924
11876.285638	1498.710000	415.550781	158.758743
11876.285638	1498.710000	414.278320	131.416290
11876.285638	1498.710000	413.006836	130.155289
11876.285638	1498.710000	411.734375	189.814545
11876.285638	1498.710000	410.461914	218.834747
11876.285638	1498.710000	409.188477	156.225433
11876.285638	1498.710000	407.916016	187.184769
11876.285638	1498.710000	406.642578	-30.247795
11876.285638	1498.710000	405.368164	189.879532
11876.285638	1498.710000	404.094727	133.339020
11876.285638	1498.710000	402.820313	113.664001
11876.285638	1498.710000	401.545898	159.113586
11876.285638	1498.710000	400.270508	200.022125
11876.285638	1498.710000	398.996094	292.941193
11876.285638	1498.710000	397.720703	218.212723
11876.285638	1498.710000	396.444336	243.316010
11876.285638	1498.710000	395.168945	163.895447
11876.285638	1498.710000	393.892578	210.322601
11876.285638	1498.710000	392.616211	221.753174
11876.285638	1498.710000	391.339844	37.476349
11876.285638	1498.710000	390.062500	139.669861
11876.285638	1498.710000	388.785156	74.404068
11876.285638	1498.710000	387.507813	160.846237
11876.285638	1498.710000	386.229492	127.619896
11876.285638	1498.710000	384.951172	276.372192
11876.285638	1498.710000	383.672852	144.952148
11876.285638	1498.710000	382.394531	154.246460
11876.285638	1498.710000	381.115234	145.866730
11876.285638	1498.710000	379.835938	167.509567
11876.285638	1498.710000	378.556641	84.772629
11876.285638	1498.710000	377.277344	29.885113
11876.285638	1498.710000	375.997070	-44.853352
11876.285638	1498.710000	374.716797	-74.461388
11876.285638	1498.710000	373.435547	198.685486
11876.285638	1498.710000	372.155273	98.951721
11876.285638	1498.710000	370.874023	-76.929016
11876.285638	1498.710000	369.591797	30.286890
11876.285638	1498.710000	368.310547	106.719574
11876.285638	1498.710000	367.028320	-5.546947
11876.285638	1498.710000	365.746094	-174.481995
11876.285638	1498.710000	364.463867	28.018789
11876.285638	1498.710000	363.180664	-42.466084
11876.285638	1498.710000	361.897461	5.394693
11876.285638	1498.710000	360.614258	48.351681
11876.285638	1498.710000	359.330078	-129.644180
11876.285638	1498.710000	358.045898	15.791028
11876.285638	1498.710000	356.761719	0.758123
11876.285638	1498.710000	355.477539	-42.973610
11876.285638	1498.710000	354.192383	27.024485
11876.285638	1498.710000	352.907227	120.044510
11876.285638	1498.710000	351.622070	65.618988
11876.285638	1498.710000	350.336914	-13.236642
11876.285638	1498.710000	349.050781	191.820129
11876.285638	1498.710000	347.764648	63.999458
11876.285638	1498.710000	346.477539	140.186539
11876.285638	1498.710000	345.191406	-21.511492
11876.285638	1498.710000	343.904297	-74.125969
11876.285638	1498.710000	342.616211	53.329060
11876.285638	1498.710000	341.329102	37.714870
11876.285638	1498.710000	340.041016	-6.830656
11876.285638	1498.710000	338.752930	-41.547108
11876.285638	1498.710000	337.463867	56.182308
11876.285638	1498.710000	336.175781	-195.691864
11876.285638	1498.710000	334.886719	-196.825027
11876.285638	1498.710000	333.596680	-57.101887
11876.285638	1498.710000	332.307617	-131.390381
11876.285638	1498.710000	331.017578	-215.403320
11876.285638	1498.710000	329.727539	-264.001404
11876.285638	1498.710000	328.436523	-92.465714
11876.285638	1498.710000	327.146484	-132.747742
11876.285638	1498.710000	325.855469	-159.266266
11876.285638	1498.710000	324.563477	27.645611
11876.285638	1498.710000	323.272461	97.241112
11876.285638	1498.710000	321.980469	242.681503
11876.285638	1498.710000	320.688477	-8.222422
11876.285638	1498.710000	319.395508	-108.154221
11876.285638	1498.710000	318.103516	146.606644
11876.285638	1498.710000	316.810547	17.952238
11876.285638	1498.710000	315.516602	14.263535
11876.285638	1498.710000	314.223633	154.792892
11876.285638	1498.710000	312.929688	6.383086
11876.285638	1498.710000	311.635742	263.486847
11876.285638	1498.710000	310.340820	75.248566
11876.285638	1498.710000	309.045898	9.550493
11876.285638	1498.710000	307.750977	40.571003
11876.285638	1498.710000	306.456055	11.914423
11876.285638	1498.710000	305.160156	-59.353024
11876.285638	1498.710000	303.865234	192.785248
11876.285638	1498.710000	302.568359	299.360565
11876.285638	1498.710000	301.272461	378.222870
11876.285638	1498.710000	299.975586	491.249359
11876.285638	1498.710000	298.678711	497.306763
